»»»»»»»»»»»»»»»»»»»»»»»»»»»»»»»»»»»» Hysteresis ««««««««««««««««««««««««««««««««««««
»»»  Executed Version:	5.16.2
»»»  Vision Version:	5.16.10 (R)
»»»  Vision Compiled:	4/26/18
»»»  Driver Version:	5.16.6
»»»  Windows Version:	Windows 8
»»»  Processor Information:	x86 (AMD or Intel) - 8 Processors
»»»  Tester Name:	PPM21016-863
»»»  Tester S/N:	PPM21016-863
»»»  Internal Amp Type:	 RTI ML200V    
»»»  Internal Amp S/N:	 iAB2-0000     
»»»  Execution Count:	1
»»»»»»»»»»»»»»»»»»»»»»»»»»»»»»»»»»»»»»»»»»««««««««««««««««««««««««««««««««««««««««««

Stored:	8/1/2018 - 14:36:59
Configured:	08/01/18 01:24:35 PM
Executed:	08/01/18 02:36:36 PM

»»»»»»»»»»»»»»»»»»»»»»»»»»»»»»»»»»» Sample Info ««««««««««««««««««««««««««««««««««««
Sample Name:	Internal Reference Cap.
Lot Name:	N/A
Wafer Name:	N/A
Die Row/Column:	0/0
Capacitor Number:	0
Sample Area (cm2):	6.20e-005
Sample Thickness (µm):	1.00e-001

Mux Loop Adjustment:	Disabled

Amplifier:	Internal

»»»»»»»»»»»»»»»»»»»»»»»»»»»»»»»»»»» Tester Info «««««««««««««««««««««««««««««««««««
Tester Name:	PPM21016-863
Tester Serial Number:	PPM21016-863
Return Signal Amp. Level:	1.79 [Index: 2]

»»»»»»»»»»»»»»»»»»»»»»»»»»»»»»»» Hysteresis Info ««««««««««««««««««««««««««««««««««
Task Name:	Hyst-1
Volts:	3.00
Field:	300.00 (kV/cm)
Hysteresis Period (ms):	2.00e+000
Preset:	Enabled
Preset Delay (ms):	1.00e+003
Profile:	Double Bipolar

»»»»»»»»»»»»»»»»»»»»»»»»»»»»»»»»»»»»»» Data «««««««««««««««««««««««««««««««««««««««
Points:	2001

Valid Data

Point	Time (ms)	Field (kV/cm)	Measured Polarization
   1	1.0000e-003	0.038147	-21.316010
   2	2.0000e-003	1.243591	-21.263925
   3	3.0000e-003	2.372742	-21.177575
   4	4.0000e-003	3.570557	-21.112469
   5	5.0000e-003	4.684448	-21.044621
   6	6.0000e-003	5.889893	-20.958956
   7	7.0000e-003	7.141113	-20.879458
   8	8.0000e-003	8.628845	-20.781457
   9	9.0000e-003	9.773254	-20.693735
  10	1.0000e-002	10.864258	-20.606013
  11	1.1000e-002	12.039185	-20.486767
  12	1.2000e-002	13.031006	-20.373688
  13	1.3000e-002	14.366150	-20.217434
  14	1.4000e-002	15.686035	-20.061180
  15	1.5000e-002	16.670227	-19.876827
  16	1.6000e-002	17.936707	-19.691790
  17	1.7000e-002	18.989563	-19.477283
  18	1.8000e-002	20.233154	-19.236734
  19	1.9000e-002	21.392822	-18.987275
  20	2.0000e-002	22.796631	-18.720684
  21	2.1000e-002	23.849487	-18.417770
  22	2.2000e-002	25.154114	-18.118968
  23	2.3000e-002	26.443481	-17.792068
  24	2.4000e-002	27.503967	-17.464483
  25	2.5000e-002	28.656006	-17.110170
  26	2.6000e-002	29.716492	-16.736668
  27	2.7000e-002	31.021118	-16.348774
  28	2.8000e-002	32.394409	-15.950600
  29	2.9000e-002	33.584595	-15.529125
  30	3.0000e-002	34.790039	-15.085719
  31	3.1000e-002	35.957336	-14.632034
  32	3.2000e-002	37.277222	-14.176293
  33	3.3000e-002	38.131714	-13.681488
  34	3.4000e-002	39.543152	-13.177774
  35	3.5000e-002	40.596008	-12.664466
  36	3.6000e-002	41.954041	-12.121003
  37	3.7000e-002	42.961121	-11.554239
  38	3.8000e-002	44.219971	-10.984049
  39	3.9000e-002	45.516968	-10.410431
  40	4.0000e-002	46.798706	-9.795009
  41	4.1000e-002	47.592163	-9.154230
  42	4.2000e-002	48.866272	-8.518249
  43	4.3000e-002	50.201416	-7.863763
  44	4.4000e-002	51.300049	-7.199683
  45	4.5000e-002	52.749634	-6.501337
  46	4.6000e-002	53.558350	-5.790655
  47	4.7000e-002	55.191040	-5.084084
  48	4.8000e-002	56.091309	-4.351472
  49	4.9000e-002	57.571411	-3.618859
  50	5.0000e-002	58.517456	-2.893100
  51	5.1000e-002	59.768677	-2.148152
  52	5.2000e-002	61.195374	-1.370993
  53	5.3000e-002	62.095642	-0.632212
  54	5.4000e-002	63.415527	0.088750
  55	5.5000e-002	64.582825	0.872762
  56	5.6000e-002	65.887451	1.587556
  57	5.7000e-002	67.070007	2.292070
  58	5.8000e-002	68.290710	3.019200
  59	5.9000e-002	69.389343	3.723714
  60	6.0000e-002	70.663452	4.406983
  61	6.1000e-002	71.975708	5.097791
  62	6.2000e-002	72.891235	5.762556
  63	6.3000e-002	74.333191	6.407447
  64	6.4000e-002	75.630188	7.065359
  65	6.5000e-002	76.568604	7.717789
  66	6.6000e-002	77.995300	8.331155
  67	6.7000e-002	78.948975	8.972619
  68	6.8000e-002	80.184937	9.582559
  69	6.9000e-002	81.321716	10.175365
  70	7.0000e-002	82.649231	10.829165
  71	7.1000e-002	83.885193	11.397300
  72	7.2000e-002	85.098267	12.018889
  73	7.3000e-002	86.051941	12.631570
  74	7.4000e-002	87.532043	13.251104
  75	7.5000e-002	88.722229	13.882289
  76	7.6000e-002	89.668274	14.538830
  77	7.7000e-002	91.201782	15.168644
  78	7.8000e-002	92.292786	15.847801
  79	7.9000e-002	93.345642	16.522161
  80	8.0000e-002	94.696045	17.204745
  81	8.1000e-002	95.710754	17.909944
  82	8.2000e-002	97.152710	18.623368
  83	8.3000e-002	97.976685	19.372428
  84	8.4000e-002	99.571228	20.110523
  85	8.5000e-002	100.486755	20.834912
  86	8.6000e-002	101.921082	21.663470
  87	8.7000e-002	103.042603	22.462559
  88	8.8000e-002	104.080200	23.258222
  89	8.9000e-002	105.522156	24.063479
  90	9.0000e-002	106.697083	24.900261
  91	9.1000e-002	107.978821	25.753490
  92	9.2000e-002	109.092712	26.573139
  93	9.3000e-002	110.206604	27.453097
  94	9.4000e-002	111.572266	28.307697
  95	9.5000e-002	112.770081	29.202732
  96	9.6000e-002	113.677979	30.080633
  97	9.7000e-002	115.295410	30.966073
  98	9.8000e-002	116.355896	31.857681
  99	9.9000e-002	117.416382	32.765052
 100	1.0000e-001	118.644714	33.660086
 101	1.0100e-001	119.895935	34.537988
 102	1.0200e-001	121.055603	35.413833
 103	1.0300e-001	122.413635	36.265007
 104	1.0400e-001	123.405457	37.123720
 105	1.0500e-001	124.725342	37.975579
 106	1.0600e-001	125.846863	38.828809
 107	1.0700e-001	127.082825	39.616247
 108	1.0800e-001	128.280640	40.408483
 109	1.0900e-001	129.516602	41.147263
 110	1.1000e-001	130.638123	41.875079
 111	1.1100e-001	131.782532	42.548753
 112	1.1200e-001	133.041382	43.223799
 113	1.1300e-001	133.972168	43.846759
 114	1.1400e-001	135.467529	44.442992
 115	1.1500e-001	136.642456	44.981658
 116	1.1600e-001	137.672424	45.511414
 117	1.1700e-001	139.122009	46.008275
 118	1.1800e-001	140.167236	46.464016
 119	1.1900e-001	141.441345	46.875896
 120	1.2000e-001	142.631531	47.286406
 121	1.2100e-001	143.798828	47.665391
 122	1.2200e-001	145.202637	47.999144
 123	1.2300e-001	146.270752	48.317820
 124	1.2400e-001	147.644043	48.622105
 125	1.2500e-001	148.803711	48.905144
 126	1.2600e-001	150.108337	49.155973
 127	1.2700e-001	151.260376	49.427362
 128	1.2800e-001	152.313232	49.668596
 129	1.2900e-001	153.541565	49.892697
 130	1.3000e-001	154.685974	50.110631
 131	1.3100e-001	155.982971	50.321711
 132	1.3200e-001	156.982422	50.542386
 133	1.3300e-001	158.538818	50.739074
 134	1.3400e-001	159.698486	50.917944
 135	1.3500e-001	160.781860	51.098184
 136	1.3600e-001	161.857605	51.264718
 137	1.3700e-001	163.070679	51.453183
 138	1.3800e-001	164.421082	51.601898
 139	1.3900e-001	165.519714	51.762264
 140	1.4000e-001	166.915894	51.926742
 141	1.4100e-001	167.945862	52.058325
 142	1.4200e-001	169.090271	52.191278
 143	1.4300e-001	170.387268	52.347532
 144	1.4400e-001	171.470642	52.464037
 145	1.4500e-001	172.943115	52.601102
 146	1.4600e-001	173.965454	52.731314
 147	1.4700e-001	175.071716	52.865638
 148	1.4800e-001	176.376343	52.986940
 149	1.4900e-001	177.413940	53.104131
 150	1.5000e-001	178.558350	53.230231
 151	1.5100e-001	180.038452	53.348107
 152	1.5200e-001	181.266785	53.453647
 153	1.5300e-001	182.319641	53.548907
 154	1.5400e-001	183.570862	53.659930
 155	1.5500e-001	184.745789	53.790827
 156	1.5600e-001	185.905457	53.873066
 157	1.5700e-001	187.294006	53.982033
 158	1.5800e-001	188.583374	54.073866
 159	1.5900e-001	189.575195	54.188315
 160	1.6000e-001	190.963745	54.293170
 161	1.6100e-001	191.787720	54.382948
 162	1.6200e-001	193.214417	54.479579
 163	1.6300e-001	194.511414	54.593343
 164	1.6400e-001	195.449829	54.686547
 165	1.6500e-001	196.563721	54.780436
 166	1.6600e-001	198.043823	54.896256
 167	1.6700e-001	199.142456	54.976439
 168	1.6800e-001	200.172424	55.080609
 169	1.6900e-001	201.538086	55.160106
 170	1.7000e-001	202.812195	55.264276
 171	1.7100e-001	203.964233	55.344459
 172	1.7200e-001	205.215454	55.439034
 173	1.7300e-001	206.291199	55.540462
 174	1.7400e-001	207.496643	55.635037
 175	1.7500e-001	208.732605	55.713849
 176	1.7600e-001	210.075378	55.800885
 177	1.7700e-001	211.189270	55.894775
 178	1.7800e-001	212.226868	56.002371
 179	1.7900e-001	213.623047	56.079813
 180	1.8000e-001	214.561462	56.184667
 181	1.8100e-001	215.995789	56.267592
 182	1.8200e-001	217.285156	56.360111
 183	1.8300e-001	218.215942	56.455371
 184	1.8400e-001	219.512939	56.519791
 185	1.8500e-001	220.809937	56.622590
 186	1.8600e-001	222.137451	56.723333
 187	1.8700e-001	223.052979	56.793922
 188	1.8800e-001	224.510193	56.894664
 189	1.8900e-001	225.486755	56.983071
 190	1.9000e-001	226.898193	57.055030
 191	1.9100e-001	227.912903	57.151661
 192	1.9200e-001	229.148865	57.238698
 193	1.9300e-001	230.445862	57.335328
 194	1.9400e-001	231.437683	57.414141
 195	1.9500e-001	232.559204	57.510086
 196	1.9600e-001	234.016418	57.583416
 197	1.9700e-001	235.198975	57.680047
 198	1.9800e-001	236.442566	57.760230
 199	1.9900e-001	237.419128	57.850693
 200	2.0000e-001	238.807678	57.934988
 201	2.0100e-001	239.990234	58.030933
 202	2.0200e-001	241.218567	58.093298
 203	2.0300e-001	242.263794	58.191299
 204	2.0400e-001	243.614197	58.268741
 205	2.0500e-001	244.842529	58.363316
 206	2.0600e-001	245.841980	58.438017
 207	2.0700e-001	247.024536	58.527109
 208	2.0800e-001	248.199463	58.616886
 209	2.0900e-001	249.504089	58.692272
 210	2.1000e-001	250.808716	58.788218
 211	2.1100e-001	252.082825	58.877995
 212	2.1200e-001	252.952576	58.947898
 213	2.1300e-001	254.386902	59.039732
 214	2.1400e-001	255.538940	59.113062
 215	2.1500e-001	256.629944	59.221343
 216	2.1600e-001	257.888794	59.288505
 217	2.1700e-001	258.949280	59.389248
 218	2.1800e-001	260.238647	59.471487
 219	2.1900e-001	261.375427	59.551670
 220	2.2000e-001	262.786865	59.624314
 221	2.2100e-001	264.015198	59.705868
 222	2.2200e-001	265.357971	59.778512
 223	2.2300e-001	266.212463	59.864863
 224	2.2400e-001	267.601013	59.951214
 225	2.2500e-001	268.737793	60.034824
 226	2.2600e-001	269.950867	60.137623
 227	2.2700e-001	271.217346	60.215750
 228	2.2800e-001	272.430420	60.284968
 229	2.2900e-001	273.544312	60.367892
 230	2.3000e-001	274.749756	60.458355
 231	2.3100e-001	275.993347	60.536482
 232	2.3200e-001	277.084351	60.613238
 233	2.3300e-001	278.236389	60.698904
 234	2.3400e-001	279.487610	60.770178
 235	2.3500e-001	280.555725	60.865438
 236	2.3600e-001	281.822205	60.964125
 237	2.3700e-001	283.088684	61.029916
 238	2.3800e-001	284.507751	61.123120
 239	2.3900e-001	285.629272	61.210842
 240	2.4000e-001	286.827087	61.275948
 241	2.4100e-001	287.963867	61.363670
 242	2.4200e-001	289.314270	61.468524
 243	2.4300e-001	290.367126	61.521294
 244	2.4400e-001	291.648865	61.599421
 245	2.4500e-001	292.686462	61.693311
 246	2.4600e-001	294.136047	61.773494
 247	2.4700e-001	295.249939	61.846138
 248	2.4800e-001	296.173096	61.944825
 249	2.4900e-001	297.676086	62.008560
 250	2.5000e-001	298.637390	62.104506
 251	2.5100e-001	299.980164	62.201137
 252	2.5200e-001	298.828125	62.160017
 253	2.5300e-001	297.660828	62.129178
 254	2.5400e-001	296.287537	62.120268
 255	2.5500e-001	295.143127	62.079149
 256	2.5600e-001	293.769836	62.053107
 257	2.5700e-001	292.564392	62.031176
 258	2.5800e-001	291.664124	61.994854
 259	2.5900e-001	290.290833	61.943455
 260	2.6000e-001	288.932800	61.934545
 261	2.6100e-001	288.009644	61.907818
 262	2.6200e-001	286.773682	61.863957
 263	2.6300e-001	285.636902	61.839970
 264	2.6400e-001	284.233093	61.787200
 265	2.6500e-001	283.248901	61.771438
 266	2.6600e-001	281.852722	61.725521
 267	2.6700e-001	280.723572	61.701535
 268	2.6800e-001	279.457092	61.667954
 269	2.6900e-001	278.129578	61.634373
 270	2.7000e-001	276.802063	61.603533
 271	2.7100e-001	276.000977	61.548022
 272	2.7200e-001	274.398804	61.518553
 273	2.7300e-001	273.498535	61.482916
 274	2.7400e-001	272.254944	61.435629
 275	2.7500e-001	271.095276	61.413013
 276	2.7600e-001	269.767761	61.376005
 277	2.7700e-001	268.844604	61.352019
 278	2.7800e-001	267.692566	61.306788
 279	2.7900e-001	266.288757	61.278689
 280	2.8000e-001	265.159607	61.236199
 281	2.8100e-001	263.984680	61.195080
 282	2.8200e-001	262.626648	61.152589
 283	2.8300e-001	261.741638	61.119008
 284	2.8400e-001	260.154724	61.081316
 285	2.8500e-001	259.002686	61.046364
 286	2.8600e-001	257.659912	61.003188
 287	2.8700e-001	256.538391	60.959328
 288	2.8800e-001	255.249023	60.929859
 289	2.8900e-001	254.325867	60.899019
 290	2.9000e-001	252.922058	60.842822
 291	2.9100e-001	251.930237	60.803759
 292	2.9200e-001	250.518799	60.781828
 293	2.9300e-001	249.549866	60.744136
 294	2.9400e-001	248.435974	60.667379
 295	2.9500e-001	247.184753	60.650931
 296	2.9600e-001	246.009827	60.602273
 297	2.9700e-001	244.705200	60.565266
 298	2.9800e-001	243.392944	60.539223
 299	2.9900e-001	242.576599	60.476173
 300	3.0000e-001	240.966797	60.437795
 301	3.0100e-001	239.921570	60.404214
 302	3.0200e-001	238.800049	60.350759
 303	3.0300e-001	237.602234	60.285653
 304	3.0400e-001	236.343384	60.275373
 305	3.0500e-001	235.275269	60.225344
 306	3.0600e-001	233.909607	60.164351
 307	3.0700e-001	232.650757	60.134196
 308	3.0800e-001	231.651306	60.104727
 309	3.0900e-001	230.163574	60.049216
 310	3.1000e-001	229.225159	60.010838
 311	3.1100e-001	228.050232	59.966977
 312	3.1200e-001	226.692200	59.927228
 313	3.1300e-001	225.730896	59.871717
 314	3.1400e-001	224.327087	59.837450
 315	3.1500e-001	223.289490	59.791534
 316	3.1600e-001	221.817017	59.737393
 317	3.1700e-001	220.802307	59.697644
 318	3.1800e-001	219.749451	59.645559
 319	3.1900e-001	218.292236	59.624314
 320	3.2000e-001	217.140198	59.559208
 321	3.2100e-001	215.980530	59.494103
 322	3.2200e-001	214.736938	59.463263
 323	3.2300e-001	213.462830	59.424199
 324	3.2400e-001	212.455750	59.358408
 325	3.2500e-001	211.044312	59.316603
 326	3.2600e-001	210.144043	59.275484
 327	3.2700e-001	208.625793	59.231623
 328	3.2800e-001	207.450867	59.185021
 329	3.2900e-001	206.344604	59.126768
 330	3.3000e-001	204.811096	59.096614
 331	3.3100e-001	203.849792	59.036305
 332	3.3200e-001	202.827454	58.975997
 333	3.3300e-001	201.461792	58.923912
 334	3.3400e-001	200.370789	58.886904
 335	3.3500e-001	199.058533	58.859491
 336	3.3600e-001	198.051453	58.771770
 337	3.3700e-001	196.571350	58.737504
 338	3.3800e-001	195.602417	58.692957
 339	3.3900e-001	194.335938	58.634705
 340	3.4000e-001	193.084717	58.566172
 341	3.4100e-001	191.894531	58.531906
 342	3.4200e-001	190.635681	58.475709
 343	3.4300e-001	189.575195	58.435275
 344	3.4400e-001	188.262939	58.369484
 345	3.4500e-001	187.057495	58.322197
 346	3.4600e-001	185.981750	58.273538
 347	3.4700e-001	184.837341	58.210489
 348	3.4800e-001	183.540344	58.155663
 349	3.4900e-001	182.296753	58.111802
 350	3.5000e-001	181.365967	58.057661
 351	3.5100e-001	179.801941	57.993241
 352	3.5200e-001	178.939819	57.942526
 353	3.5300e-001	177.429199	57.891127
 354	3.5400e-001	176.460266	57.839042
 355	3.5500e-001	174.911499	57.771195
 356	3.5600e-001	174.003601	57.735558
 357	3.5700e-001	172.752380	57.691697
 358	3.5800e-001	171.440125	57.615626
 359	3.5900e-001	170.761108	57.547094
 360	3.6000e-001	169.067383	57.525163
 361	3.6100e-001	167.869568	57.442239
 362	3.6200e-001	166.854858	57.382616
 363	3.6300e-001	165.374756	57.354517
 364	3.6400e-001	164.215088	57.264740
 365	3.6500e-001	163.116455	57.222935
 366	3.6600e-001	161.674500	57.155088
 367	3.6700e-001	160.865784	57.094779
 368	3.6800e-001	159.706116	57.039268
 369	3.6900e-001	158.363342	56.999519
 370	3.7000e-001	157.234192	56.910427
 371	3.7100e-001	156.127930	56.861769
 372	3.7200e-001	154.541016	56.810369
 373	3.7300e-001	153.656006	56.757599
 374	3.7400e-001	152.091980	56.671934
 375	3.7500e-001	151.115417	56.613681
 376	3.7600e-001	150.001526	56.567079
 377	3.7700e-001	148.681641	56.512938
 378	3.7800e-001	147.590637	56.430014
 379	3.7900e-001	146.545410	56.366964
 380	3.8000e-001	144.973755	56.315565
 381	3.8100e-001	143.997192	56.240179
 382	3.8200e-001	142.814636	56.186723
 383	3.8300e-001	141.532898	56.129841
 384	3.8400e-001	140.190125	56.049658
 385	3.8500e-001	138.954163	56.001000
 386	3.8600e-001	137.863159	55.919447
 387	3.8700e-001	136.795044	55.865991
 388	3.8800e-001	135.734558	55.810480
 389	3.8900e-001	134.269714	55.721388
 390	3.9000e-001	133.087158	55.669988
 391	3.9100e-001	131.988525	55.610365
 392	3.9200e-001	130.592346	55.550056
 393	3.9300e-001	129.539490	55.480153
 394	3.9400e-001	128.349304	55.369131
 395	3.9500e-001	127.143860	55.331438
 396	3.9600e-001	126.075745	55.271814
 397	3.9700e-001	124.855042	55.192317
 398	3.9800e-001	123.542786	55.124470
 399	3.9900e-001	122.650146	55.039489
 400	4.0000e-001	121.139526	54.986034
 401	4.0100e-001	119.995117	54.914760
 402	4.0200e-001	118.827820	54.844172
 403	4.0300e-001	117.424011	54.788660
 404	4.0400e-001	116.432190	54.706421
 405	4.0500e-001	114.952087	54.640630
 406	4.0600e-001	113.792419	54.540573
 407	4.0700e-001	112.670898	54.484376
 408	4.0800e-001	111.503601	54.440515
 409	4.0900e-001	110.275269	54.346625
 410	4.1000e-001	109.245300	54.265072
 411	4.1100e-001	107.963562	54.197910
 412	4.1200e-001	106.849670	54.131433
 413	4.1300e-001	105.438232	54.038229
 414	4.1400e-001	104.003906	54.005334
 415	4.1500e-001	103.034973	53.895682
 416	4.1600e-001	101.867676	53.824408
 417	4.1700e-001	100.608826	53.729833
 418	4.1800e-001	99.647522	53.664042
 419	4.1900e-001	98.373413	53.586600
 420	4.2000e-001	97.145081	53.502305
 421	4.2100e-001	96.015930	53.431031
 422	4.2200e-001	94.673157	53.338512
 423	4.2300e-001	93.498230	53.285057
 424	4.2400e-001	92.414856	53.161013
 425	4.2500e-001	91.125488	53.090425
 426	4.2600e-001	90.087891	53.012297
 427	4.2700e-001	88.859558	52.923891
 428	4.2800e-001	87.455750	52.843707
 429	4.2900e-001	86.494446	52.736797
 430	4.3000e-001	85.456848	52.669635
 431	4.3100e-001	83.923340	52.595620
 432	4.3200e-001	82.695007	52.493506
 433	4.3300e-001	81.588745	52.418121
 434	4.3400e-001	80.307007	52.322860
 435	4.3500e-001	79.223633	52.233768
 436	4.3600e-001	77.880859	52.135767
 437	4.3700e-001	76.744080	52.044618
 438	4.3800e-001	75.714111	51.966491
 439	4.3900e-001	74.302673	51.852727
 440	4.4000e-001	73.127747	51.769803
 441	4.4100e-001	71.929932	51.681396
 442	4.4200e-001	70.579529	51.574485
 443	4.4300e-001	69.625854	51.471687
 444	4.4400e-001	68.405151	51.383280
 445	4.4500e-001	67.123413	51.294873
 446	4.4600e-001	66.055298	51.192074
 447	4.4700e-001	64.590454	51.066659
 448	4.4800e-001	63.468933	50.970029
 449	4.4900e-001	62.156677	50.874768
 450	4.5000e-001	60.974121	50.765802
 451	4.5100e-001	59.822083	50.633534
 452	4.5200e-001	58.898926	50.547868
 453	4.5300e-001	57.617188	50.429307
 454	4.5400e-001	56.373596	50.313487
 455	4.5500e-001	55.068970	50.212059
 456	4.5600e-001	54.298401	50.088015
 457	4.5700e-001	52.642822	49.958489
 458	4.5800e-001	51.750183	49.843354
 459	4.5900e-001	50.384521	49.718625
 460	4.6000e-001	49.095154	49.594581
 461	4.6100e-001	47.851563	49.473278
 462	4.6200e-001	46.829224	49.319080
 463	4.6300e-001	45.555115	49.212855
 464	4.6400e-001	44.265747	49.054545
 465	4.6500e-001	43.190002	48.904459
 466	4.6600e-001	41.969299	48.757114
 467	4.6700e-001	40.809631	48.613881
 468	4.6800e-001	39.581299	48.455571
 469	4.6900e-001	38.139343	48.294519
 470	4.7000e-001	37.055969	48.132097
 471	4.7100e-001	36.033630	47.971046
 472	4.7200e-001	34.706116	47.791491
 473	4.7300e-001	33.180237	47.606453
 474	4.7400e-001	32.325745	47.400855
 475	4.7500e-001	31.135559	47.232265
 476	4.7600e-001	30.136108	47.030094
 477	4.7700e-001	28.724670	46.784063
 478	4.7800e-001	27.465820	46.587374
 479	4.7900e-001	26.336670	46.353679
 480	4.8000e-001	25.314331	46.110388
 481	4.8100e-001	23.902893	45.845853
 482	4.8200e-001	22.827148	45.608730
 483	4.8300e-001	21.636963	45.344880
 484	4.8400e-001	20.500183	45.048134
 485	4.8500e-001	19.142151	44.763039
 486	4.8600e-001	18.043518	44.456699
 487	4.8700e-001	16.624451	44.134596
 488	4.8800e-001	15.617371	43.791933
 489	4.8900e-001	14.480591	43.434193
 490	4.9000e-001	13.114929	43.090846
 491	4.9100e-001	11.978149	42.722141
 492	4.9200e-001	10.787964	42.290386
 493	4.9300e-001	9.666443	41.904548
 494	4.9400e-001	8.354187	41.485814
 495	4.9500e-001	7.164001	41.050633
 496	4.9600e-001	5.943298	40.591465
 497	4.9700e-001	4.753113	40.116534
 498	4.9800e-001	3.784180	39.664220
 499	4.9900e-001	2.655029	39.168045
 500	5.0000e-001	1.174927	38.654051
 501	5.0100e-001	0.114441	38.136630
 502	5.0200e-001	-1.380920	37.604818
 503	5.0300e-001	-2.304077	37.056558
 504	5.0400e-001	-3.448486	36.495277
 505	5.0500e-001	-4.493713	35.918233
 506	5.0600e-001	-5.989075	35.342560
 507	5.0700e-001	-6.988525	34.727823
 508	5.0800e-001	-8.552551	34.103492
 509	5.0900e-001	-9.544373	33.460657
 510	5.1000e-001	-10.719299	32.789038
 511	5.1100e-001	-12.115479	32.105084
 512	5.1200e-001	-13.015747	31.366989
 513	5.1300e-001	-14.511108	30.639859
 514	5.1400e-001	-15.495300	29.862015
 515	5.1500e-001	-16.479492	29.020435
 516	5.1600e-001	-17.784119	28.181597
 517	5.1700e-001	-19.203186	27.322885
 518	5.1800e-001	-20.317078	26.405920
 519	5.1900e-001	-21.522522	25.468395
 520	5.2000e-001	-22.720337	24.511681
 521	5.2100e-001	-23.986816	23.515904
 522	5.2200e-001	-24.810791	22.466671
 523	5.2300e-001	-26.161194	21.409900
 524	5.2400e-001	-27.351379	20.335310
 525	5.2500e-001	-28.755188	19.199041
 526	5.2600e-001	-29.785156	18.062086
 527	5.2700e-001	-31.044006	16.905258
 528	5.2800e-001	-32.302856	15.705253
 529	5.2900e-001	-33.378601	14.546369
 530	5.3000e-001	-34.584045	13.329231
 531	5.3100e-001	-35.789490	12.105926
 532	5.3200e-001	-36.956787	10.907977
 533	5.3300e-001	-38.230896	9.731960
 534	5.3400e-001	-39.527893	8.531955
 535	5.3500e-001	-40.641785	7.366217
 536	5.3600e-001	-41.740417	6.236116
 537	5.3700e-001	-43.197632	5.112868
 538	5.3800e-001	-44.181824	4.067062
 539	5.3900e-001	-45.478821	3.058949
 540	5.4000e-001	-46.737671	2.095382
 541	5.4100e-001	-47.851563	1.184584
 542	5.4200e-001	-48.973083	0.311480
 543	5.4300e-001	-50.170898	-0.504057
 544	5.4400e-001	-51.445007	-1.275047
 545	5.4500e-001	-52.719116	-2.020681
 546	5.4600e-001	-53.680420	-2.711489
 547	5.4700e-001	-55.007935	-3.374884
 548	5.4800e-001	-56.251526	-3.984138
 549	5.4900e-001	-57.472229	-4.568720
 550	5.5000e-001	-58.784485	-5.137540
 551	5.5100e-001	-59.654236	-5.659758
 552	5.5200e-001	-60.974121	-6.171010
 553	5.5300e-001	-62.309265	-6.692543
 554	5.5400e-001	-63.385010	-7.179123
 555	5.5500e-001	-64.826965	-7.658851
 556	5.5600e-001	-65.902710	-8.152285
 557	5.5700e-001	-67.268372	-8.634754
 558	5.5800e-001	-68.252563	-9.115852
 559	5.5900e-001	-69.435120	-9.605860
 560	5.6000e-001	-70.693970	-10.094497
 561	5.6100e-001	-71.868896	-10.600952
 562	5.6200e-001	-73.097229	-11.092330
 563	5.6300e-001	-74.417114	-11.609065
 564	5.6400e-001	-75.531006	-12.116891
 565	5.6500e-001	-77.003479	-12.652815
 566	5.6600e-001	-77.911377	-13.199705
 567	5.6700e-001	-79.109192	-13.745223
 568	5.6800e-001	-80.169678	-14.318841
 569	5.6900e-001	-81.420898	-14.895199
 570	5.7000e-001	-82.939148	-15.479096
 571	5.7100e-001	-83.801270	-16.082182
 572	5.7200e-001	-85.296631	-16.691436
 573	5.7300e-001	-86.273193	-17.286984
 574	5.7400e-001	-87.707520	-17.912686
 575	5.7500e-001	-88.722229	-18.545241
 576	5.7600e-001	-89.874268	-19.196300
 577	5.7700e-001	-91.133118	-19.826113
 578	5.7800e-001	-92.346191	-20.470319
 579	5.7900e-001	-93.444824	-21.132343
 580	5.8000e-001	-94.711304	-21.796423
 581	5.8100e-001	-95.901489	-22.485175
 582	5.8200e-001	-97.183228	-23.130066
 583	5.8300e-001	-98.403931	-23.790719
 584	5.8400e-001	-99.479675	-24.476730
 585	5.8500e-001	-100.791931	-25.130530
 586	5.8600e-001	-101.982117	-25.783645
 587	5.8700e-001	-102.775574	-26.453207
 588	5.8800e-001	-104.148865	-27.109064
 589	5.8900e-001	-105.575562	-27.760122
 590	5.9000e-001	-106.788635	-28.393363
 591	5.9100e-001	-108.161926	-29.062240
 592	5.9200e-001	-109.146118	-29.685201
 593	5.9300e-001	-110.229492	-30.304049
 594	5.9400e-001	-111.648560	-30.926324
 595	5.9500e-001	-112.625122	-31.526669
 596	5.9600e-001	-113.868713	-32.114678
 597	5.9700e-001	-114.921570	-32.699261
 598	5.9800e-001	-116.256714	-33.283158
 599	5.9900e-001	-117.584229	-33.848551
 600	6.0000e-001	-118.957520	-34.413944
 601	6.0100e-001	-119.804382	-34.947812
 602	6.0200e-001	-121.276855	-35.479625
 603	6.0300e-001	-122.337341	-36.011437
 604	6.0400e-001	-123.428345	-36.527487
 605	6.0500e-001	-124.755859	-37.024348
 606	6.0600e-001	-126.052856	-37.526005
 607	6.0700e-001	-127.250671	-38.012586
 608	6.0800e-001	-128.379822	-38.484090
 609	6.0900e-001	-129.592896	-38.965874
 610	6.1000e-001	-130.943298	-39.427097
 611	6.1100e-001	-132.225037	-39.886265
 612	6.1200e-001	-133.117676	-40.357084
 613	6.1300e-001	-134.376526	-40.810084
 614	6.1400e-001	-135.574341	-41.258971
 615	6.1500e-001	-136.726379	-41.726363
 616	6.1600e-001	-138.038635	-42.138929
 617	6.1700e-001	-139.335632	-42.583705
 618	6.1800e-001	-140.373230	-43.018886
 619	6.1900e-001	-141.517639	-43.448585
 620	6.2000e-001	-142.677307	-43.835109
 621	6.2100e-001	-143.852234	-44.251786
 622	6.2200e-001	-145.339966	-44.673947
 623	6.2300e-001	-146.606445	-45.040596
 624	6.2400e-001	-147.666931	-45.417524
 625	6.2500e-001	-148.727417	-45.782803
 626	6.2600e-001	-149.833679	-46.177550
 627	6.2700e-001	-150.993347	-46.489373
 628	6.2800e-001	-152.427673	-46.814902
 629	6.2900e-001	-153.549194	-47.150712
 630	6.3000e-001	-154.701233	-47.465276
 631	6.3100e-001	-156.356812	-47.753798
 632	6.3200e-001	-157.066345	-48.054655
 633	6.3300e-001	-158.256531	-48.330842
 634	6.3400e-001	-159.530640	-48.614566
 635	6.3500e-001	-160.903931	-48.870192
 636	6.3600e-001	-161.972046	-49.121707
 637	6.3700e-001	-163.208008	-49.378018
 638	6.3800e-001	-164.451599	-49.600064
 639	6.3900e-001	-165.573120	-49.822794
 640	6.4000e-001	-166.702271	-50.031133
 641	6.4100e-001	-167.915344	-50.234675
 642	6.4200e-001	-169.105530	-50.438216
 643	6.4300e-001	-170.631409	-50.611604
 644	6.4400e-001	-171.371460	-50.810348
 645	6.4500e-001	-172.744751	-50.980308
 646	6.4600e-001	-174.118042	-51.143416
 647	6.4700e-001	-175.254822	-51.310635
 648	6.4800e-001	-176.429749	-51.462092
 649	6.4900e-001	-177.680969	-51.618346
 650	6.5000e-001	-178.863525	-51.759523
 651	6.5100e-001	-180.007935	-51.890420
 652	6.5200e-001	-181.159973	-52.052157
 653	6.5300e-001	-182.495117	-52.191278
 654	6.5400e-001	-183.464050	-52.319434
 655	6.5500e-001	-184.890747	-52.420177
 656	6.5600e-001	-185.821533	-52.568892
 657	6.5700e-001	-187.210083	-52.705957
 658	6.5800e-001	-188.369751	-52.788196
 659	6.5900e-001	-189.430237	-52.936226
 660	6.6000e-001	-190.963745	-53.039710
 661	6.6100e-001	-191.955566	-53.154845
 662	6.6200e-001	-193.138123	-53.266553
 663	6.6300e-001	-194.396973	-53.384429
 664	6.6400e-001	-195.426941	-53.489969
 665	6.6500e-001	-196.823120	-53.605104
 666	6.6600e-001	-197.723389	-53.698993
 667	6.6700e-001	-199.310303	-53.816869
 668	6.6800e-001	-200.386047	-53.927892
 669	6.6900e-001	-201.728821	-54.025893
 670	6.7000e-001	-202.896118	-54.097852
 671	6.7100e-001	-204.193115	-54.225323
 672	6.7200e-001	-205.307007	-54.336346
 673	6.7300e-001	-206.298828	-54.402137
 674	6.7400e-001	-207.664490	-54.524125
 675	6.7500e-001	-208.892822	-54.611161
 676	6.7600e-001	-210.113525	-54.718072
 677	6.7700e-001	-211.265564	-54.824297
 678	6.7800e-001	-212.600708	-54.909277
 679	6.7900e-001	-213.401794	-55.030580
 680	6.8000e-001	-214.645386	-55.101854
 681	6.8100e-001	-216.148376	-55.175869
 682	6.8200e-001	-217.224121	-55.285521
 683	6.8300e-001	-218.383789	-55.382152
 684	6.8400e-001	-219.451904	-55.491118
 685	6.8500e-001	-220.825195	-55.563763
 686	6.8600e-001	-222.099304	-55.656967
 687	6.8700e-001	-223.403931	-55.770731
 688	6.8800e-001	-224.525452	-55.846117
 689	6.8900e-001	-225.784302	-55.938636
 690	6.9000e-001	-226.867676	-56.027728
 691	6.9100e-001	-228.050232	-56.109967
 692	6.9200e-001	-229.217529	-56.190835
 693	6.9300e-001	-230.575562	-56.275816
 694	6.9400e-001	-231.414795	-56.390265
 695	6.9500e-001	-232.864380	-56.479357
 696	6.9600e-001	-234.031677	-56.550631
 697	6.9700e-001	-235.008240	-56.654115
 698	6.9800e-001	-236.389160	-56.730872
 699	6.9900e-001	-237.670898	-56.834356
 700	7.0000e-001	-238.616943	-56.921392
 701	7.0100e-001	-240.158081	-56.989239
 702	7.0200e-001	-241.096497	-57.088611
 703	7.0300e-001	-242.507935	-57.153032
 704	7.0400e-001	-243.453979	-57.244180
 705	7.0500e-001	-244.964600	-57.345608
 706	7.0600e-001	-246.063232	-57.428533
 707	7.0700e-001	-246.986389	-57.525163
 708	7.0800e-001	-248.497009	-57.607402
 709	7.0900e-001	-249.588013	-57.695124
 710	7.1000e-001	-250.633240	-57.779419
 711	7.1100e-001	-252.120972	-57.852749
 712	7.1200e-001	-253.326416	-57.938415
 713	7.1300e-001	-254.524231	-58.028192
 714	7.1400e-001	-255.737305	-58.112487
 715	7.1500e-001	-257.003784	-58.205691
 716	7.1600e-001	-257.904053	-58.293413
 717	7.1700e-001	-259.231567	-58.370855
 718	7.1800e-001	-260.238647	-58.462003
 719	7.1900e-001	-261.718750	-58.547669
 720	7.2000e-001	-262.908936	-58.624425
 721	7.2100e-001	-264.114380	-58.713517
 722	7.2200e-001	-265.304565	-58.792330
 723	7.2300e-001	-266.555786	-58.868401
 724	7.2400e-001	-267.471313	-58.946528
 725	7.2500e-001	-268.920898	-59.050012
 726	7.2600e-001	-270.080566	-59.138419
 727	7.2700e-001	-271.041870	-59.214490
 728	7.2800e-001	-272.445679	-59.308379
 729	7.2900e-001	-273.666382	-59.386507
 730	7.3000e-001	-274.803162	-59.473543
 731	7.3100e-001	-276.306152	-59.546873
 732	7.3200e-001	-277.206421	-59.618832
 733	7.3300e-001	-278.533936	-59.716148
 734	7.3400e-001	-279.808044	-59.788107
 735	7.3500e-001	-280.929565	-59.876514
 736	7.3600e-001	-281.929016	-59.966292
 737	7.3700e-001	-283.134460	-60.052643
 738	7.3800e-001	-284.225464	-60.131455
 739	7.3900e-001	-285.659790	-60.213009
 740	7.4000e-001	-287.017822	-60.315807
 741	7.4100e-001	-288.047791	-60.394620
 742	7.4200e-001	-289.161682	-60.464523
 743	7.4300e-001	-290.344238	-60.552930
 744	7.4400e-001	-291.801453	-60.636540
 745	7.4500e-001	-292.785645	-60.710555
 746	7.4600e-001	-293.991089	-60.802388
 747	7.4700e-001	-295.372009	-60.884627
 748	7.4800e-001	-296.463013	-60.979202
 749	7.4900e-001	-297.714233	-61.053903
 750	7.5000e-001	-298.591614	-61.127232
 751	7.5100e-001	-300.102234	-61.212213
 752	7.5200e-001	-298.767090	-61.201247
 753	7.5300e-001	-297.454834	-61.173834
 754	7.5400e-001	-296.363831	-61.137512
 755	7.5500e-001	-295.150757	-61.117638
 756	7.5600e-001	-293.731689	-61.111470
 757	7.5700e-001	-292.770386	-61.063497
 758	7.5800e-001	-291.488647	-61.044993
 759	7.5900e-001	-290.367126	-61.013468
 760	7.6000e-001	-289.344788	-60.990853
 761	7.6100e-001	-287.994385	-60.959328
 762	7.6200e-001	-286.735535	-60.907243
 763	7.6300e-001	-285.644531	-60.897648
 764	7.6400e-001	-284.500122	-60.859956
 765	7.6500e-001	-283.226013	-60.824319
 766	7.6600e-001	-282.051086	-60.802388
 767	7.6700e-001	-280.685425	-60.768122
 768	7.6800e-001	-279.571533	-60.740024
 769	7.6900e-001	-278.114319	-60.729058
 770	7.7000e-001	-277.267456	-60.676288
 771	7.7100e-001	-276.229858	-60.661211
 772	7.7200e-001	-274.696350	-60.614609
 773	7.7300e-001	-273.719788	-60.573490
 774	7.7400e-001	-272.254944	-60.545391
 775	7.7500e-001	-271.118164	-60.507698
 776	7.7600e-001	-270.141602	-60.468635
 777	7.7700e-001	-268.966675	-60.441222
 778	7.7800e-001	-267.646790	-60.406956
 779	7.7900e-001	-266.464233	-60.390508
 780	7.8000e-001	-265.243530	-60.352815
 781	7.8100e-001	-263.977051	-60.312381
 782	7.8200e-001	-262.886047	-60.291821
 783	7.8300e-001	-261.596680	-60.231512
 784	7.8400e-001	-260.536194	-60.184225
 785	7.8500e-001	-259.017944	-60.156812
 786	7.8600e-001	-257.934570	-60.128028
 787	7.8700e-001	-256.797791	-60.109525
 788	7.8800e-001	-255.661011	-60.059496
 789	7.8900e-001	-254.554749	-60.033453
 790	7.9000e-001	-253.013611	-59.981369
 791	7.9100e-001	-251.953125	-59.956697
 792	7.9200e-001	-250.770569	-59.916948
 793	7.9300e-001	-249.450684	-59.866919
 794	7.9400e-001	-248.283386	-59.840192
 795	7.9500e-001	-247.344971	-59.794960
 796	7.9600e-001	-246.131897	-59.747673
 797	7.9700e-001	-244.781494	-59.718204
 798	7.9800e-001	-243.408203	-59.684623
 799	7.9900e-001	-242.652893	-59.651042
 800	8.0000e-001	-241.180420	-59.589363
 801	8.0100e-001	-240.013123	-59.566747
 802	8.0200e-001	-238.830566	-59.525628
 803	8.0300e-001	-237.533569	-59.483823
 804	8.0400e-001	-236.312866	-59.442703
 805	8.0500e-001	-235.076904	-59.399528
 806	8.0600e-001	-233.932495	-59.346758
 807	8.0700e-001	-232.879639	-59.319345
 808	8.0800e-001	-231.567383	-59.287134
 809	8.0900e-001	-230.361938	-59.247386
 810	8.1000e-001	-229.087830	-59.203525
 811	8.1100e-001	-227.981567	-59.170629
 812	8.1200e-001	-226.669312	-59.125398
 813	8.1300e-001	-225.448608	-59.061662
 814	8.1400e-001	-224.433899	-59.025340
 815	8.1500e-001	-223.335266	-58.983535
 816	8.1600e-001	-222.122192	-58.941730
 817	8.1700e-001	-220.901489	-58.915003
 818	8.1800e-001	-219.451904	-58.858121
 819	8.1900e-001	-218.353271	-58.823169
 820	8.2000e-001	-217.369080	-58.791644
 821	8.2100e-001	-215.736389	-58.727224
 822	8.2200e-001	-214.797974	-58.687475
 823	8.2300e-001	-213.661194	-58.631964
 824	8.2400e-001	-212.257385	-58.598383
 825	8.2500e-001	-211.166382	-58.543557
 826	8.2600e-001	-209.899902	-58.506549
 827	8.2700e-001	-208.862305	-58.472968
 828	8.2800e-001	-207.557678	-58.403750
 829	8.2900e-001	-206.489563	-58.368113
 830	8.3000e-001	-204.879761	-58.326309
 831	8.3100e-001	-204.055786	-58.276280
 832	8.3200e-001	-202.697754	-58.229678
 833	8.3300e-001	-201.400757	-58.178964
 834	8.3400e-001	-200.447083	-58.124823
 835	8.3500e-001	-199.081421	-58.083703
 836	8.3600e-001	-198.089600	-58.048067
 837	8.3700e-001	-196.853638	-57.980219
 838	8.3800e-001	-195.732117	-57.932247
 839	8.3900e-001	-194.183350	-57.918540
 840	8.4000e-001	-193.038940	-57.855490
 841	8.4100e-001	-191.947937	-57.803405
 842	8.4200e-001	-190.879822	-57.754747
 843	8.4300e-001	-189.826965	-57.697180
 844	8.4400e-001	-188.331604	-57.653319
 845	8.4500e-001	-187.301636	-57.601920
 846	8.4600e-001	-186.141968	-57.557374
 847	8.4700e-001	-184.684753	-57.503233
 848	8.4800e-001	-183.486938	-57.454575
 849	8.4900e-001	-182.342529	-57.402490
 850	8.5000e-001	-181.083679	-57.321622
 851	8.5100e-001	-180.038452	-57.311342
 852	8.5200e-001	-178.756714	-57.261313
 853	8.5300e-001	-177.787781	-57.188669
 854	8.5400e-001	-176.582336	-57.144808
 855	8.5500e-001	-175.148010	-57.095465
 856	8.5600e-001	-174.125671	-57.028303
 857	8.5700e-001	-172.790527	-56.974162
 858	8.5800e-001	-171.798706	-56.943322
 859	8.5900e-001	-170.265198	-56.917965
 860	8.6000e-001	-169.113159	-56.826132
 861	8.6100e-001	-167.984009	-56.779530
 862	8.6200e-001	-166.809082	-56.728130
 863	8.6300e-001	-165.420532	-56.662339
 864	8.6400e-001	-164.337158	-56.621905
 865	8.6500e-001	-163.261414	-56.543778
 866	8.6600e-001	-161.872864	-56.488952
 867	8.6700e-001	-160.812378	-56.456056
 868	8.6800e-001	-159.736633	-56.382726
 869	8.6900e-001	-158.493042	-56.336124
 870	8.7000e-001	-157.173157	-56.288837
 871	8.7100e-001	-156.028748	-56.224416
 872	8.7200e-001	-154.502869	-56.159310
 873	8.7300e-001	-153.549194	-56.103799
 874	8.7400e-001	-152.397156	-56.051714
 875	8.7500e-001	-151.176453	-55.985923
 876	8.7600e-001	-150.024414	-55.918076
 877	8.7700e-001	-148.803711	-55.873530
 878	8.7800e-001	-147.666931	-55.798144
 879	8.7900e-001	-146.278381	-55.763193
 880	8.8000e-001	-145.256042	-55.710423
 881	8.8100e-001	-144.134521	-55.641890
 882	8.8200e-001	-142.738342	-55.583637
 883	8.8300e-001	-141.548157	-55.515105
 884	8.8400e-001	-140.670776	-55.456852
 885	8.8500e-001	-139.465332	-55.391746
 886	8.8600e-001	-138.046265	-55.344459
 887	8.8700e-001	-136.924744	-55.270444
 888	8.8800e-001	-135.726929	-55.195058
 889	8.8900e-001	-134.223938	-55.149141
 890	8.9000e-001	-133.293152	-55.099798
 891	8.9100e-001	-131.843567	-55.032636
 892	8.9200e-001	-130.767822	-54.975069
 893	8.9300e-001	-129.783630	-54.904480
 894	8.9400e-001	-128.547668	-54.833892
 895	8.9500e-001	-127.227783	-54.769471
 896	8.9600e-001	-126.129150	-54.687917
 897	8.9700e-001	-125.068665	-54.632406
 898	8.9800e-001	-123.619080	-54.575524
 899	8.9900e-001	-122.497559	-54.507677
 900	9.0000e-001	-121.139526	-54.445998
 901	9.0100e-001	-120.071411	-54.385004
 902	9.0200e-001	-118.789673	-54.325380
 903	9.0300e-001	-117.637634	-54.247939
 904	9.0400e-001	-116.348267	-54.197910
 905	9.0500e-001	-115.348816	-54.109503
 906	9.0600e-001	-114.067078	-54.049194
 907	9.0700e-001	-112.945557	-53.962843
 908	9.0800e-001	-111.763000	-53.904591
 909	9.0900e-001	-110.473633	-53.841541
 910	9.1000e-001	-109.306335	-53.775064
 911	9.1100e-001	-108.146667	-53.703105
 912	9.1200e-001	-106.803894	-53.637314
 913	9.1300e-001	-105.651855	-53.555075
 914	9.1400e-001	-104.568481	-53.465983
 915	9.1500e-001	-103.202820	-53.402247
 916	9.1600e-001	-102.111816	-53.322064
 917	9.1700e-001	-100.769043	-53.245308
 918	9.1800e-001	-99.601746	-53.202133
 919	9.1900e-001	-98.358154	-53.086998
 920	9.2000e-001	-97.167969	-53.039710
 921	9.2100e-001	-95.893860	-52.969807
 922	9.2200e-001	-94.825745	-52.897163
 923	9.2300e-001	-93.467712	-52.814924
 924	9.2400e-001	-92.468262	-52.724461
 925	9.2500e-001	-91.079712	-52.653187
 926	9.2600e-001	-89.996338	-52.572319
 927	9.2700e-001	-88.790894	-52.497618
 928	9.2800e-001	-87.600708	-52.396876
 929	9.2900e-001	-86.448669	-52.339994
 930	9.3000e-001	-85.212708	-52.257069
 931	9.3100e-001	-84.068298	-52.164550
 932	9.3200e-001	-82.954407	-52.106983
 933	9.3300e-001	-81.764221	-52.011723
 934	9.3400e-001	-80.467224	-51.895218
 935	9.3500e-001	-78.971863	-51.823944
 936	9.3600e-001	-78.002930	-51.758152
 937	9.3700e-001	-76.843262	-51.659466
 938	9.3800e-001	-75.469971	-51.566261
 939	9.3900e-001	-74.455261	-51.502526
 940	9.4000e-001	-72.967529	-51.394245
 941	9.4100e-001	-72.143555	-51.309265
 942	9.4200e-001	-70.846558	-51.218802
 943	9.4300e-001	-69.755554	-51.123541
 944	9.4400e-001	-68.321228	-51.028967
 945	9.4500e-001	-67.230225	-50.935762
 946	9.4600e-001	-65.757751	-50.838446
 947	9.4700e-001	-64.956665	-50.741130
 948	9.4800e-001	-63.735962	-50.644499
 949	9.4900e-001	-62.484741	-50.535532
 950	9.5000e-001	-61.004639	-50.432734
 951	9.5100e-001	-60.157776	-50.356663
 952	9.5200e-001	-58.799744	-50.240157
 953	9.5300e-001	-57.434082	-50.134617
 954	9.5400e-001	-56.404114	-50.031818
 955	9.5500e-001	-55.076599	-49.909145
 956	9.5600e-001	-53.756714	-49.803605
 957	9.5700e-001	-52.864075	-49.707660
 958	9.5800e-001	-51.620483	-49.577448
 959	9.5900e-001	-50.514221	-49.465055
 960	9.6000e-001	-49.201965	-49.349235
 961	9.6100e-001	-48.049927	-49.229988
 962	9.6200e-001	-46.730042	-49.120336
 963	9.6300e-001	-45.578003	-48.989439
 964	9.6400e-001	-44.281006	-48.861283
 965	9.6500e-001	-43.190002	-48.711197
 966	9.6600e-001	-42.160034	-48.581671
 967	9.6700e-001	-40.954590	-48.440494
 968	9.6800e-001	-39.627075	-48.298631
 969	9.6900e-001	-38.482666	-48.149230
 970	9.7000e-001	-37.170410	-48.007368
 971	9.7100e-001	-36.033630	-47.851114
 972	9.7200e-001	-34.606934	-47.677041
 973	9.7300e-001	-33.630371	-47.517361
 974	9.7400e-001	-32.432556	-47.335064
 975	9.7500e-001	-31.265259	-47.151397
 976	9.7600e-001	-29.869080	-46.956765
 977	9.7700e-001	-28.724670	-46.762132
 978	9.7800e-001	-27.648926	-46.567500
 979	9.7900e-001	-26.351929	-46.370812
 980	9.8000e-001	-25.192261	-46.152878
 981	9.8100e-001	-23.826599	-45.943169
 982	9.8200e-001	-23.101807	-45.700564
 983	9.8300e-001	-21.545410	-45.457273
 984	9.8400e-001	-20.462036	-45.205074
 985	9.8500e-001	-19.508362	-44.938482
 986	9.8600e-001	-17.936707	-44.678744
 987	9.8700e-001	-16.998291	-44.371033
 988	9.8800e-001	-15.609741	-44.088679
 989	9.8900e-001	-14.472961	-43.774115
 990	9.9000e-001	-13.595581	-43.462977
 991	9.9100e-001	-12.290955	-43.153210
 992	9.9200e-001	-10.696411	-42.797526
 993	9.9300e-001	-9.696960	-42.445955
 994	9.9400e-001	-8.491516	-42.088215
 995	9.9500e-001	-6.866455	-41.720195
 996	9.9600e-001	-6.019592	-41.301462
 997	9.9700e-001	-4.699707	-40.892323
 998	9.9800e-001	-3.456116	-40.465365
 999	9.9900e-001	-2.471924	-40.015792
1000	1.0000e+000	-1.434326	-39.566218
1001	1.0010e+000	-0.106812	-39.072099
1002	1.0020e+000	1.190186	-38.586203
1003	1.0030e+000	2.426147	-38.079748
1004	1.0040e+000	3.334045	-37.563698
1005	1.0050e+000	4.562378	-37.005158
1006	1.0060e+000	5.775452	-36.407555
1007	1.0070e+000	6.988525	-35.820917
1008	1.0080e+000	8.277893	-35.191788
1009	1.0090e+000	9.407043	-34.553065
1010	1.0100e+000	10.498047	-33.883502
1011	1.0110e+000	11.779785	-33.200233
1012	1.0120e+000	13.191223	-32.491607
1013	1.0130e+000	14.366150	-31.775442
1014	1.0140e+000	15.472412	-31.008564
1015	1.0150e+000	16.845703	-30.215642
1016	1.0160e+000	17.974854	-29.432316
1017	1.0170e+000	19.104004	-28.586624
1018	1.0180e+000	20.149231	-27.771088
1019	1.0190e+000	21.347046	-26.915117
1020	1.0200e+000	22.697449	-26.053663
1021	1.0210e+000	23.742676	-25.191524
1022	1.0220e+000	24.749756	-24.314308
1023	1.0230e+000	25.962830	-23.459707
1024	1.0240e+000	27.404785	-22.598254
1025	1.0250e+000	28.472900	-21.766954
1026	1.0260e+000	29.777527	-20.931543
1027	1.0270e+000	31.059265	-20.153013
1028	1.0280e+000	31.982422	-19.395729
1029	1.0290e+000	33.363342	-18.707663
1030	1.0300e+000	34.858704	-18.032617
1031	1.0310e+000	35.789490	-17.362370
1032	1.0320e+000	36.987305	-16.752430
1033	1.0330e+000	38.398743	-16.154141
1034	1.0340e+000	39.657593	-15.528439
1035	1.0350e+000	40.634155	-14.906850
1036	1.0360e+000	41.931152	-14.260588
1037	1.0370e+000	43.197632	-13.610900
1038	1.0380e+000	44.105530	-12.931057
1039	1.0390e+000	45.455933	-12.265607
1040	1.0400e+000	46.775818	-11.578911
1041	1.0410e+000	47.721863	-10.883991
1042	1.0420e+000	49.186707	-10.166456
1043	1.0430e+000	50.102234	-9.405059
1044	1.0440e+000	51.239014	-8.658055
1045	1.0450e+000	52.787781	-7.882952
1046	1.0460e+000	53.733826	-7.060562
1047	1.0470e+000	54.977417	-6.281347
1048	1.0480e+000	56.152344	-5.471293
1049	1.0490e+000	57.289124	-4.649588
1050	1.0500e+000	58.670044	-3.816918
1051	1.0510e+000	59.875488	-3.014403
1052	1.0520e+000	60.928345	-2.168026
1053	1.0530e+000	62.477112	-1.375105
1054	1.0540e+000	63.446045	-0.525302
1055	1.0550e+000	64.659119	0.282697
1056	1.0560e+000	65.704346	1.062597
1057	1.0570e+000	67.260742	1.846609
1058	1.0580e+000	68.222046	2.631991
1059	1.0590e+000	69.198608	3.368030
1060	1.0600e+000	70.533752	4.098587
1061	1.0610e+000	71.823120	4.813381
1062	1.0620e+000	73.036194	5.525434
1063	1.0630e+000	74.340820	6.188829
1064	1.0640e+000	75.424194	6.865244
1065	1.0650e+000	76.629639	7.541660
1066	1.0660e+000	77.529907	8.173530
1067	1.0670e+000	78.956604	8.804715
1068	1.0680e+000	80.230713	9.451662
1069	1.0690e+000	81.558228	10.055433
1070	1.0700e+000	82.756042	10.700324
1071	1.0710e+000	83.999634	11.320543
1072	1.0720e+000	85.182190	11.959266
1073	1.0730e+000	86.303711	12.615122
1074	1.0740e+000	87.493896	13.245621
1075	1.0750e+000	88.645935	13.948080
1076	1.0760e+000	89.828491	14.603251
1077	1.0770e+000	90.866089	15.291317
1078	1.0780e+000	92.086792	15.975957
1079	1.0790e+000	93.399048	16.664023
1080	1.0800e+000	94.612122	17.415140
1081	1.0810e+000	95.863342	18.152549
1082	1.0820e+000	97.053528	18.896812
1083	1.0830e+000	98.228455	19.679454
1084	1.0840e+000	99.235535	20.470319
1085	1.0850e+000	100.662231	21.280373
1086	1.0860e+000	101.661682	22.086316
1087	1.0870e+000	103.057861	22.898426
1088	1.0880e+000	104.309082	23.750970
1089	1.0890e+000	105.369568	24.604885
1090	1.0900e+000	106.506348	25.462227
1091	1.0910e+000	107.757568	26.355891
1092	1.0920e+000	109.153748	27.245443
1093	1.0930e+000	110.298157	28.127457
1094	1.0940e+000	111.457825	29.019750
1095	1.0950e+000	112.876892	29.927120
1096	1.0960e+000	113.861084	30.842715
1097	1.0970e+000	115.074158	31.742547
1098	1.0980e+000	116.348267	32.645120
1099	1.0990e+000	117.492676	33.557288
1100	1.1000e+000	118.652344	34.468770
1101	1.1010e+000	119.850159	35.348042
1102	1.1020e+000	121.131897	36.225258
1103	1.1030e+000	122.337341	37.099733
1104	1.1040e+000	123.641968	37.941998
1105	1.1050e+000	124.603271	38.758220
1106	1.1060e+000	125.976563	39.577869
1107	1.1070e+000	127.029419	40.350230
1108	1.1080e+000	128.257751	41.082843
1109	1.1090e+000	129.417419	41.801749
1110	1.1100e+000	130.943298	42.463088
1111	1.1110e+000	132.057190	43.121000
1112	1.1120e+000	132.888794	43.728198
1113	1.1130e+000	134.117126	44.305242
1114	1.1140e+000	135.559082	44.827459
1115	1.1150e+000	136.741638	45.347621
1116	1.1160e+000	137.924194	45.804048
1117	1.1170e+000	139.022827	46.224837
1118	1.1180e+000	140.380859	46.632606
1119	1.1190e+000	141.586304	47.008849
1120	1.1200e+000	142.868042	47.352883
1121	1.1210e+000	144.073486	47.679097
1122	1.1220e+000	145.225525	48.001885
1123	1.1230e+000	146.354675	48.282183
1124	1.1240e+000	147.399902	48.539866
1125	1.1250e+000	148.864746	48.783841
1126	1.1260e+000	150.115967	49.027132
1127	1.1270e+000	151.306152	49.269737
1128	1.1280e+000	152.153015	49.480132
1129	1.1290e+000	153.411865	49.701492
1130	1.1300e+000	154.571533	49.909145
1131	1.1310e+000	156.028748	50.091442
1132	1.1320e+000	157.272339	50.273053
1133	1.1330e+000	158.271790	50.474539
1134	1.1340e+000	159.439087	50.649296
1135	1.1350e+000	160.850525	50.815145
1136	1.1360e+000	162.025452	50.967973
1137	1.1370e+000	163.169861	51.125597
1138	1.1380e+000	164.222717	51.307209
1139	1.1390e+000	165.573120	51.432623
1140	1.1400e+000	166.938782	51.574485
1141	1.1410e+000	167.953491	51.734166
1142	1.1420e+000	168.930054	51.864378
1143	1.1430e+000	170.372009	51.990478
1144	1.1440e+000	171.340942	52.121375
1145	1.1450e+000	172.752380	52.254328
1146	1.1460e+000	173.927307	52.367407
1147	1.1470e+000	175.125122	52.472261
1148	1.1480e+000	176.498413	52.600417
1149	1.1490e+000	177.520752	52.722405
1150	1.1500e+000	178.703308	52.836169
1151	1.1510e+000	179.931641	52.935541
1152	1.1520e+000	181.152344	53.023948
1153	1.1530e+000	182.357788	53.168552
1154	1.1540e+000	183.563232	53.274777
1155	1.1550e+000	184.593201	53.366611
1156	1.1560e+000	185.905457	53.479689
1157	1.1570e+000	187.316895	53.589341
1158	1.1580e+000	188.217163	53.667468
1159	1.1590e+000	189.651489	53.760673
1160	1.1600e+000	190.811157	53.883346
1161	1.1610e+000	191.841125	53.967641
1162	1.1620e+000	193.122864	54.073866
1163	1.1630e+000	194.343567	54.178036
1164	1.1640e+000	195.457458	54.280834
1165	1.1650e+000	196.754456	54.367185
1166	1.1660e+000	198.265076	54.452166
1167	1.1670e+000	199.058533	54.555650
1168	1.1680e+000	200.401306	54.670784
1169	1.1690e+000	201.469421	54.744114
1170	1.1700e+000	202.751160	54.820870
1171	1.1710e+000	203.926086	54.931893
1172	1.1720e+000	204.978943	55.021671
1173	1.1730e+000	206.260681	55.112134
1174	1.1740e+000	207.344055	55.181352
1175	1.1750e+000	208.724976	55.285521
1176	1.1760e+000	210.014343	55.365019
1177	1.1770e+000	211.311340	55.468503
1178	1.1780e+000	212.387085	55.566504
1179	1.1790e+000	213.668823	55.659708
1180	1.1800e+000	214.698792	55.739891
1181	1.1810e+000	215.766907	55.824872
1182	1.1820e+000	217.361450	55.942748
1183	1.1830e+000	218.452454	56.017448
1184	1.1840e+000	219.306946	56.103799
1185	1.1850e+000	220.642090	56.194262
1186	1.1860e+000	221.992493	56.279928
1187	1.1870e+000	223.106384	56.358740
1188	1.1880e+000	224.472046	56.440294
1189	1.1890e+000	225.410461	56.514309
1190	1.1900e+000	226.646423	56.610254
1191	1.1910e+000	227.897644	56.722648
1192	1.1920e+000	229.118347	56.787754
1193	1.1930e+000	230.216980	56.897406
1194	1.1940e+000	231.590271	56.963197
1195	1.1950e+000	232.780457	57.070793
1196	1.1960e+000	233.924866	57.142752
1197	1.1970e+000	235.115051	57.187983
1198	1.1980e+000	236.526489	57.305859
1199	1.1990e+000	237.281799	57.397008
1200	1.2000e+000	238.548279	57.470337
1201	1.2010e+000	239.875793	57.571766
1202	1.2020e+000	241.203308	57.636871
1203	1.2030e+000	242.385864	57.737614
1204	1.2040e+000	243.606567	57.815056
1205	1.2050e+000	244.812012	57.900722
1206	1.2060e+000	246.002197	57.998038
1207	1.2070e+000	247.100830	58.065200
1208	1.2080e+000	248.344421	58.157033
1209	1.2090e+000	249.649048	58.231048
1210	1.2100e+000	250.671387	58.333847
1211	1.2110e+000	252.044678	58.414030
1212	1.2120e+000	253.158569	58.485304
1213	1.2130e+000	254.280090	58.577823
1214	1.2140e+000	255.516052	58.673768
1215	1.2150e+000	256.729126	58.749839
1216	1.2160e+000	257.789612	58.842358
1217	1.2170e+000	259.223938	58.908150
1218	1.2180e+000	260.238647	58.989703
1219	1.2190e+000	261.497498	59.080166
1220	1.2200e+000	262.657166	59.146643
1221	1.2210e+000	263.992310	59.247386
1222	1.2220e+000	265.251160	59.329625
1223	1.2230e+000	266.548157	59.398157
1224	1.2240e+000	267.539978	59.482452
1225	1.2250e+000	268.592834	59.579083
1226	1.2260e+000	269.935608	59.663378
1227	1.2270e+000	270.957947	59.725057
1228	1.2280e+000	272.254944	59.804555
1229	1.2290e+000	273.307800	59.917633
1230	1.2300e+000	274.627686	59.993019
1231	1.2310e+000	275.924683	60.074573
1232	1.2320e+000	277.046204	60.166407
1233	1.2330e+000	278.282166	60.241792
1234	1.2340e+000	279.487610	60.304157
1235	1.2350e+000	280.731201	60.393934
1236	1.2360e+000	281.883240	60.500160
1237	1.2370e+000	282.936096	60.585825
1238	1.2380e+000	284.301758	60.642022
1239	1.2390e+000	285.469055	60.719464
1240	1.2400e+000	286.720276	60.798962
1241	1.2410e+000	287.590027	60.892851
1242	1.2420e+000	288.818359	60.975775
1243	1.2430e+000	290.153503	61.038140
1244	1.2440e+000	291.122437	61.134771
1245	1.2450e+000	292.846680	61.229346
1246	1.2460e+000	293.998718	61.286913
1247	1.2470e+000	295.150757	61.394509
1248	1.2480e+000	296.432495	61.472636
1249	1.2490e+000	297.637939	61.547337
1250	1.2500e+000	298.393250	61.611072
1251	1.2510e+000	300.071716	61.713871
1252	1.2520e+000	298.561096	61.685087
1253	1.2530e+000	297.355652	61.671380
1254	1.2540e+000	296.356201	61.643282
1255	1.2550e+000	295.104980	61.595995
1256	1.2560e+000	293.792725	61.572694
1257	1.2570e+000	292.900085	61.537057
1258	1.2580e+000	291.633606	61.508958
1259	1.2590e+000	290.275574	61.489769
1260	1.2600e+000	289.344788	61.465098
1261	1.2610e+000	287.872314	61.404104
1262	1.2620e+000	286.666870	61.387656
1263	1.2630e+000	285.537720	61.358872
1264	1.2640e+000	284.149170	61.321179
1265	1.2650e+000	283.126831	61.271836
1266	1.2660e+000	281.967163	61.264297
1267	1.2670e+000	280.670166	61.231402
1268	1.2680e+000	279.411316	61.193024
1269	1.2690e+000	278.335571	61.152589
1270	1.2700e+000	276.985168	61.135456
1271	1.2710e+000	275.962830	61.063497
1272	1.2720e+000	274.948120	61.051161
1273	1.2730e+000	273.475647	61.023063
1274	1.2740e+000	272.209167	60.973720
1275	1.2750e+000	271.194458	60.960013
1276	1.2760e+000	269.950867	60.895592
1277	1.2770e+000	268.783569	60.883257
1278	1.2780e+000	267.547607	60.822263
1279	1.2790e+000	266.334534	60.801018
1280	1.2800e+000	265.068054	60.741394
1281	1.2810e+000	263.984680	60.726317
1282	1.2820e+000	262.596130	60.716037
1283	1.2830e+000	261.589050	60.660526
1284	1.2840e+000	260.360718	60.605700
1285	1.2850e+000	259.246826	60.578287
1286	1.2860e+000	257.797241	60.566636
1287	1.2870e+000	256.797791	60.492621
1288	1.2880e+000	255.424500	60.465894
1289	1.2890e+000	254.432678	60.411068
1290	1.2900e+000	253.166199	60.396676
1291	1.2910e+000	251.991272	60.334996
1292	1.2920e+000	250.923157	60.299360
1293	1.2930e+000	249.687195	60.277429
1294	1.2940e+000	248.321533	60.231512
1295	1.2950e+000	247.077942	60.176001
1296	1.2960e+000	246.078491	60.124602
1297	1.2970e+000	244.659424	60.096503
1298	1.2980e+000	243.476868	60.053328
1299	1.2990e+000	242.431641	60.012894
1300	1.3000e+000	240.943909	59.950529
1301	1.3010e+000	240.020752	59.905983
1302	1.3020e+000	238.861084	59.876514
1303	1.3030e+000	237.579346	59.840877
1304	1.3040e+000	236.267090	59.803184
1305	1.3050e+000	235.252380	59.775771
1306	1.3060e+000	233.856201	59.701756
1307	1.3070e+000	232.902527	59.666804
1308	1.3080e+000	231.582642	59.629797
1309	1.3090e+000	230.255127	59.582509
1310	1.3100e+000	229.179382	59.543446
1311	1.3110e+000	228.134155	59.479711
1312	1.3120e+000	226.837158	59.455039
1313	1.3130e+000	225.578308	59.426255
1314	1.3140e+000	224.288940	59.373485
1315	1.3150e+000	223.350525	59.321401
1316	1.3160e+000	221.931458	59.289876
1317	1.3170e+000	220.748901	59.240532
1318	1.3180e+000	219.573975	59.183650
1319	1.3190e+000	218.467712	59.132936
1320	1.3200e+000	217.163086	59.092502
1321	1.3210e+000	215.911865	59.038361
1322	1.3220e+000	214.736938	58.980109
1323	1.3230e+000	213.523865	58.945842
1324	1.3240e+000	212.394714	58.912262
1325	1.3250e+000	211.402893	58.868401
1326	1.3260e+000	209.838867	58.801239
1327	1.3270e+000	208.770752	58.765602
1328	1.3280e+000	207.672119	58.731336
1329	1.3290e+000	206.527710	58.655265
1330	1.3300e+000	205.230713	58.621684
1331	1.3310e+000	203.987122	58.563431
1332	1.3320e+000	202.598572	58.515458
1333	1.3330e+000	201.431274	58.470227
1334	1.3340e+000	200.248718	58.398953
1335	1.3350e+000	198.997498	58.381820
1336	1.3360e+000	198.219299	58.322197
1337	1.3370e+000	196.838379	58.259832
1338	1.3380e+000	195.648193	58.240643
1339	1.3390e+000	194.374084	58.191299
1340	1.3400e+000	193.099976	58.137159
1341	1.3410e+000	191.932678	58.058346
1342	1.3420e+000	190.521240	58.005576
1343	1.3430e+000	189.376831	57.965828
1344	1.3440e+000	188.339233	57.896610
1345	1.3450e+000	187.126160	57.852749
1346	1.3460e+000	185.859680	57.808888
1347	1.3470e+000	184.562683	57.757489
1348	1.3480e+000	183.494568	57.703348
1349	1.3490e+000	182.464600	57.614256
1350	1.3500e+000	181.182861	57.588213
1351	1.3510e+000	179.870605	57.525163
1352	1.3520e+000	178.718567	57.475135
1353	1.3530e+000	177.589417	57.413455
1354	1.3540e+000	176.368713	57.367539
1355	1.3550e+000	175.117493	57.346294
1356	1.3560e+000	173.980713	57.231844
1357	1.3570e+000	172.691345	57.189354
1358	1.3580e+000	171.577454	57.167424
1359	1.3590e+000	170.326233	57.087926
1360	1.3600e+000	169.189453	57.037897
1361	1.3610e+000	167.839050	56.981015
1362	1.3620e+000	166.679382	56.926875
1363	1.3630e+000	165.596008	56.867251
1364	1.3640e+000	164.215088	56.815167
1365	1.3650e+000	163.146973	56.750746
1366	1.3660e+000	162.048340	56.696605
1367	1.3670e+000	160.720825	56.634241
1368	1.3680e+000	159.568787	56.589009
1369	1.3690e+000	158.035278	56.495120
1370	1.3700e+000	157.081604	56.475245
1371	1.3710e+000	156.112671	56.388894
1372	1.3720e+000	154.579163	56.319677
1373	1.3730e+000	153.564453	56.286096
1374	1.3740e+000	152.542114	56.215507
1375	1.3750e+000	151.214600	56.150401
1376	1.3760e+000	150.039673	56.093519
1377	1.3770e+000	148.742676	56.033896
1378	1.3780e+000	147.621155	55.978385
1379	1.3790e+000	146.156311	55.896146
1380	1.3800e+000	145.164490	55.845432
1381	1.3810e+000	143.981934	55.782382
1382	1.3820e+000	142.868042	55.702884
1383	1.3830e+000	141.479492	55.646687
1384	1.3840e+000	140.144348	55.575413
1385	1.3850e+000	139.038086	55.543889
1386	1.3860e+000	137.779236	55.474671
1387	1.3870e+000	136.627197	55.395173
1388	1.3880e+000	135.482788	55.345830
1389	1.3890e+000	134.475708	55.265646
1390	1.3900e+000	133.071899	55.195743
1391	1.3910e+000	131.889343	55.140917
1392	1.3920e+000	130.691528	55.082665
1393	1.3930e+000	129.592896	55.022356
1394	1.3940e+000	128.166199	54.925040
1395	1.3950e+000	127.159119	54.864731
1396	1.3960e+000	125.846863	54.811961
1397	1.3970e+000	124.534607	54.729722
1398	1.3980e+000	123.413086	54.658448
1399	1.3990e+000	122.406006	54.573468
1400	1.4000e+000	121.040344	54.530293
1401	1.4010e+000	119.911194	54.460389
1402	1.4020e+000	118.629456	54.372668
1403	1.4030e+000	117.561340	54.315101
1404	1.4040e+000	116.401672	54.234232
1405	1.4050e+000	114.822388	54.164329
1406	1.4060e+000	113.655090	54.097167
1407	1.4070e+000	112.739563	54.011502
1408	1.4080e+000	111.274719	53.972438
1409	1.4090e+000	110.343933	53.879234
1410	1.4100e+000	109.153748	53.775750
1411	1.4110e+000	107.887268	53.725036
1412	1.4120e+000	106.605530	53.657188
1413	1.4130e+000	105.537415	53.583173
1414	1.4140e+000	104.499817	53.496822
1415	1.4150e+000	103.096008	53.432402
1416	1.4160e+000	101.936340	53.361128
1417	1.4170e+000	100.677490	53.268609
1418	1.4180e+000	99.395752	53.189797
1419	1.4190e+000	98.167419	53.123320
1420	1.4200e+000	97.122192	53.034228
1421	1.4210e+000	95.932007	52.947192
1422	1.4220e+000	94.566345	52.873862
1423	1.4230e+000	93.559265	52.799161
1424	1.4240e+000	92.323303	52.712125
1425	1.4250e+000	91.133118	52.618236
1426	1.4260e+000	89.721680	52.538052
1427	1.4270e+000	88.661194	52.474317
1428	1.4280e+000	87.509155	52.381798
1429	1.4290e+000	86.364746	52.275573
1430	1.4300e+000	85.174561	52.178942
1431	1.4310e+000	83.824158	52.135081
1432	1.4320e+000	82.633972	52.028856
1433	1.4330e+000	81.459045	51.939764
1434	1.4340e+000	80.642700	51.856154
1435	1.4350e+000	79.048157	51.775286
1436	1.4360e+000	78.079224	51.689620
1437	1.4370e+000	76.606750	51.583395
1438	1.4380e+000	75.599670	51.494302
1439	1.4390e+000	74.401855	51.416175
1440	1.4400e+000	73.219299	51.303782
1441	1.4410e+000	71.807861	51.211263
1442	1.4420e+000	70.701599	51.117373
1443	1.4430e+000	69.366455	51.023484
1444	1.4440e+000	68.305969	50.921370
1445	1.4450e+000	67.001343	50.812404
1446	1.4460e+000	66.032410	50.739074
1447	1.4470e+000	64.720154	50.628051
1448	1.4480e+000	63.476563	50.514287
1449	1.4490e+000	62.263489	50.426566
1450	1.4500e+000	61.218262	50.300466
1451	1.4510e+000	59.837341	50.172995
1452	1.4520e+000	58.715820	50.081847
1453	1.4530e+000	57.479858	49.964657
1454	1.4540e+000	56.434631	49.855005
1455	1.4550e+000	55.351257	49.742611
1456	1.4560e+000	54.237366	49.631589
1457	1.4570e+000	52.635193	49.515769
1458	1.4580e+000	51.818848	49.404746
1459	1.4590e+000	50.201416	49.265625
1460	1.4600e+000	49.072266	49.160085
1461	1.4610e+000	47.866821	49.012055
1462	1.4620e+000	46.752930	48.885270
1463	1.4630e+000	45.532227	48.735869
1464	1.4640e+000	44.387817	48.608398
1465	1.4650e+000	43.151855	48.464480
1466	1.4660e+000	42.045593	48.326044
1467	1.4670e+000	40.740967	48.170475
1468	1.4680e+000	39.680481	48.014221
1469	1.4690e+000	38.444519	47.875100
1470	1.4700e+000	37.231445	47.706510
1471	1.4710e+000	35.888672	47.524899
1472	1.4720e+000	34.942627	47.341232
1473	1.4730e+000	33.363342	47.183607
1474	1.4740e+000	32.478333	46.987604
1475	1.4750e+000	31.166077	46.787489
1476	1.4760e+000	29.937744	46.596969
1477	1.4770e+000	28.747559	46.395483
1478	1.4780e+000	27.770996	46.165899
1479	1.4790e+000	26.458740	45.965784
1480	1.4800e+000	25.177002	45.709473
1481	1.4810e+000	23.826599	45.457273
1482	1.4820e+000	22.804260	45.209186
1483	1.4830e+000	21.415710	44.924776
1484	1.4840e+000	20.637512	44.662981
1485	1.4850e+000	18.981934	44.375145
1486	1.4860e+000	18.173218	44.072916
1487	1.4870e+000	16.845703	43.754926
1488	1.4880e+000	15.571594	43.441732
1489	1.4890e+000	14.556885	43.118259
1490	1.4900e+000	13.183594	42.771484
1491	1.4910e+000	11.901855	42.365772
1492	1.4920e+000	10.910034	41.988157
1493	1.4930e+000	9.460449	41.589984
1494	1.4940e+000	8.506775	41.173306
1495	1.4950e+000	7.072449	40.735383
1496	1.4960e+000	5.981445	40.291292
1497	1.4970e+000	4.600525	39.829383
1498	1.4980e+000	3.364563	39.354453
1499	1.4990e+000	2.380371	38.869928
1500	1.5000e+000	1.144409	38.373753
1501	1.5010e+000	-0.137329	37.855647
1502	1.5020e+000	-1.106262	37.335485
1503	1.5030e+000	-2.342224	36.785169
1504	1.5040e+000	-3.364563	36.248559
1505	1.5050e+000	-4.882813	35.697558
1506	1.5060e+000	-6.034851	35.104752
1507	1.5070e+000	-7.080078	34.492756
1508	1.5080e+000	-8.361816	33.882817
1509	1.5090e+000	-9.536743	33.234500
1510	1.5100e+000	-10.681152	32.584126
1511	1.5110e+000	-12.046814	31.923473
1512	1.5120e+000	-13.076782	31.193601
1513	1.5130e+000	-14.373779	30.446597
1514	1.5140e+000	-15.792847	29.692054
1515	1.5150e+000	-16.899109	28.891594
1516	1.5160e+000	-17.883301	28.060980
1517	1.5170e+000	-19.126892	27.196100
1518	1.5180e+000	-20.477295	26.309289
1519	1.5190e+000	-21.438599	25.358743
1520	1.5200e+000	-22.712708	24.407512
1521	1.5210e+000	-23.986816	23.417902
1522	1.5220e+000	-24.948120	22.391285
1523	1.5230e+000	-26.306152	21.358500
1524	1.5240e+000	-27.511597	20.284596
1525	1.5250e+000	-28.610229	19.173684
1526	1.5260e+000	-29.853821	18.029876
1527	1.5270e+000	-31.036377	16.892922
1528	1.5280e+000	-32.371521	15.697715
1529	1.5290e+000	-33.424377	14.521012
1530	1.5300e+000	-34.591675	13.328546
1531	1.5310e+000	-35.896301	12.099758
1532	1.5320e+000	-37.124634	10.899068
1533	1.5330e+000	-38.085938	9.703176
1534	1.5340e+000	-39.367676	8.491521
1535	1.5350e+000	-40.596008	7.336748
1536	1.5360e+000	-41.748047	6.168954
1537	1.5370e+000	-43.075562	5.077231
1538	1.5380e+000	-44.258118	3.998529
1539	1.5390e+000	-45.372009	2.958206
1540	1.5400e+000	-46.852112	1.982303
1541	1.5410e+000	-47.912598	1.028330
1542	1.5420e+000	-48.980713	0.142205
1543	1.5430e+000	-50.262451	-0.705542
1544	1.5440e+000	-51.811218	-1.508743
1545	1.5450e+000	-52.833557	-2.249580
1546	1.5460e+000	-53.855896	-3.000696
1547	1.5470e+000	-55.015564	-3.654496
1548	1.5480e+000	-56.266785	-4.291163
1549	1.5490e+000	-57.617188	-4.875746
1550	1.5500e+000	-58.670044	-5.469923
1551	1.5510e+000	-59.860229	-6.013385
1552	1.5520e+000	-61.264038	-6.550680
1553	1.5530e+000	-62.225342	-7.066730
1554	1.5540e+000	-63.438416	-7.584836
1555	1.5550e+000	-64.643860	-8.083067
1556	1.5560e+000	-66.139221	-8.568277
1557	1.5570e+000	-66.955566	-9.037040
1558	1.5580e+000	-68.367004	-9.522250
1559	1.5590e+000	-69.686890	-10.048580
1560	1.5600e+000	-70.655823	-10.510489
1561	1.5610e+000	-72.181702	-11.026539
1562	1.5620e+000	-73.211670	-11.535735
1563	1.5630e+000	-74.279785	-12.046988
1564	1.5640e+000	-75.370789	-12.581541
1565	1.5650e+000	-76.675415	-13.122263
1566	1.5660e+000	-77.934265	-13.650649
1567	1.5670e+000	-78.941345	-14.212615
1568	1.5680e+000	-80.368042	-14.785547
1569	1.5690e+000	-81.687927	-15.368759
1570	1.5700e+000	-82.595825	-15.950600
1571	1.5710e+000	-83.801270	-16.549574
1572	1.5720e+000	-85.197449	-17.171164
1573	1.5730e+000	-86.448669	-17.772194
1574	1.5740e+000	-87.394714	-18.435589
1575	1.5750e+000	-88.768005	-19.054437
1576	1.5760e+000	-89.874268	-19.709608
1577	1.5770e+000	-91.270447	-20.367520
1578	1.5780e+000	-92.361450	-21.016523
1579	1.5790e+000	-93.521118	-21.667582
1580	1.5800e+000	-94.833374	-22.339201
1581	1.5810e+000	-96.038818	-23.021099
1582	1.5820e+000	-97.084045	-23.705054
1583	1.5830e+000	-98.167419	-24.365022
1584	1.5840e+000	-99.594116	-25.075019
1585	1.5850e+000	-100.723267	-25.747322
1586	1.5860e+000	-102.210999	-26.422368
1587	1.5870e+000	-103.164673	-27.118658
1588	1.5880e+000	-104.148865	-27.758752
1589	1.5890e+000	-105.735779	-28.451615
1590	1.5900e+000	-106.987000	-29.120493
1591	1.5910e+000	-108.039856	-29.768810
1592	1.5920e+000	-109.130859	-30.442485
1593	1.5930e+000	-110.481262	-31.073669
1594	1.5940e+000	-111.450195	-31.709651
1595	1.5950e+000	-112.770081	-32.329185
1596	1.5960e+000	-114.166260	-32.943236
1597	1.5970e+000	-115.119934	-33.560029
1598	1.5980e+000	-116.195679	-34.128849
1599	1.5990e+000	-117.401123	-34.729879
1600	1.6000e+000	-118.637085	-35.291846
1601	1.6010e+000	-120.002747	-35.837364
1602	1.6020e+000	-121.109009	-36.382198
1603	1.6030e+000	-122.505188	-36.888653
1604	1.6040e+000	-123.550415	-37.458844
1605	1.6050e+000	-124.618530	-37.959816
1606	1.6060e+000	-126.075745	-38.455992
1607	1.6070e+000	-127.059937	-38.971356
1608	1.6080e+000	-128.364563	-39.440119
1609	1.6090e+000	-129.417419	-39.933553
1610	1.6100e+000	-130.966187	-40.398203
1611	1.6110e+000	-131.896973	-40.874504
1612	1.6120e+000	-133.117676	-41.359714
1613	1.6130e+000	-134.338379	-41.785987
1614	1.6140e+000	-135.536194	-42.269826
1615	1.6150e+000	-136.634827	-42.707063
1616	1.6160e+000	-137.817383	-43.147042
1617	1.6170e+000	-139.083862	-43.568517
1618	1.6180e+000	-140.388489	-43.982454
1619	1.6190e+000	-141.326904	-44.426544
1620	1.6200e+000	-142.761230	-44.806900
1621	1.6210e+000	-144.119263	-45.215353
1622	1.6220e+000	-145.111084	-45.610101
1623	1.6230e+000	-146.293640	-45.982232
1624	1.6240e+000	-147.277832	-46.363958
1625	1.6250e+000	-148.803711	-46.712789
1626	1.6260e+000	-149.818420	-47.059563
1627	1.6270e+000	-150.978088	-47.409079
1628	1.6280e+000	-152.420044	-47.696916
1629	1.6290e+000	-153.617859	-48.045746
1630	1.6300e+000	-154.609680	-48.323988
1631	1.6310e+000	-156.173706	-48.605657
1632	1.6320e+000	-157.104492	-48.869507
1633	1.6330e+000	-158.164978	-49.129245
1634	1.6340e+000	-159.545898	-49.402690
1635	1.6350e+000	-160.636902	-49.636386
1636	1.6360e+000	-162.033081	-49.887215
1637	1.6370e+000	-163.093567	-50.104463
1638	1.6380e+000	-164.245605	-50.317599
1639	1.6390e+000	-165.611267	-50.521826
1640	1.6400e+000	-166.717529	-50.713032
1641	1.6410e+000	-168.060303	-50.904237
1642	1.6420e+000	-169.204712	-51.094758
1643	1.6430e+000	-170.333862	-51.270201
1644	1.6440e+000	-171.585083	-51.438106
1645	1.6450e+000	-172.584534	-51.616290
1646	1.6460e+000	-174.003601	-51.778712
1647	1.6470e+000	-175.270081	-51.925372
1648	1.6480e+000	-176.521301	-52.057640
1649	1.6490e+000	-177.665710	-52.222803
1650	1.6500e+000	-178.756714	-52.344105
1651	1.6510e+000	-179.862976	-52.497618
1652	1.6520e+000	-180.984497	-52.628515
1653	1.6530e+000	-182.426453	-52.750503
1654	1.6540e+000	-183.418274	-52.883456
1655	1.6550e+000	-184.616089	-53.008186
1656	1.6560e+000	-185.806274	-53.125376
1657	1.6570e+000	-186.958313	-53.261756
1658	1.6580e+000	-188.377380	-53.365925
1659	1.6590e+000	-189.704895	-53.483116
1660	1.6600e+000	-190.841675	-53.577691
1661	1.6610e+000	-191.993713	-53.710644
1662	1.6620e+000	-193.191528	-53.815499
1663	1.6630e+000	-194.343567	-53.903905
1664	1.6640e+000	-195.434570	-54.024523
1665	1.6650e+000	-196.899414	-54.125265
1666	1.6660e+000	-197.830200	-54.232176
1667	1.6670e+000	-199.203491	-54.338402
1668	1.6680e+000	-200.469971	-54.444627
1669	1.6690e+000	-201.469421	-54.544684
1670	1.6700e+000	-202.705383	-54.647483
1671	1.6710e+000	-204.055786	-54.735205
1672	1.6720e+000	-205.230713	-54.847598
1673	1.6730e+000	-206.481934	-54.947656
1674	1.6740e+000	-207.679749	-55.040175
1675	1.6750e+000	-208.831787	-55.129952
1676	1.6760e+000	-209.861755	-55.241660
1677	1.6770e+000	-211.090088	-55.356109
1678	1.6780e+000	-212.471008	-55.415733
1679	1.6790e+000	-213.539124	-55.515105
1680	1.6800e+000	-214.736938	-55.624757
1681	1.6810e+000	-215.942383	-55.700828
1682	1.6820e+000	-217.239380	-55.794717
1683	1.6830e+000	-218.444824	-55.886551
1684	1.6840e+000	-219.673157	-55.982497
1685	1.6850e+000	-220.886230	-56.077757
1686	1.6860e+000	-221.984863	-56.171646
1687	1.6870e+000	-223.114014	-56.263480
1688	1.6880e+000	-224.403381	-56.354628
1689	1.6890e+000	-225.578308	-56.438238
1690	1.6900e+000	-226.776123	-56.515680
1691	1.6910e+000	-228.096008	-56.608198
1692	1.6920e+000	-229.217529	-56.704829
1693	1.6930e+000	-230.354309	-56.771306
1694	1.6940e+000	-231.567383	-56.863825
1695	1.6950e+000	-232.765198	-56.968679
1696	1.6960e+000	-233.917236	-57.073534
1697	1.6970e+000	-235.046387	-57.147549
1698	1.6980e+000	-236.495972	-57.234586
1699	1.6990e+000	-237.434387	-57.317510
1700	1.7000e+000	-238.746643	-57.412770
1701	1.7010e+000	-239.974976	-57.485415
1702	1.7020e+000	-241.050720	-57.582045
1703	1.7030e+000	-242.698669	-57.676620
1704	1.7040e+000	-243.492126	-57.758174
1705	1.7050e+000	-244.842529	-57.841098
1706	1.7060e+000	-245.887756	-57.930191
1707	1.7070e+000	-247.131348	-58.017912
1708	1.7080e+000	-248.359680	-58.106319
1709	1.7090e+000	-249.526978	-58.178964
1710	1.7100e+000	-250.892639	-58.261888
1711	1.7110e+000	-252.044678	-58.357148
1712	1.7120e+000	-253.021240	-58.433905
1713	1.7130e+000	-254.631042	-58.503808
1714	1.7140e+000	-255.691528	-58.603865
1715	1.7150e+000	-256.851196	-58.682678
1716	1.7160e+000	-258.064270	-58.767658
1717	1.7170e+000	-259.346008	-58.866345
1718	1.7180e+000	-260.177612	-58.957493
1719	1.7190e+000	-261.764526	-59.028081
1720	1.7200e+000	-262.954712	-59.104838
1721	1.7210e+000	-264.144897	-59.191874
1722	1.7220e+000	-265.495300	-59.276169
1723	1.7230e+000	-266.456604	-59.365261
1724	1.7240e+000	-267.501831	-59.452983
1725	1.7250e+000	-268.959045	-59.529739
1726	1.7260e+000	-270.195007	-59.627741
1727	1.7270e+000	-271.392822	-59.709980
1728	1.7280e+000	-272.468567	-59.785366
1729	1.7290e+000	-273.590088	-59.894332
1730	1.7300e+000	-274.703979	-59.949158
1731	1.7310e+000	-276.229858	-60.046475
1732	1.7320e+000	-277.137756	-60.099930
1733	1.7330e+000	-278.320313	-60.202729
1734	1.7340e+000	-279.602051	-60.289765
1735	1.7350e+000	-280.838013	-60.354871
1736	1.7360e+000	-281.944275	-60.459726
1737	1.7370e+000	-283.424377	-60.543335
1738	1.7380e+000	-284.500122	-60.639281
1739	1.7390e+000	-285.446167	-60.721520
1740	1.7400e+000	-286.705017	-60.775661
1741	1.7410e+000	-288.078308	-60.885313
1742	1.7420e+000	-289.474487	-60.942195
1743	1.7430e+000	-290.466309	-61.027175
1744	1.7440e+000	-291.511536	-61.100505
1745	1.7450e+000	-292.816162	-61.189597
1746	1.7460e+000	-294.158936	-61.275948
1747	1.7470e+000	-295.303345	-61.352019
1748	1.7480e+000	-296.485901	-61.465098
1749	1.7490e+000	-297.592163	-61.547337
1750	1.7500e+000	-298.835754	-61.616554
1751	1.7510e+000	-299.987793	-61.713871
1752	1.7520e+000	-298.896790	-61.672751
1753	1.7530e+000	-297.660828	-61.659045
1754	1.7540e+000	-296.401978	-61.621352
1755	1.7550e+000	-295.265198	-61.595995
1756	1.7560e+000	-294.036865	-61.570638
1757	1.7570e+000	-292.762756	-61.553505
1758	1.7580e+000	-291.809082	-61.526092
1759	1.7590e+000	-290.489197	-61.506902
1760	1.7600e+000	-289.161682	-61.462356
1761	1.7610e+000	-288.063049	-61.447279
1762	1.7620e+000	-286.712646	-61.393824
1763	1.7630e+000	-285.697937	-61.376005
1764	1.7640e+000	-284.286499	-61.338312
1765	1.7650e+000	-283.370972	-61.306102
1766	1.7660e+000	-282.226563	-61.269095
1767	1.7670e+000	-280.921936	-61.246479
1768	1.7680e+000	-279.685974	-61.219066
1769	1.7690e+000	-278.396606	-61.199877
1770	1.7700e+000	-277.297974	-61.155331
1771	1.7710e+000	-276.016235	-61.138883
1772	1.7720e+000	-274.711609	-61.080630
1773	1.7730e+000	-273.643494	-61.045679
1774	1.7740e+000	-272.377014	-61.031972
1775	1.7750e+000	-271.224976	-60.975090
1776	1.7760e+000	-270.034790	-60.957272
1777	1.7770e+000	-268.806458	-60.931229
1778	1.7780e+000	-267.395020	-60.893536
1779	1.7790e+000	-266.464233	-60.880515
1780	1.7800e+000	-265.151978	-60.849676
1781	1.7810e+000	-263.961792	-60.799647
1782	1.7820e+000	-262.741089	-60.758527
1783	1.7830e+000	-261.611938	-60.746192
1784	1.7840e+000	-260.459900	-60.694107
1785	1.7850e+000	-259.078979	-60.641337
1786	1.7860e+000	-258.041382	-60.614609
1787	1.7870e+000	-256.958008	-60.583084
1788	1.7880e+000	-255.546570	-60.544021
1789	1.7890e+000	-254.478455	-60.513866
1790	1.7900e+000	-252.990723	-60.480971
1791	1.7910e+000	-251.869202	-60.448075
1792	1.7920e+000	-250.816345	-60.410382
1793	1.7930e+000	-249.465942	-60.356927
1794	1.7940e+000	-248.260498	-60.303472
1795	1.7950e+000	-247.207642	-60.273317
1796	1.7960e+000	-245.964050	-60.245219
1797	1.7970e+000	-244.911194	-60.200673
1798	1.7980e+000	-243.423462	-60.190393
1799	1.7990e+000	-242.355347	-60.160239
1800	1.8000e+000	-241.172791	-60.084853
1801	1.8010e+000	-240.005493	-60.062237
1802	1.8020e+000	-238.845825	-60.021118
1803	1.8030e+000	-237.518311	-59.980683
1804	1.8040e+000	-236.335754	-59.925172
1805	1.8050e+000	-235.115051	-59.881311
1806	1.8060e+000	-233.863831	-59.855269
1807	1.8070e+000	-232.879639	-59.818261
1808	1.8080e+000	-231.658936	-59.779198
1809	1.8090e+000	-230.255127	-59.750414
1810	1.8100e+000	-229.293823	-59.699700
1811	1.8110e+000	-228.096008	-59.655839
1812	1.8120e+000	-226.478577	-59.600328
1813	1.8130e+000	-225.570679	-59.570859
1814	1.8140e+000	-224.487305	-59.531795
1815	1.8150e+000	-223.320007	-59.468060
1816	1.8160e+000	-222.015381	-59.433109
1817	1.8170e+000	-221.054077	-59.394045
1818	1.8180e+000	-219.627380	-59.346072
1819	1.8190e+000	-218.338013	-59.296044
1820	1.8200e+000	-217.071533	-59.256980
1821	1.8210e+000	-215.919495	-59.235050
1822	1.8220e+000	-214.752197	-59.171314
1823	1.8230e+000	-213.691711	-59.126768
1824	1.8240e+000	-212.455750	-59.092502
1825	1.8250e+000	-211.296082	-59.039047
1826	1.8260e+000	-209.945679	-58.995871
1827	1.8270e+000	-208.679199	-58.937619
1828	1.8280e+000	-207.557678	-58.901982
1829	1.8290e+000	-206.428528	-58.867030
1830	1.8300e+000	-205.314636	-58.814260
1831	1.8310e+000	-203.926086	-58.777252
1832	1.8320e+000	-202.766418	-58.721056
1833	1.8330e+000	-201.622009	-58.672398
1834	1.8340e+000	-200.241089	-58.632649
1835	1.8350e+000	-199.165344	-58.563431
1836	1.8360e+000	-197.875977	-58.541501
1837	1.8370e+000	-196.884155	-58.473653
1838	1.8380e+000	-195.594788	-58.427737
1839	1.8390e+000	-194.427490	-58.392785
1840	1.8400e+000	-193.344116	-58.349610
1841	1.8410e+000	-191.932678	-58.300266
1842	1.8420e+000	-190.811157	-58.279021
1843	1.8430e+000	-189.529419	-58.200209
1844	1.8440e+000	-188.491821	-58.136473
1845	1.8450e+000	-187.294006	-58.095354
1846	1.8460e+000	-185.951233	-58.037787
1847	1.8470e+000	-184.776306	-57.998038
1848	1.8480e+000	-183.700562	-57.952121
1849	1.8490e+000	-182.434082	-57.893183
1850	1.8500e+000	-181.167603	-57.854120
1851	1.8510e+000	-179.870605	-57.806147
1852	1.8520e+000	-178.688049	-57.747894
1853	1.8530e+000	-177.856445	-57.670452
1854	1.8540e+000	-176.467896	-57.637557
1855	1.8550e+000	-175.109863	-57.594381
1856	1.8560e+000	-174.163818	-57.513513
1857	1.8570e+000	-172.843933	-57.479932
1858	1.8580e+000	-171.524048	-57.419623
1859	1.8590e+000	-170.173645	-57.379189
1860	1.8600e+000	-169.174194	-57.328475
1861	1.8610e+000	-167.938232	-57.269537
1862	1.8620e+000	-166.671753	-57.235956
1863	1.8630e+000	-165.756226	-57.163312
1864	1.8640e+000	-164.375305	-57.105059
1865	1.8650e+000	-163.017273	-57.074220
1866	1.8660e+000	-161.796570	-57.000890
1867	1.8670e+000	-160.705566	-56.935099
1868	1.8680e+000	-159.545898	-56.876161
1869	1.8690e+000	-158.485413	-56.835041
1870	1.8700e+000	-157.104492	-56.768565
1871	1.8710e+000	-155.914307	-56.732242
1872	1.8720e+000	-154.899597	-56.679472
1873	1.8730e+000	-153.480530	-56.597233
1874	1.8740e+000	-152.481079	-56.553372
1875	1.8750e+000	-151.245117	-56.487581
1876	1.8760e+000	-150.016785	-56.427958
1877	1.8770e+000	-148.666382	-56.366279
1878	1.8780e+000	-147.644043	-56.318991
1879	1.8790e+000	-146.423340	-56.265536
1880	1.8800e+000	-145.011902	-56.205913
1881	1.8810e+000	-144.256592	-56.140121
1882	1.8820e+000	-142.440796	-56.097631
1883	1.8830e+000	-141.593933	-56.030469
1884	1.8840e+000	-140.220642	-55.962622
1885	1.8850e+000	-139.068604	-55.918076
1886	1.8860e+000	-138.046265	-55.848173
1887	1.8870e+000	-137.062073	-55.796773
1888	1.8880e+000	-135.421753	-55.704940
1889	1.8890e+000	-134.445190	-55.646687
1890	1.8900e+000	-133.224487	-55.609680
1891	1.8910e+000	-131.996155	-55.538406
1892	1.8920e+000	-130.653381	-55.476041
1893	1.8930e+000	-129.516602	-55.412306
1894	1.8940e+000	-128.417969	-55.358165
1895	1.8950e+000	-127.182007	-55.278668
1896	1.8960e+000	-125.793457	-55.196429
1897	1.8970e+000	-124.938965	-55.164218
1898	1.8980e+000	-123.870850	-55.086777
1899	1.8990e+000	-122.406006	-55.027153
1900	1.9000e+000	-121.185303	-54.966845
1901	1.9010e+000	-120.094299	-54.909963
1902	1.9020e+000	-118.782043	-54.835948
1903	1.9030e+000	-117.568970	-54.753023
1904	1.9040e+000	-116.554260	-54.690659
1905	1.9050e+000	-115.295410	-54.629665
1906	1.9060e+000	-114.028931	-54.550167
1907	1.9070e+000	-112.777710	-54.480264
1908	1.9080e+000	-111.511230	-54.428865
1909	1.9090e+000	-110.351563	-54.365129
1910	1.9100e+000	-109.275818	-54.296597
1911	1.9110e+000	-107.986450	-54.210931
1912	1.9120e+000	-106.903076	-54.153364
1913	1.9130e+000	-105.567932	-54.082090
1914	1.9140e+000	-104.331970	-53.993683
1915	1.9150e+000	-103.179932	-53.920353
1916	1.9160e+000	-101.921082	-53.845653
1917	1.9170e+000	-100.791931	-53.775750
1918	1.9180e+000	-99.601746	-53.703791
1919	1.9190e+000	-98.594666	-53.621552
1920	1.9200e+000	-97.167969	-53.563299
1921	1.9210e+000	-96.031189	-53.487913
1922	1.9220e+000	-94.779968	-53.412527
1923	1.9230e+000	-93.666077	-53.325491
1924	1.9240e+000	-92.498779	-53.248049
1925	1.9250e+000	-91.346741	-53.184999
1926	1.9260e+000	-89.889526	-53.076033
1927	1.9270e+000	-88.981628	-53.010241
1928	1.9280e+000	-87.944031	-52.935541
1929	1.9290e+000	-86.662292	-52.855358
1930	1.9300e+000	-85.083008	-52.779287
1931	1.9310e+000	-84.075928	-52.701160
1932	1.9320e+000	-82.740784	-52.620291
1933	1.9330e+000	-81.642151	-52.537367
1934	1.9340e+000	-80.383301	-52.440736
1935	1.9350e+000	-79.338074	-52.350959
1936	1.9360e+000	-77.865601	-52.285853
1937	1.9370e+000	-76.843262	-52.167977
1938	1.9380e+000	-75.561523	-52.096018
1939	1.9390e+000	-74.523926	-52.013779
1940	1.9400e+000	-73.020935	-51.956211
1941	1.9410e+000	-71.952820	-51.823258
1942	1.9420e+000	-70.808411	-51.759523
1943	1.9430e+000	-69.587708	-51.653298
1944	1.9440e+000	-68.412781	-51.571059
1945	1.9450e+000	-67.390442	-51.455239
1946	1.9460e+000	-65.757751	-51.365461
1947	1.9470e+000	-64.804077	-51.272942
1948	1.9480e+000	-63.812256	-51.182479
1949	1.9490e+000	-62.438965	-51.078310
1950	1.9500e+000	-61.340332	-50.986476
1951	1.9510e+000	-60.127258	-50.876139
1952	1.9520e+000	-58.876038	-50.757578
1953	1.9530e+000	-57.609558	-50.658206
1954	1.9540e+000	-56.335449	-50.575281
1955	1.9550e+000	-54.916382	-50.459461
1956	1.9560e+000	-54.031372	-50.340215
1957	1.9570e+000	-53.031921	-50.220283
1958	1.9580e+000	-51.391602	-50.113372
1959	1.9590e+000	-50.491333	-50.005776
1960	1.9600e+000	-49.552917	-49.885159
1961	1.9610e+000	-47.904968	-49.772766
1962	1.9620e+000	-46.829224	-49.647351
1963	1.9630e+000	-45.532227	-49.530160
1964	1.9640e+000	-44.448853	-49.404746
1965	1.9650e+000	-43.113708	-49.256716
1966	1.9660e+000	-41.885376	-49.119651
1967	1.9670e+000	-40.618896	-48.966823
1968	1.9680e+000	-39.848328	-48.839353
1969	1.9690e+000	-38.513184	-48.705029
1970	1.9700e+000	-37.094116	-48.556999
1971	1.9710e+000	-35.873413	-48.384982
1972	1.9720e+000	-34.698486	-48.224616
1973	1.9730e+000	-33.592224	-48.058082
1974	1.9740e+000	-32.234192	-47.894289
1975	1.9750e+000	-31.394958	-47.705825
1976	1.9760e+000	-29.815674	-47.511193
1977	1.9770e+000	-28.945923	-47.326840
1978	1.9780e+000	-27.755737	-47.128781
1979	1.9790e+000	-26.466370	-46.917701
1980	1.9800e+000	-25.177002	-46.725125
1981	1.9810e+000	-24.230957	-46.494170
1982	1.9820e+000	-22.926331	-46.270754
1983	1.9830e+000	-21.667480	-46.039800
1984	1.9840e+000	-20.347595	-45.799250
1985	1.9850e+000	-19.294739	-45.531974
1986	1.9860e+000	-17.768860	-45.268123
1987	1.9870e+000	-16.891479	-44.970692
1988	1.9880e+000	-15.846252	-44.672576
1989	1.9890e+000	-14.488220	-44.398446
1990	1.9900e+000	-13.359070	-44.082511
1991	1.9910e+000	-12.100220	-43.761094
1992	1.9920e+000	-10.787964	-43.429396
1993	1.9930e+000	-9.780884	-43.081936
1994	1.9940e+000	-8.117676	-42.706378
1995	1.9950e+000	-7.270813	-42.345897
1996	1.9960e+000	-6.164551	-41.938129
1997	1.9970e+000	-4.730225	-41.532416
1998	1.9980e+000	-3.654480	-41.108885
1999	1.9990e+000	-2.502441	-40.681242
2000	2.0000e+000	-1.281738	-40.237152
2001	2.0010e+000	-0.228882	-39.766333

Center data before PMax,±Pr and ±Vc Calc.

PMax (µC/cm2):	6.17e+001
Pr (µC/cm2):	3.79e+001
-Pr (µC/cm2):	-3.98e+001
Vc:	6.42e-001
-Vc:	-4.92e-001
C (Max-Eff) (nF):	1.28e+000
K (Eff):	2.33e+003
Vert. (±Pr) Shift (µC/cm2):	-9.28e-001
Horiz. Shift (±Vc):	7.52e-002
Offset (µC/cm2):	2.13e+001

A (Loop Area - µC/cm2·Volts):	1.39e+002



Hysteresis Version: 5.16.2 - Radiant Technologies, Inc., 1999 - 3/20/18

