»»»»»»»»»»»»»»»»»»»»»»»»»»»»»»»»»»»» Hysteresis ««««««««««««««««««««««««««««««««««««
»»»  Executed Version:	5.16.2
»»»  Vision Version:	5.16.10 (R)
»»»  Vision Compiled:	4/26/18
»»»  Driver Version:	5.16.6
»»»  Windows Version:	Windows 8
»»»  Processor Information:	x86 (AMD or Intel) - 8 Processors
»»»  Tester Name:	PPM21016-863
»»»  Tester S/N:	PPM21016-863
»»»  Internal Amp Type:	 RTI ML200V    
»»»  Internal Amp S/N:	 iAB2-0000     
»»»  Execution Count:	1
»»»»»»»»»»»»»»»»»»»»»»»»»»»»»»»»»»»»»»»»»»««««««««««««««««««««««««««««««««««««««««««

Stored:	6/4/2018 - 14:34:7
Configured:	06/04/18 02:25:46 PM
Executed:	06/04/18 02:33:48 PM

»»»»»»»»»»»»»»»»»»»»»»»»»»»»»»»»»»» Sample Info ««««««««««««««««««««««««««««««««««««
Sample Name:	Internal Reference Cap.
Lot Name:	N/A
Wafer Name:	N/A
Die Row/Column:	0/0
Capacitor Number:	0
Sample Area (cm2):	6.20e-005
Sample Thickness (µm):	1.00e-001

Mux Loop Adjustment:	Disabled

Amplifier:	Internal

»»»»»»»»»»»»»»»»»»»»»»»»»»»»»»»»»»» Tester Info «««««««««««««««««««««««««««««««««««
Tester Name:	PPM21016-863
Tester Serial Number:	PPM21016-863
Return Signal Amp. Level:	1.79 [Index: 2]

»»»»»»»»»»»»»»»»»»»»»»»»»»»»»»»» Hysteresis Info ««««««««««««««««««««««««««««««««««
Task Name:	Hyst-1
Volts:	3.00
Field:	300.00 (kV/cm)
Hysteresis Period (ms):	2.00e+000
Preset:	Enabled
Preset Delay (ms):	1.00e+003
Profile:	Double Bipolar

»»»»»»»»»»»»»»»»»»»»»»»»»»»»»»»»»»»»»» Data «««««««««««««««««««««««««««««««««««««««
Points:	2001

Valid Data

Point	Time (ms)	Field (kV/cm)	Measured Polarization
   1	1.0000e-003	-0.167847	-1.136612
   2	2.0000e-003	1.251221	-1.103716
   3	3.0000e-003	2.540588	-1.063967
   4	4.0000e-003	3.479004	-1.020106
   5	5.0000e-003	4.653931	-0.967336
   6	6.0000e-003	5.996704	-0.898804
   7	7.0000e-003	6.973267	-0.861796
   8	8.0000e-003	8.468628	-0.803544
   9	9.0000e-003	9.307861	-0.738438
  10	1.0000e-002	10.818481	-0.678129
  11	1.1000e-002	11.734009	-0.600687
  12	1.2000e-002	13.381958	-0.524616
  13	1.3000e-002	14.259338	-0.436209
  14	1.4000e-002	15.251160	-0.328613
  15	1.5000e-002	16.876221	-0.236780
  16	1.6000e-002	17.845154	-0.116163
  17	1.7000e-002	18.913269	-0.007196
  18	1.8000e-002	20.324707	0.116848
  19	1.9000e-002	21.354675	0.259396
  20	2.0000e-002	22.811890	0.385495
  21	2.1000e-002	24.139404	0.514337
  22	2.2000e-002	25.131226	0.656884
  23	2.3000e-002	26.229858	0.784355
  24	2.4000e-002	27.687073	0.940609
  25	2.5000e-002	28.770447	1.102345
  26	2.6000e-002	30.120850	1.241466
  27	2.7000e-002	31.005859	1.389497
  28	2.8000e-002	32.341003	1.547121
  29	2.9000e-002	33.706665	1.700634
  30	3.0000e-002	34.866333	1.857574
  31	3.1000e-002	36.056519	2.034388
  32	3.2000e-002	37.307739	2.172138
  33	3.3000e-002	38.467407	2.337987
  34	3.4000e-002	39.665222	2.491500
  35	3.5000e-002	40.748596	2.642956
  36	3.6000e-002	42.243958	2.809490
  37	3.7000e-002	43.182373	2.986304
  38	3.8000e-002	44.471741	3.141188
  39	3.9000e-002	45.570374	3.298813
  40	4.0000e-002	46.722412	3.470829
  41	4.1000e-002	48.080444	3.618859
  42	4.2000e-002	49.102783	3.785393
  43	4.3000e-002	50.315857	3.951242
  44	4.4000e-002	51.490784	4.115035
  45	4.5000e-002	52.757263	4.277457
  46	4.6000e-002	53.977966	4.450844
  47	4.7000e-002	55.068970	4.610525
  48	4.8000e-002	56.350708	4.784597
  49	4.9000e-002	57.693481	4.937425
  50	5.0000e-002	58.509827	5.108756
  51	5.1000e-002	59.791565	5.287626
  52	5.2000e-002	61.111450	5.458272
  53	5.3000e-002	62.339783	5.629603
  54	5.4000e-002	63.713074	5.822865
  55	5.5000e-002	64.689636	5.998994
  56	5.6000e-002	66.101074	6.178549
  57	5.7000e-002	67.222595	6.361531
  58	5.8000e-002	68.504333	6.574667
  59	5.9000e-002	69.763184	6.765872
  60	6.0000e-002	70.960999	6.983120
  61	6.1000e-002	71.914673	7.200368
  62	6.2000e-002	73.188782	7.390204
  63	6.3000e-002	74.424744	7.613620
  64	6.4000e-002	75.714111	7.837036
  65	6.5000e-002	76.873779	8.065934
  66	6.6000e-002	78.025818	8.303057
  67	6.7000e-002	79.292297	8.554571
  68	6.8000e-002	80.352783	8.798547
  69	6.9000e-002	81.451416	9.063082
  70	7.0000e-002	82.794189	9.328303
  71	7.1000e-002	83.930969	9.581188
  72	7.2000e-002	85.289001	9.877248
  73	7.3000e-002	86.219788	10.170568
  74	7.4000e-002	87.501526	10.482391
  75	7.5000e-002	88.897705	10.787360
  76	7.6000e-002	89.859009	11.103980
  77	7.7000e-002	91.003418	11.430195
  78	7.8000e-002	92.353821	11.748186
  79	7.9000e-002	93.467712	12.086737
  80	8.0000e-002	94.795227	12.455442
  81	8.1000e-002	95.649719	12.788510
  82	8.2000e-002	97.183228	13.181886
  83	8.3000e-002	98.304749	13.554703
  84	8.4000e-002	99.472046	13.954933
  85	8.5000e-002	100.822449	14.351736
  86	8.6000e-002	101.829529	14.767043
  87	8.7000e-002	103.271484	15.180294
  88	8.8000e-002	104.110718	15.634665
  89	8.9000e-002	105.354309	16.076700
  90	9.0000e-002	106.597900	16.531755
  91	9.1000e-002	107.841492	16.992979
  92	9.2000e-002	108.909607	17.469966
  93	9.3000e-002	110.511780	17.948323
  94	9.4000e-002	111.457825	18.443813
  95	9.5000e-002	112.922668	18.954380
  96	9.6000e-002	113.990784	19.464947
  97	9.7000e-002	115.257263	19.988535
  98	9.8000e-002	116.401672	20.518977
  99	9.9000e-002	117.599487	21.045992
 100	1.0000e-001	118.568420	21.596308
 101	1.0100e-001	120.079041	22.141142
 102	1.0200e-001	121.337891	22.717500
 103	1.0300e-001	122.283936	23.272613
 104	1.0400e-001	123.565674	23.857196
 105	1.0500e-001	124.801636	24.426701
 106	1.0600e-001	126.007080	25.024304
 107	1.0700e-001	127.082825	25.593810
 108	1.0800e-001	128.387451	26.183875
 109	1.0900e-001	129.730225	26.784905
 110	1.1000e-001	130.828857	27.383194
 111	1.1100e-001	131.935120	27.980112
 112	1.1200e-001	133.255005	28.572233
 113	1.1300e-001	134.101868	29.182857
 114	1.1400e-001	135.551453	29.738656
 115	1.1500e-001	136.650085	30.354078
 116	1.1600e-001	137.626648	30.940031
 117	1.1700e-001	139.259338	31.511592
 118	1.1800e-001	140.220642	32.095489
 119	1.1900e-001	141.624451	32.686925
 120	1.2000e-001	142.822266	33.267395
 121	1.2100e-001	143.890381	33.811543
 122	1.2200e-001	145.294189	34.411888
 123	1.2300e-001	146.278381	34.939588
 124	1.2400e-001	147.636414	35.502240
 125	1.2500e-001	148.796082	36.047074
 126	1.2600e-001	150.016785	36.574774
 127	1.2700e-001	151.290894	37.109328
 128	1.2800e-001	152.488708	37.645937
 129	1.2900e-001	153.739929	38.154449
 130	1.3000e-001	154.441833	38.675981
 131	1.3100e-001	155.868530	39.166674
 132	1.3200e-001	157.127380	39.640919
 133	1.3300e-001	158.126831	40.118590
 134	1.3400e-001	159.645081	40.591465
 135	1.3500e-001	160.835266	41.030758
 136	1.3600e-001	161.964417	41.477590
 137	1.3700e-001	163.085938	41.903177
 138	1.3800e-001	164.466858	42.299295
 139	1.3900e-001	165.657043	42.708434
 140	1.4000e-001	166.885376	43.073712
 141	1.4100e-001	168.037415	43.443788
 142	1.4200e-001	169.281006	43.798101
 143	1.4300e-001	170.539856	44.122945
 144	1.4400e-001	171.653748	44.449845
 145	1.4500e-001	172.889709	44.774004
 146	1.4600e-001	174.072266	45.051561
 147	1.4700e-001	175.277710	45.341453
 148	1.4800e-001	176.467896	45.605989
 149	1.4900e-001	177.467346	45.873266
 150	1.5000e-001	178.802490	46.112444
 151	1.5100e-001	180.053711	46.353679
 152	1.5200e-001	181.114197	46.576409
 153	1.5300e-001	182.441711	46.777895
 154	1.5400e-001	183.670044	46.989660
 155	1.5500e-001	184.631348	47.177439
 156	1.5600e-001	185.981750	47.355624
 157	1.5700e-001	187.049866	47.529011
 158	1.5800e-001	188.423157	47.698972
 159	1.5900e-001	189.643860	47.867562
 160	1.6000e-001	190.834045	48.014221
 161	1.6100e-001	192.207336	48.175958
 162	1.6200e-001	193.275452	48.309596
 163	1.6300e-001	194.496155	48.463795
 164	1.6400e-001	195.831299	48.583041
 165	1.6500e-001	196.868896	48.705029
 166	1.6600e-001	198.020935	48.838667
 167	1.6700e-001	199.241638	48.951746
 168	1.6800e-001	200.332642	49.067566
 169	1.6900e-001	201.484680	49.185442
 170	1.7000e-001	202.705383	49.300577
 171	1.7100e-001	204.063416	49.398578
 172	1.7200e-001	205.352783	49.502747
 173	1.7300e-001	206.367493	49.585672
 174	1.7400e-001	207.496643	49.693953
 175	1.7500e-001	208.900452	49.776878
 176	1.7600e-001	209.991455	49.875564
 177	1.7700e-001	211.402893	49.958489
 178	1.7800e-001	212.577820	50.052378
 179	1.7900e-001	213.630676	50.133932
 180	1.8000e-001	214.927673	50.207262
 181	1.8100e-001	216.026306	50.300466
 182	1.8200e-001	217.460632	50.373110
 183	1.8300e-001	218.498230	50.450552
 184	1.8400e-001	219.642639	50.531420
 185	1.8500e-001	221.206665	50.595841
 186	1.8600e-001	222.114563	50.660262
 187	1.8700e-001	223.197937	50.732906
 188	1.8800e-001	224.723816	50.809663
 189	1.8900e-001	225.288391	50.867230
 190	1.9000e-001	226.745605	50.930280
 191	1.9100e-001	228.157043	50.994700
 192	1.9200e-001	229.240417	51.060491
 193	1.9300e-001	230.491638	51.124227
 194	1.9400e-001	231.475830	51.185221
 195	1.9500e-001	233.009338	51.237991
 196	1.9600e-001	234.062195	51.296243
 197	1.9700e-001	235.466003	51.364776
 198	1.9800e-001	236.389160	51.412749
 199	1.9900e-001	237.426758	51.475113
 200	2.0000e-001	239.051819	51.521030
 201	2.0100e-001	239.959717	51.562835
 202	2.0200e-001	241.653442	51.630682
 203	2.0300e-001	242.477417	51.675913
 204	2.0400e-001	243.782043	51.724572
 205	2.0500e-001	244.956970	51.782139
 206	2.0600e-001	246.032715	51.844503
 207	2.0700e-001	247.253418	51.880140
 208	2.0800e-001	248.100281	51.940449
 209	2.0900e-001	249.641418	51.981568
 210	2.1000e-001	250.762939	52.029541
 211	2.1100e-001	251.953125	52.076143
 212	2.1200e-001	253.143311	52.126172
 213	2.1300e-001	254.455566	52.189222
 214	2.1400e-001	255.714417	52.218691
 215	2.1500e-001	256.568909	52.266664
 216	2.1600e-001	258.026123	52.311895
 217	2.1700e-001	259.185791	52.343420
 218	2.1800e-001	260.307312	52.393449
 219	2.1900e-001	261.695862	52.443478
 220	2.2000e-001	262.733459	52.489394
 221	2.2100e-001	264.244080	52.530514
 222	2.2200e-001	265.159607	52.573689
 223	2.2300e-001	266.479492	52.606585
 224	2.2400e-001	267.692566	52.647019
 225	2.2500e-001	268.638611	52.703901
 226	2.2600e-001	270.133972	52.766266
 227	2.2700e-001	271.148682	52.784084
 228	2.2800e-001	272.544861	52.828630
 229	2.2900e-001	273.490906	52.880715
 230	2.3000e-001	274.757385	52.902645
 231	2.3100e-001	275.917053	52.950618
 232	2.3200e-001	277.282715	52.981458
 233	2.3300e-001	278.442383	53.041081
 234	2.3400e-001	279.487610	53.052046
 235	2.3500e-001	280.876160	53.113040
 236	2.3600e-001	282.157898	53.147992
 237	2.3700e-001	283.103943	53.192538
 238	2.3800e-001	284.584045	53.221322
 239	2.3900e-001	285.728455	53.276148
 240	2.4000e-001	286.766052	53.297393
 241	2.4100e-001	288.093567	53.335771
 242	2.4200e-001	289.031982	53.396765
 243	2.4300e-001	290.245056	53.426919
 244	2.4400e-001	291.816711	53.472836
 245	2.4500e-001	293.006897	53.500249
 246	2.4600e-001	294.174194	53.538627
 247	2.4700e-001	295.433044	53.585229
 248	2.4800e-001	296.417236	53.620181
 249	2.4900e-001	297.706604	53.657874
 250	2.5000e-001	298.683167	53.697623
 251	2.5100e-001	300.132751	53.726406
 252	2.5200e-001	298.713684	53.718182
 253	2.5300e-001	297.653198	53.688713
 254	2.5400e-001	296.440125	53.669524
 255	2.5500e-001	295.295715	53.643482
 256	2.5600e-001	294.166565	53.626349
 257	2.5700e-001	292.831421	53.596194
 258	2.5800e-001	291.610718	53.572893
 259	2.5900e-001	290.550232	53.551648
 260	2.6000e-001	289.146423	53.536571
 261	2.6100e-001	287.857056	53.490654
 262	2.6200e-001	286.903381	53.469409
 263	2.6300e-001	285.713196	53.434458
 264	2.6400e-001	284.629822	53.418010
 265	2.6500e-001	283.294678	53.381688
 266	2.6600e-001	281.974792	53.371408
 267	2.6700e-001	280.685425	53.339883
 268	2.6800e-001	279.541016	53.312470
 269	2.6900e-001	278.488159	53.287113
 270	2.7000e-001	277.412415	53.250105
 271	2.7100e-001	276.008606	53.241196
 272	2.7200e-001	274.787903	53.202818
 273	2.7300e-001	273.643494	53.177461
 274	2.7400e-001	272.590637	53.151418
 275	2.7500e-001	271.324158	53.112355
 276	2.7600e-001	269.950867	53.087683
 277	2.7700e-001	268.768311	53.053417
 278	2.7800e-001	267.524719	53.024633
 279	2.7900e-001	266.578674	52.997906
 280	2.8000e-001	265.403748	52.969122
 281	2.8100e-001	264.099121	52.941024
 282	2.8200e-001	262.710571	52.899219
 283	2.8300e-001	261.619568	52.877288
 284	2.8400e-001	260.437012	52.868379
 285	2.8500e-001	259.223938	52.818350
 286	2.8600e-001	258.125305	52.791623
 287	2.8700e-001	256.736755	52.761468
 288	2.8800e-001	255.447388	52.719664
 289	2.8900e-001	254.348755	52.705272
 290	2.9000e-001	253.242493	52.658670
 291	2.9100e-001	251.976013	52.642222
 292	2.9200e-001	251.037598	52.603844
 293	2.9300e-001	249.610901	52.562724
 294	2.9400e-001	248.390198	52.533941
 295	2.9500e-001	247.070313	52.501730
 296	2.9600e-001	246.299744	52.469520
 297	2.9700e-001	244.598389	52.434568
 298	2.9800e-001	243.820190	52.407841
 299	2.9900e-001	242.607117	52.374260
 300	3.0000e-001	241.348267	52.340679
 301	3.0100e-001	240.013123	52.314636
 302	3.0200e-001	238.960266	52.276944
 303	3.0300e-001	237.396240	52.253643
 304	3.0400e-001	236.450195	52.213208
 305	3.0500e-001	235.176086	52.179627
 306	3.0600e-001	234.024048	52.138508
 307	3.0700e-001	232.925415	52.113151
 308	3.0800e-001	231.346130	52.093962
 309	3.0900e-001	230.293274	52.056269
 310	3.1000e-001	229.164124	52.012408
 311	3.1100e-001	228.340149	51.982254
 312	3.1200e-001	226.860046	51.946617
 313	3.1300e-001	225.631714	51.902071
 314	3.1400e-001	224.403381	51.880140
 315	3.1500e-001	223.075867	51.841762
 316	3.1600e-001	222.145081	51.810237
 317	3.1700e-001	220.855713	51.768432
 318	3.1800e-001	219.612122	51.737593
 319	3.1900e-001	218.490601	51.710865
 320	3.2000e-001	217.224121	51.664263
 321	3.2100e-001	215.858459	51.627255
 322	3.2200e-001	215.042114	51.591618
 323	3.2300e-001	213.722229	51.566261
 324	3.2400e-001	212.287903	51.523771
 325	3.2500e-001	211.036682	51.491561
 326	3.2600e-001	210.044861	51.468260
 327	3.2700e-001	208.847046	51.427826
 328	3.2800e-001	207.603455	51.384650
 329	3.2900e-001	206.512451	51.335992
 330	3.3000e-001	204.986572	51.301726
 331	3.3100e-001	204.032898	51.275684
 332	3.3200e-001	202.857971	51.232508
 333	3.3300e-001	201.721191	51.194815
 334	3.3400e-001	200.340271	51.162605
 335	3.3500e-001	199.043274	51.126283
 336	3.3600e-001	197.982788	51.094072
 337	3.3700e-001	197.044373	51.040617
 338	3.3800e-001	195.518494	50.997442
 339	3.3900e-001	194.450378	50.983735
 340	3.4000e-001	193.534851	50.937818
 341	3.4100e-001	191.886902	50.912461
 342	3.4200e-001	190.956116	50.861747
 343	3.4300e-001	189.613342	50.820628
 344	3.4400e-001	188.499451	50.780879
 345	3.4500e-001	186.920166	50.730165
 346	3.4600e-001	186.195374	50.696584
 347	3.4700e-001	184.814453	50.679451
 348	3.4800e-001	183.525085	50.626681
 349	3.4900e-001	182.518005	50.583505
 350	3.5000e-001	181.175232	50.545812
 351	3.5100e-001	179.985046	50.504007
 352	3.5200e-001	178.909302	50.462888
 353	3.5300e-001	177.482605	50.432048
 354	3.5400e-001	176.376343	50.380649
 355	3.5500e-001	175.117493	50.342956
 356	3.5600e-001	173.721313	50.298410
 357	3.5700e-001	172.775269	50.257976
 358	3.5800e-001	171.760559	50.223710
 359	3.5900e-001	170.310974	50.167513
 360	3.6000e-001	169.029236	50.133247
 361	3.6100e-001	167.976379	50.097610
 362	3.6200e-001	166.801453	50.054434
 363	3.6300e-001	165.473938	50.016741
 364	3.6400e-001	164.428711	49.965342
 365	3.6500e-001	163.253784	49.929020
 366	3.6600e-001	161.956787	49.889956
 367	3.6700e-001	160.820007	49.838557
 368	3.6800e-001	159.416199	49.800864
 369	3.6900e-001	158.287048	49.747409
 370	3.7000e-001	157.203674	49.712457
 371	3.7100e-001	156.188965	49.670652
 372	3.7200e-001	154.754639	49.615141
 373	3.7300e-001	153.976440	49.577448
 374	3.7400e-001	152.503967	49.526049
 375	3.7500e-001	151.145935	49.486985
 376	3.7600e-001	149.887085	49.416397
 377	3.7700e-001	149.017334	49.400634
 378	3.7800e-001	147.567749	49.365682
 379	3.7900e-001	146.202087	49.312227
 380	3.8000e-001	145.324707	49.258772
 381	3.8100e-001	143.730164	49.219023
 382	3.8200e-001	142.807007	49.173106
 383	3.8300e-001	141.754150	49.114853
 384	3.8400e-001	140.602112	49.071678
 385	3.8500e-001	139.183044	49.029873
 386	3.8600e-001	137.992859	48.974362
 387	3.8700e-001	136.878967	48.926389
 388	3.8800e-001	135.482788	48.885270
 389	3.8900e-001	134.597778	48.839353
 390	3.9000e-001	133.354187	48.774247
 391	3.9100e-001	132.110596	48.739295
 392	3.9200e-001	130.958557	48.691323
 393	3.9300e-001	129.562378	48.639923
 394	3.9400e-001	128.593445	48.589894
 395	3.9500e-001	127.182007	48.529586
 396	3.9600e-001	126.159668	48.478186
 397	3.9700e-001	124.969482	48.422675
 398	3.9800e-001	123.588562	48.380870
 399	3.9900e-001	122.581482	48.328100
 400	4.0000e-001	121.566772	48.282183
 401	4.0100e-001	119.949341	48.220504
 402	4.0200e-001	119.087219	48.182126
 403	4.0300e-001	117.744446	48.117705
 404	4.0400e-001	116.233826	48.062194
 405	4.0500e-001	115.142822	48.005312
 406	4.0600e-001	114.181519	47.950486
 407	4.0700e-001	112.976074	47.910052
 408	4.0800e-001	111.518860	47.855911
 409	4.0900e-001	110.313416	47.805882
 410	4.1000e-001	109.046936	47.743518
 411	4.1100e-001	107.955933	47.679097
 412	4.1200e-001	106.719971	47.624271
 413	4.1300e-001	105.400085	47.564648
 414	4.1400e-001	104.438782	47.501598
 415	4.1500e-001	103.202820	47.452940
 416	4.1600e-001	101.852417	47.392631
 417	4.1700e-001	100.723267	47.309022
 418	4.1800e-001	99.571228	47.269958
 419	4.1900e-001	98.434448	47.206223
 420	4.2000e-001	97.221375	47.145914
 421	4.2100e-001	95.893860	47.078752
 422	4.2200e-001	95.008850	47.010905
 423	4.2300e-001	93.360901	46.956765
 424	4.2400e-001	92.414856	46.895771
 425	4.2500e-001	91.255188	46.841630
 426	4.2600e-001	90.087891	46.758706
 427	4.2700e-001	88.768005	46.685376
 428	4.2800e-001	87.730408	46.622326
 429	4.2900e-001	86.402893	46.542828
 430	4.3000e-001	85.212708	46.495541
 431	4.3100e-001	84.022522	46.405763
 432	4.3200e-001	82.794189	46.344769
 433	4.3300e-001	81.649780	46.259104
 434	4.3400e-001	80.451965	46.183718
 435	4.3500e-001	79.032898	46.115185
 436	4.3600e-001	77.980042	46.045968
 437	4.3700e-001	76.774597	45.959617
 438	4.3800e-001	75.485229	45.879434
 439	4.3900e-001	74.432373	45.799936
 440	4.4000e-001	73.326111	45.718382
 441	4.4100e-001	72.113037	45.613527
 442	4.4200e-001	70.869446	45.534715
 443	4.4300e-001	69.763184	45.445623
 444	4.4400e-001	68.161011	45.353104
 445	4.4500e-001	67.146301	45.253732
 446	4.4600e-001	65.895081	45.154360
 447	4.4700e-001	64.735413	45.057043
 448	4.4800e-001	63.583374	44.951503
 449	4.4900e-001	62.515259	44.846649
 450	4.5000e-001	61.157227	44.732199
 451	4.5100e-001	59.974670	44.613638
 452	4.5200e-001	58.761597	44.497818
 453	4.5300e-001	57.586670	44.377201
 454	4.5400e-001	56.243896	44.240821
 455	4.5500e-001	55.290222	44.111980
 456	4.5600e-001	53.741455	43.987251
 457	4.5700e-001	52.947998	43.841962
 458	4.5800e-001	51.544189	43.692561
 459	4.5900e-001	50.392151	43.533566
 460	4.6000e-001	49.247742	43.384850
 461	4.6100e-001	48.057556	43.210777
 462	4.6200e-001	46.638489	43.034649
 463	4.6300e-001	45.555115	42.848240
 464	4.6400e-001	44.349670	42.670056
 465	4.6500e-001	43.144226	42.466514
 466	4.6600e-001	42.083740	42.275309
 467	4.6700e-001	40.794373	42.053263
 468	4.6800e-001	39.489746	41.859316
 469	4.6900e-001	38.429260	41.607117
 470	4.7000e-001	37.284851	41.352861
 471	4.7100e-001	35.697937	41.097920
 472	4.7200e-001	34.843445	40.835441
 473	4.7300e-001	33.836365	40.554457
 474	4.7400e-001	32.203674	40.265935
 475	4.7500e-001	31.303406	39.961651
 476	4.7600e-001	30.036926	39.649828
 477	4.7700e-001	28.717041	39.325669
 478	4.7800e-001	27.648926	38.965188
 479	4.7900e-001	26.573181	38.600595
 480	4.8000e-001	25.039673	38.222981
 481	4.8100e-001	23.849487	37.821381
 482	4.8200e-001	22.819519	37.429375
 483	4.8300e-001	21.553040	36.988711
 484	4.8400e-001	20.286560	36.562438
 485	4.8500e-001	18.974304	36.103271
 486	4.8600e-001	17.890930	35.608466
 487	4.8700e-001	16.853333	35.104752
 488	4.8800e-001	15.747070	34.583219
 489	4.8900e-001	14.289856	34.033589
 490	4.9000e-001	13.481140	33.473678
 491	4.9100e-001	12.145996	32.883613
 492	4.9200e-001	10.887146	32.270247
 493	4.9300e-001	9.590149	31.631524
 494	4.9400e-001	8.537292	30.978409
 495	4.9500e-001	7.057190	30.277322
 496	4.9600e-001	6.248474	29.597479
 497	4.9700e-001	4.882813	28.872405
 498	4.9800e-001	3.562927	28.117862
 499	4.9900e-001	2.532959	27.355781
 500	5.0000e-001	0.892639	26.568342
 501	5.0100e-001	0.061035	25.749378
 502	5.0200e-001	-0.839233	24.909170
 503	5.0300e-001	-2.624512	24.053884
 504	5.0400e-001	-3.517151	23.180780
 505	5.0500e-001	-4.837036	22.285745
 506	5.0600e-001	-5.691528	21.384543
 507	5.0700e-001	-7.095337	20.451130
 508	5.0800e-001	-8.384705	19.493731
 509	5.0900e-001	-9.468079	18.530849
 510	5.1000e-001	-10.490417	17.565226
 511	5.1100e-001	-11.810303	16.585896
 512	5.1200e-001	-13.008118	15.581210
 513	5.1300e-001	-14.167786	14.597768
 514	5.1400e-001	-15.335083	13.629404
 515	5.1500e-001	-16.746521	12.625402
 516	5.1600e-001	-17.829895	11.660464
 517	5.1700e-001	-19.226074	10.696897
 518	5.1800e-001	-20.233154	9.758687
 519	5.1900e-001	-21.659851	8.836925
 520	5.2000e-001	-22.621155	7.933666
 521	5.2100e-001	-23.681641	7.065359
 522	5.2200e-001	-25.115967	6.249823
 523	5.2300e-001	-26.290894	5.457587
 524	5.2400e-001	-27.442932	4.713324
 525	5.2500e-001	-28.762817	4.030740
 526	5.2600e-001	-29.846191	3.383793
 527	5.2700e-001	-31.341553	2.788245
 528	5.2800e-001	-32.363892	2.245468
 529	5.2900e-001	-33.660889	1.754090
 530	5.3000e-001	-34.828186	1.307258
 531	5.3100e-001	-35.995483	0.909084
 532	5.3200e-001	-37.269592	0.547232
 533	5.3300e-001	-38.627625	0.221017
 534	5.3400e-001	-39.512634	-0.096288
 535	5.3500e-001	-40.756226	-0.363565
 536	5.3600e-001	-41.778564	-0.619191
 537	5.3700e-001	-43.159485	-0.853572
 538	5.3800e-001	-44.303894	-1.086583
 539	5.3900e-001	-45.616150	-1.304516
 540	5.4000e-001	-46.531677	-1.507373
 541	5.4100e-001	-47.782898	-1.698578
 542	5.4200e-001	-49.133301	-1.908288
 543	5.4300e-001	-50.476074	-2.091955
 544	5.4400e-001	-51.628113	-2.275622
 545	5.4500e-001	-52.803040	-2.459289
 546	5.4600e-001	-53.970337	-2.649124
 547	5.4700e-001	-55.145264	-2.825938
 548	5.4800e-001	-56.312561	-2.995213
 549	5.4900e-001	-57.579041	-3.192587
 550	5.5000e-001	-58.868408	-3.377625
 551	5.5100e-001	-60.218811	-3.559921
 552	5.5200e-001	-61.233521	-3.762092
 553	5.5300e-001	-62.294006	-3.950557
 554	5.5400e-001	-63.346863	-4.134909
 555	5.5500e-001	-64.819336	-4.318576
 556	5.5600e-001	-66.116333	-4.532398
 557	5.5700e-001	-67.016602	-4.730457
 558	5.5800e-001	-68.595886	-4.935369
 559	5.5900e-001	-69.656372	-5.142337
 560	5.6000e-001	-70.724487	-5.349991
 561	5.6100e-001	-72.143555	-5.593966
 562	5.6200e-001	-73.112488	-5.810529
 563	5.6300e-001	-74.394226	-6.025036
 564	5.6400e-001	-75.614929	-6.252564
 565	5.6500e-001	-76.957703	-6.497225
 566	5.6600e-001	-77.926636	-6.729550
 567	5.6700e-001	-79.208374	-6.994086
 568	5.6800e-001	-80.230713	-7.268216
 569	5.6900e-001	-81.756592	-7.533436
 570	5.7000e-001	-82.832336	-7.799343
 571	5.7100e-001	-84.022522	-8.081011
 572	5.7200e-001	-85.006714	-8.362680
 573	5.7300e-001	-86.471558	-8.651887
 574	5.7400e-001	-87.623596	-8.947948
 575	5.7500e-001	-88.882446	-9.263882
 576	5.7600e-001	-89.797974	-9.592153
 577	5.7700e-001	-91.217041	-9.930018
 578	5.7800e-001	-92.567444	-10.256919
 579	5.7900e-001	-93.696594	-10.620141
 580	5.8000e-001	-94.734192	-10.958006
 581	5.8100e-001	-95.825195	-11.326026
 582	5.8200e-001	-97.373962	-11.687877
 583	5.8300e-001	-98.365784	-12.091534
 584	5.8400e-001	-99.464417	-12.491764
 585	5.8500e-001	-100.967407	-12.906386
 586	5.8600e-001	-102.203369	-13.330602
 587	5.8700e-001	-103.172302	-13.761671
 588	5.8800e-001	-104.476929	-14.199594
 589	5.8900e-001	-105.705261	-14.660818
 590	5.9000e-001	-106.681824	-15.128210
 591	5.9100e-001	-108.062744	-15.601769
 592	5.9200e-001	-109.169006	-16.096574
 593	5.9300e-001	-110.496521	-16.613309
 594	5.9400e-001	-111.450195	-17.125932
 595	5.9500e-001	-112.915039	-17.667339
 596	5.9600e-001	-114.097595	-18.211487
 597	5.9700e-001	-115.051270	-18.767286
 598	5.9800e-001	-116.302490	-19.324455
 599	5.9900e-001	-117.530823	-19.906296
 600	6.0000e-001	-118.774414	-20.501844
 601	6.0100e-001	-120.063782	-21.117951
 602	6.0200e-001	-121.040344	-21.748450
 603	6.0300e-001	-122.077942	-22.381005
 604	6.0400e-001	-123.519897	-23.024526
 605	6.0500e-001	-124.908447	-23.666675
 606	6.0600e-001	-125.823975	-24.335553
 607	6.0700e-001	-127.159119	-25.030472
 608	6.0800e-001	-128.410339	-25.726763
 609	6.0900e-001	-129.516602	-26.421682
 610	6.1000e-001	-130.889893	-27.146756
 611	6.1100e-001	-131.927490	-27.858809
 612	6.1200e-001	-133.193970	-28.577030
 613	6.1300e-001	-134.254456	-29.300733
 614	6.1400e-001	-135.513306	-30.023751
 615	6.1500e-001	-136.505127	-30.754308
 616	6.1600e-001	-138.084412	-31.471158
 617	6.1700e-001	-139.015198	-32.211994
 618	6.1800e-001	-140.029907	-32.945978
 619	6.1900e-001	-141.448975	-33.660086
 620	6.2000e-001	-142.501831	-34.363915
 621	6.2100e-001	-143.676758	-35.078709
 622	6.2200e-001	-145.256042	-35.770203
 623	6.2300e-001	-146.476746	-36.439080
 624	6.2400e-001	-147.460938	-37.129202
 625	6.2500e-001	-148.971558	-37.774779
 626	6.2600e-001	-149.841309	-38.411446
 627	6.2700e-001	-151.046753	-39.041945
 628	6.2800e-001	-152.328491	-39.644345
 629	6.2900e-001	-153.419495	-40.213851
 630	6.3000e-001	-154.518127	-40.773076
 631	6.3100e-001	-155.830383	-41.300776
 632	6.3200e-001	-157.058716	-41.807232
 633	6.3300e-001	-158.355713	-42.293812
 634	6.3400e-001	-159.729004	-42.756407
 635	6.3500e-001	-160.972595	-43.182679
 636	6.3600e-001	-161.743164	-43.592504
 637	6.3700e-001	-163.291931	-43.972174
 638	6.3800e-001	-164.474487	-44.323060
 639	6.3900e-001	-165.473938	-44.639680
 640	6.4000e-001	-166.694641	-44.973434
 641	6.4100e-001	-167.724609	-45.255788
 642	6.4200e-001	-169.113159	-45.523064
 643	6.4300e-001	-170.356750	-45.784859
 644	6.4400e-001	-171.783447	-46.043226
 645	6.4500e-001	-172.721863	-46.239915
 646	6.4600e-001	-173.912048	-46.448253
 647	6.4700e-001	-175.125122	-46.631235
 648	6.4800e-001	-176.460266	-46.806678
 649	6.4900e-001	-177.581787	-46.982807
 650	6.5000e-001	-178.947449	-47.135634
 651	6.5100e-001	-180.145264	-47.295315
 652	6.5200e-001	-181.396484	-47.445401
 653	6.5300e-001	-182.319641	-47.575613
 654	6.5400e-001	-183.578491	-47.729811
 655	6.5500e-001	-184.692383	-47.836037
 656	6.5600e-001	-185.981750	-47.947059
 657	6.5700e-001	-187.362671	-48.048488
 658	6.5800e-001	-188.575745	-48.149916
 659	6.5900e-001	-189.559937	-48.262309
 660	6.6000e-001	-190.773010	-48.378129
 661	6.6100e-001	-191.963196	-48.472018
 662	6.6200e-001	-193.305969	-48.563167
 663	6.6300e-001	-194.412231	-48.659798
 664	6.6400e-001	-195.793152	-48.736554
 665	6.6500e-001	-196.846008	-48.819478
 666	6.6600e-001	-197.891235	-48.906515
 667	6.6700e-001	-199.234009	-48.991495
 668	6.6800e-001	-200.561523	-49.097035
 669	6.6900e-001	-201.637268	-49.137469
 670	6.7000e-001	-202.690125	-49.245065
 671	6.7100e-001	-203.948975	-49.313598
 672	6.7200e-001	-205.421448	-49.399263
 673	6.7300e-001	-206.596375	-49.458887
 674	6.7400e-001	-207.672119	-49.528105
 675	6.7500e-001	-208.915710	-49.602120
 676	6.7600e-001	-210.060120	-49.672708
 677	6.7700e-001	-211.341858	-49.746038
 678	6.7800e-001	-212.387085	-49.813200
 679	6.7900e-001	-213.531494	-49.886530
 680	6.8000e-001	-214.828491	-49.941356
 681	6.8100e-001	-216.239929	-50.020853
 682	6.8200e-001	-217.346191	-50.068141
 683	6.8300e-001	-218.536377	-50.139415
 684	6.8400e-001	-219.596863	-50.221654
 685	6.8500e-001	-220.970154	-50.281277
 686	6.8600e-001	-222.038269	-50.349124
 687	6.8700e-001	-223.426819	-50.402579
 688	6.8800e-001	-224.426270	-50.472483
 689	6.8900e-001	-225.631714	-50.527994
 690	6.9000e-001	-226.989746	-50.585561
 691	6.9100e-001	-228.012085	-50.650667
 692	6.9200e-001	-229.339600	-50.710290
 693	6.9300e-001	-230.560303	-50.774711
 694	6.9400e-001	-231.613159	-50.835020
 695	6.9500e-001	-232.894897	-50.883678
 696	6.9600e-001	-233.963013	-50.938504
 697	6.9700e-001	-235.305786	-51.002239
 698	6.9800e-001	-236.526489	-51.055694
 699	6.9900e-001	-237.670898	-51.116688
 700	7.0000e-001	-238.845825	-51.170829
 701	7.0100e-001	-240.005493	-51.231137
 702	7.0200e-001	-241.119385	-51.292131
 703	7.0300e-001	-242.553711	-51.351069
 704	7.0400e-001	-243.606567	-51.403154
 705	7.0500e-001	-245.132446	-51.454553
 706	7.0600e-001	-245.941162	-51.510750
 707	7.0700e-001	-247.215271	-51.555296
 708	7.0800e-001	-248.466492	-51.607381
 709	7.0900e-001	-249.740601	-51.666319
 710	7.1000e-001	-251.014709	-51.716348
 711	7.1100e-001	-252.197266	-51.772544
 712	7.1200e-001	-253.295898	-51.833538
 713	7.1300e-001	-254.356384	-51.894532
 714	7.1400e-001	-255.615234	-51.929484
 715	7.1500e-001	-256.851196	-51.988422
 716	7.1600e-001	-258.354187	-52.032283
 717	7.1700e-001	-259.216309	-52.082997
 718	7.1800e-001	-260.513306	-52.123431
 719	7.1900e-001	-261.581421	-52.184425
 720	7.2000e-001	-262.847900	-52.232397
 721	7.2100e-001	-263.961792	-52.292706
 722	7.2200e-001	-265.182495	-52.339308
 723	7.2300e-001	-266.670227	-52.380428
 724	7.2400e-001	-267.524719	-52.434568
 725	7.2500e-001	-269.042969	-52.481856
 726	7.2600e-001	-270.195007	-52.530514
 727	7.2700e-001	-271.484375	-52.583969
 728	7.2800e-001	-272.476196	-52.622347
 729	7.2900e-001	-273.567200	-52.681971
 730	7.3000e-001	-274.948120	-52.723776
 731	7.3100e-001	-275.886536	-52.769007
 732	7.3200e-001	-277.122498	-52.821777
 733	7.3300e-001	-278.388977	-52.851246
 734	7.3400e-001	-279.815674	-52.907443
 735	7.3500e-001	-280.677795	-52.954730
 736	7.3600e-001	-282.112122	-52.996535
 737	7.3700e-001	-283.340454	-53.067809
 738	7.3800e-001	-284.408569	-53.097278
 739	7.3900e-001	-285.438538	-53.139083
 740	7.4000e-001	-286.956787	-53.183629
 741	7.4100e-001	-288.101196	-53.226804
 742	7.4200e-001	-289.291382	-53.272721
 743	7.4300e-001	-290.542603	-53.317952
 744	7.4400e-001	-291.740417	-53.373464
 745	7.4500e-001	-293.174744	-53.422122
 746	7.4600e-001	-294.250488	-53.469409
 747	7.4700e-001	-295.227051	-53.515326
 748	7.4800e-001	-296.630859	-53.550963
 749	7.4900e-001	-297.592163	-53.585229
 750	7.5000e-001	-299.026489	-53.627034
 751	7.5100e-001	-299.972534	-53.667468
 752	7.5200e-001	-299.255371	-53.668839
 753	7.5300e-001	-297.737122	-53.634573
 754	7.5400e-001	-296.524048	-53.611957
 755	7.5500e-001	-295.166016	-53.581803
 756	7.5600e-001	-293.823242	-53.554390
 757	7.5700e-001	-292.861938	-53.513955
 758	7.5800e-001	-291.687012	-53.484486
 759	7.5900e-001	-290.542603	-53.453647
 760	7.6000e-001	-289.291382	-53.434458
 761	7.6100e-001	-288.017273	-53.400191
 762	7.6200e-001	-286.941528	-53.381688
 763	7.6300e-001	-285.598755	-53.340568
 764	7.6400e-001	-284.545898	-53.320694
 765	7.6500e-001	-283.081055	-53.289169
 766	7.6600e-001	-282.180786	-53.252161
 767	7.6700e-001	-280.990601	-53.218580
 768	7.6800e-001	-279.632568	-53.180887
 769	7.6900e-001	-278.541565	-53.163754
 770	7.7000e-001	-277.191162	-53.121949
 771	7.7100e-001	-276.214600	-53.093166
 772	7.7200e-001	-274.673462	-53.059585
 773	7.7300e-001	-273.704529	-53.031487
 774	7.7400e-001	-272.613525	-52.971863
 775	7.7500e-001	-271.392822	-52.960213
 776	7.7600e-001	-270.225525	-52.927317
 777	7.7700e-001	-268.936157	-52.888939
 778	7.7800e-001	-267.700195	-52.862211
 779	7.7900e-001	-266.540527	-52.836169
 780	7.8000e-001	-265.312195	-52.784084
 781	7.8100e-001	-264.114380	-52.751189
 782	7.8200e-001	-263.107300	-52.726517
 783	7.8300e-001	-261.352539	-52.694992
 784	7.8400e-001	-260.604858	-52.651816
 785	7.8500e-001	-259.498596	-52.619606
 786	7.8600e-001	-257.812500	-52.590137
 787	7.8700e-001	-257.034302	-52.553130
 788	7.8800e-001	-255.615234	-52.507213
 789	7.8900e-001	-254.440308	-52.484597
 790	7.9000e-001	-253.448486	-52.444848
 791	7.9100e-001	-252.182007	-52.413323
 792	7.9200e-001	-250.793457	-52.361924
 793	7.9300e-001	-249.755859	-52.318748
 794	7.9400e-001	-248.397827	-52.292021
 795	7.9500e-001	-247.406006	-52.263922
 796	7.9600e-001	-245.994568	-52.228971
 797	7.9700e-001	-244.873047	-52.192649
 798	7.9800e-001	-243.438721	-52.143991
 799	7.9900e-001	-242.271423	-52.113836
 800	8.0000e-001	-241.439819	-52.065178
 801	8.0100e-001	-239.845276	-52.039821
 802	8.0200e-001	-239.074707	-51.998016
 803	8.0300e-001	-237.632751	-51.983624
 804	8.0400e-001	-236.434937	-51.924686
 805	8.0500e-001	-235.275269	-51.891791
 806	8.0600e-001	-234.138489	-51.861637
 807	8.0700e-001	-232.849121	-51.802699
 808	8.0800e-001	-231.857300	-51.768432
 809	8.0900e-001	-230.590820	-51.728684
 810	8.1000e-001	-229.415894	-51.684823
 811	8.1100e-001	-228.187561	-51.651927
 812	8.1200e-001	-227.096558	-51.618346
 813	8.1300e-001	-225.585938	-51.575856
 814	8.1400e-001	-224.555969	-51.545016
 815	8.1500e-001	-223.251343	-51.504582
 816	8.1600e-001	-221.946716	-51.442218
 817	8.1700e-001	-221.076965	-51.410007
 818	8.1800e-001	-219.459534	-51.358608
 819	8.1900e-001	-218.505859	-51.345587
 820	8.2000e-001	-217.216492	-51.289390
 821	8.2100e-001	-215.789795	-51.243473
 822	8.2200e-001	-214.904785	-51.213319
 823	8.2300e-001	-213.859558	-51.180423
 824	8.2400e-001	-212.440491	-51.124227
 825	8.2500e-001	-211.456299	-51.078995
 826	8.2600e-001	-210.212708	-51.041302
 827	8.2700e-001	-208.747864	-51.006351
 828	8.2800e-001	-207.778931	-50.963175
 829	8.2900e-001	-206.283569	-50.926168
 830	8.3000e-001	-205.200195	-50.864489
 831	8.3100e-001	-204.246521	-50.836390
 832	8.3200e-001	-202.888489	-50.791844
 833	8.3300e-001	-201.728821	-50.762375
 834	8.3400e-001	-200.454712	-50.700696
 835	8.3500e-001	-199.066162	-50.653408
 836	8.3600e-001	-198.089600	-50.602694
 837	8.3700e-001	-196.754456	-50.571169
 838	8.3800e-001	-195.533752	-50.530050
 839	8.3900e-001	-194.320679	-50.482762
 840	8.4000e-001	-193.534851	-50.425880
 841	8.4100e-001	-192.047119	-50.386817
 842	8.4200e-001	-190.795898	-50.350495
 843	8.4300e-001	-189.437866	-50.300466
 844	8.4400e-001	-188.606262	-50.253178
 845	8.4500e-001	-187.232971	-50.210688
 846	8.4600e-001	-186.141968	-50.161345
 847	8.4700e-001	-184.761047	-50.109946
 848	8.4800e-001	-183.578491	-50.055120
 849	8.4900e-001	-182.388306	-50.016741
 850	8.5000e-001	-181.488037	-49.974936
 851	8.5100e-001	-179.985046	-49.925593
 852	8.5200e-001	-178.794861	-49.866655
 853	8.5300e-001	-177.719116	-49.827592
 854	8.5400e-001	-176.414490	-49.775507
 855	8.5500e-001	-175.308228	-49.737814
 856	8.5600e-001	-174.163818	-49.685044
 857	8.5700e-001	-173.118591	-49.647351
 858	8.5800e-001	-171.562195	-49.580189
 859	8.5900e-001	-170.623779	-49.537014
 860	8.6000e-001	-169.425964	-49.487670
 861	8.6100e-001	-167.976379	-49.441068
 862	8.6200e-001	-166.961670	-49.399949
 863	8.6300e-001	-165.824890	-49.362941
 864	8.6400e-001	-164.382935	-49.290297
 865	8.6500e-001	-163.391113	-49.236841
 866	8.6600e-001	-162.086487	-49.188869
 867	8.6700e-001	-160.942078	-49.132672
 868	8.6800e-001	-159.645081	-49.070993
 869	8.6900e-001	-158.576965	-49.021649
 870	8.7000e-001	-157.348633	-48.964767
 871	8.7100e-001	-156.089783	-48.923648
 872	8.7200e-001	-154.846191	-48.877046
 873	8.7300e-001	-153.480530	-48.818108
 874	8.7400e-001	-152.450562	-48.773562
 875	8.7500e-001	-151.275635	-48.719421
 876	8.7600e-001	-149.955750	-48.652944
 877	8.7700e-001	-148.620605	-48.580985
 878	8.7800e-001	-147.285461	-48.544663
 879	8.7900e-001	-146.537781	-48.491208
 880	8.8000e-001	-145.172119	-48.436382
 881	8.8100e-001	-144.088745	-48.377444
 882	8.8200e-001	-142.387390	-48.323303
 883	8.8300e-001	-141.479492	-48.273274
 884	8.8400e-001	-140.365601	-48.199944
 885	8.8500e-001	-139.236450	-48.144433
 886	8.8600e-001	-137.687683	-48.079327
 887	8.8700e-001	-136.878967	-48.027928
 888	8.8800e-001	-135.292053	-47.973102
 889	8.8900e-001	-134.536743	-47.914164
 890	8.9000e-001	-133.049011	-47.876471
 891	8.9100e-001	-132.095337	-47.797659
 892	8.9200e-001	-130.813599	-47.735979
 893	8.9300e-001	-129.570007	-47.666076
 894	8.9400e-001	-128.211975	-47.589320
 895	8.9500e-001	-126.998901	-47.552997
 896	8.9600e-001	-126.342773	-47.493374
 897	8.9700e-001	-124.885559	-47.433066
 898	8.9800e-001	-123.428345	-47.375498
 899	8.9900e-001	-122.428894	-47.302854
 900	9.0000e-001	-121.269226	-47.238433
 901	9.0100e-001	-119.895935	-47.179495
 902	9.0200e-001	-118.804932	-47.111648
 903	9.0300e-001	-117.591858	-47.045857
 904	9.0400e-001	-116.348267	-46.984178
 905	9.0500e-001	-115.356445	-46.917016
 906	9.0600e-001	-113.937378	-46.853281
 907	9.0700e-001	-112.709045	-46.782007
 908	9.0800e-001	-111.648560	-46.709362
 909	9.0900e-001	-110.618591	-46.631235
 910	9.1000e-001	-109.130859	-46.569556
 911	9.1100e-001	-108.001709	-46.492800
 912	9.1200e-001	-106.842041	-46.437973
 913	9.1300e-001	-105.621338	-46.364644
 914	9.1400e-001	-104.438782	-46.296111
 915	9.1500e-001	-103.126526	-46.228949
 916	9.1600e-001	-102.203369	-46.141228
 917	9.1700e-001	-100.654602	-46.050765
 918	9.1800e-001	-99.548340	-46.004848
 919	9.1900e-001	-98.464966	-45.929462
 920	9.2000e-001	-97.198486	-45.843111
 921	9.2100e-001	-96.168518	-45.778691
 922	9.2200e-001	-94.818115	-45.701249
 923	9.2300e-001	-93.414307	-45.612842
 924	9.2400e-001	-92.369080	-45.538142
 925	9.2500e-001	-91.217041	-45.455903
 926	9.2600e-001	-89.950562	-45.375720
 927	9.2700e-001	-88.760376	-45.280459
 928	9.2800e-001	-87.699890	-45.195479
 929	9.2900e-001	-86.380005	-45.117352
 930	9.3000e-001	-85.212708	-45.033742
 931	9.3100e-001	-84.060669	-44.947391
 932	9.3200e-001	-82.832336	-44.859670
 933	9.3300e-001	-81.558228	-44.776060
 934	9.3400e-001	-80.322266	-44.679429
 935	9.3500e-001	-79.147339	-44.596505
 936	9.3600e-001	-78.361511	-44.507413
 937	9.3700e-001	-77.041626	-44.413523
 938	9.3800e-001	-75.683594	-44.302500
 939	9.3900e-001	-74.546814	-44.210667
 940	9.4000e-001	-73.081970	-44.118833
 941	9.4100e-001	-72.196960	-44.004384
 942	9.4200e-001	-70.732117	-43.907753
 943	9.4300e-001	-69.496155	-43.798786
 944	9.4400e-001	-68.611145	-43.694617
 945	9.4500e-001	-67.291260	-43.583594
 946	9.4600e-001	-65.917969	-43.469145
 947	9.4700e-001	-64.743042	-43.353325
 948	9.4800e-001	-63.507080	-43.233393
 949	9.4900e-001	-62.103271	-43.121685
 950	9.5000e-001	-61.218262	-43.002439
 951	9.5100e-001	-59.837341	-42.881821
 952	9.5200e-001	-58.898926	-42.742015
 953	9.5300e-001	-57.884216	-42.615230
 954	9.5400e-001	-56.396484	-42.480221
 955	9.5500e-001	-55.274963	-42.340415
 956	9.5600e-001	-53.848267	-42.199238
 957	9.5700e-001	-52.833557	-42.030648
 958	9.5800e-001	-51.879883	-41.873023
 959	9.5900e-001	-50.338745	-41.701006
 960	9.6000e-001	-49.270630	-41.528304
 961	9.6100e-001	-48.164368	-41.335728
 962	9.6200e-001	-46.859741	-41.166453
 963	9.6300e-001	-45.692444	-40.965652
 964	9.6400e-001	-44.395447	-40.769649
 965	9.6500e-001	-43.312073	-40.548289
 966	9.6600e-001	-42.060852	-40.319391
 967	9.6700e-001	-40.725708	-40.061708
 968	9.6800e-001	-39.588928	-39.799229
 969	9.6900e-001	-38.383484	-39.520302
 970	9.7000e-001	-37.239075	-39.232465
 971	9.7100e-001	-36.010742	-38.943943
 972	9.7200e-001	-34.835815	-38.625267
 973	9.7300e-001	-33.760071	-38.313444
 974	9.7400e-001	-32.501221	-37.941998
 975	9.7500e-001	-31.127930	-37.569866
 976	9.7600e-001	-30.174255	-37.155930
 977	9.7700e-001	-29.060364	-36.740623
 978	9.7800e-001	-27.847290	-36.308868
 979	9.7900e-001	-26.351929	-35.847644
 980	9.8000e-001	-25.390625	-35.372714
 981	9.8100e-001	-24.009705	-34.851182
 982	9.8200e-001	-23.170471	-34.315257
 983	9.8300e-001	-21.896362	-33.768368
 984	9.8400e-001	-20.561218	-33.152261
 985	9.8500e-001	-19.615173	-32.541636
 986	9.8600e-001	-18.028259	-31.891262
 987	9.8700e-001	-16.929626	-31.224441
 988	9.8800e-001	-15.602112	-30.512388
 989	9.8900e-001	-14.358521	-29.785258
 990	9.9000e-001	-13.542175	-29.030030
 991	9.9100e-001	-11.970520	-28.236423
 992	9.9200e-001	-10.894775	-27.412663
 993	9.9300e-001	-9.895325	-26.561489
 994	9.9400e-001	-8.438110	-25.682902
 995	9.9500e-001	-7.194519	-24.783070
 996	9.9600e-001	-5.996704	-23.838692
 997	9.9700e-001	-4.814148	-22.899111
 998	9.9800e-001	-3.768921	-21.879347
 999	9.9900e-001	-2.655029	-20.912354
1000	1.0000e+000	-1.251221	-19.877513
1001	1.0010e+000	-0.122070	-18.813203
1002	1.0020e+000	0.679016	-17.749578
1003	1.0030e+000	2.174377	-16.681842
1004	1.0040e+000	3.196716	-15.572986
1005	1.0050e+000	4.554749	-14.473724
1006	1.0060e+000	5.867004	-13.362127
1007	1.0070e+000	7.095337	-12.251900
1008	1.0080e+000	8.316040	-11.132764
1009	1.0090e+000	9.529114	-10.017740
1010	1.0100e+000	10.452271	-8.908199
1011	1.0110e+000	11.772156	-7.830182
1012	1.0120e+000	13.320923	-6.772726
1013	1.0130e+000	14.198303	-5.739941
1014	1.0140e+000	15.594482	-4.751702
1015	1.0150e+000	16.807556	-3.846387
1016	1.0160e+000	17.890930	-2.989046
1017	1.0170e+000	19.081116	-2.235188
1018	1.0180e+000	20.408630	-1.563569
1019	1.0190e+000	21.347046	-0.987896
1020	1.0200e+000	22.636414	-0.547917
1021	1.0210e+000	23.841858	-0.183324
1022	1.0220e+000	25.276184	0.100400
1023	1.0230e+000	26.252747	0.346432
1024	1.0240e+000	27.442932	0.542435
1025	1.0250e+000	28.686523	0.745291
1026	1.0260e+000	30.120850	0.917308
1027	1.0270e+000	31.204224	1.097548
1028	1.0280e+000	32.409668	1.268194
1029	1.0290e+000	33.416748	1.451176
1030	1.0300e+000	34.965515	1.635528
1031	1.0310e+000	36.056519	1.790412
1032	1.0320e+000	37.094116	1.963114
1033	1.0330e+000	38.368225	2.139242
1034	1.0340e+000	39.505005	2.310574
1035	1.0350e+000	40.718079	2.471625
1036	1.0360e+000	42.175293	2.655292
1037	1.0370e+000	43.029785	2.832106
1038	1.0380e+000	44.357300	3.004808
1039	1.0390e+000	45.532227	3.156265
1040	1.0400e+000	46.783447	3.316631
1041	1.0410e+000	48.004150	3.486592
1042	1.0420e+000	49.110413	3.649014
1043	1.0430e+000	50.392151	3.811436
1044	1.0440e+000	51.658630	3.985508
1045	1.0450e+000	52.673340	4.148616
1046	1.0460e+000	53.855896	4.311723
1047	1.0470e+000	55.328369	4.470718
1048	1.0480e+000	56.564331	4.641364
1049	1.0490e+000	57.609558	4.805842
1050	1.0500e+000	58.746338	4.972376
1051	1.0510e+000	60.012817	5.157414
1052	1.0520e+000	61.027527	5.337655
1053	1.0530e+000	62.263489	5.520637
1054	1.0540e+000	63.476563	5.710472
1055	1.0550e+000	64.758301	5.877006
1056	1.0560e+000	65.811157	6.064785
1057	1.0570e+000	67.146301	6.254620
1058	1.0580e+000	68.260193	6.452679
1059	1.0590e+000	69.404602	6.662388
1060	1.0600e+000	70.732117	6.856335
1061	1.0610e+000	71.922302	7.079066
1062	1.0620e+000	73.524475	7.281922
1063	1.0630e+000	74.523926	7.520415
1064	1.0640e+000	75.866699	7.725328
1065	1.0650e+000	76.316833	7.967247
1066	1.0660e+000	77.987671	8.211908
1067	1.0670e+000	79.154968	8.462737
1068	1.0680e+000	80.284119	8.731385
1069	1.0690e+000	81.665039	8.984955
1070	1.0700e+000	82.725525	9.265253
1071	1.0710e+000	84.045410	9.559258
1072	1.0720e+000	85.350037	9.832017
1073	1.0730e+000	86.418152	10.134245
1074	1.0740e+000	87.707520	10.433732
1075	1.0750e+000	88.676453	10.748982
1076	1.0760e+000	90.095520	11.064232
1077	1.0770e+000	90.972900	11.403468
1078	1.0780e+000	92.361450	11.749557
1079	1.0790e+000	93.437195	12.097702
1080	1.0800e+000	94.688416	12.479428
1081	1.0810e+000	95.802307	12.848133
1082	1.0820e+000	96.977234	13.233971
1083	1.0830e+000	98.297119	13.617753
1084	1.0840e+000	99.411011	14.026892
1085	1.0850e+000	100.524902	14.446996
1086	1.0860e+000	102.111816	14.886975
1087	1.0870e+000	103.027344	15.335863
1088	1.0880e+000	104.484558	15.782010
1089	1.0890e+000	105.735779	16.258996
1090	1.0900e+000	106.864929	16.714052
1091	1.0910e+000	108.024597	17.199262
1092	1.0920e+000	109.153748	17.687214
1093	1.0930e+000	109.954834	18.196410
1094	1.0940e+000	111.473083	18.702180
1095	1.0950e+000	112.739563	19.240160
1096	1.0960e+000	114.051819	19.777455
1097	1.0970e+000	115.089417	20.312009
1098	1.0980e+000	116.378784	20.867122
1099	1.0990e+000	117.561340	21.427033
1100	1.1000e+000	118.759155	22.002706
1101	1.1010e+000	120.025635	22.563987
1102	1.1020e+000	120.979309	23.156793
1103	1.1030e+000	122.558594	23.748229
1104	1.1040e+000	123.542786	24.346518
1105	1.1050e+000	125.000000	24.924932
1106	1.1060e+000	126.380920	25.552005
1107	1.1070e+000	127.250671	26.166056
1108	1.1080e+000	128.227234	26.755436
1109	1.1090e+000	129.539490	27.364004
1110	1.1100e+000	130.554199	27.968461
1111	1.1110e+000	131.927490	28.596219
1112	1.1120e+000	133.186340	29.215068
1113	1.1130e+000	133.979797	29.839399
1114	1.1140e+000	135.543823	30.429464
1115	1.1150e+000	136.840820	31.042144
1116	1.1160e+000	137.901306	31.653454
1117	1.1170e+000	139.045715	32.231184
1118	1.1180e+000	140.312195	32.838382
1119	1.1190e+000	141.548157	33.431873
1120	1.1200e+000	142.684937	33.997266
1121	1.1210e+000	143.775940	34.594185
1122	1.1220e+000	145.133972	35.164375
1123	1.1230e+000	146.553040	35.728398
1124	1.1240e+000	147.819519	36.275972
1125	1.1250e+000	148.719788	36.825603
1126	1.1260e+000	149.871826	37.379346
1127	1.1270e+000	151.397705	37.916641
1128	1.1280e+000	152.580261	38.429949
1129	1.1290e+000	153.442383	38.947370
1130	1.1300e+000	154.869080	39.435321
1131	1.1310e+000	156.097412	39.923958
1132	1.1320e+000	157.135010	40.400944
1133	1.1330e+000	158.271790	40.861483
1134	1.1340e+000	159.553528	41.327504
1135	1.1350e+000	161.003113	41.777763
1136	1.1360e+000	161.872864	42.169769
1137	1.1370e+000	163.246155	42.578222
1138	1.1380e+000	164.520264	42.966116
1139	1.1390e+000	165.458679	43.340989
1140	1.1400e+000	166.793823	43.687078
1141	1.1410e+000	167.984009	44.044818
1142	1.1420e+000	169.349670	44.363494
1143	1.1430e+000	170.516968	44.691080
1144	1.1440e+000	171.760559	44.970007
1145	1.1450e+000	172.996521	45.286627
1146	1.1460e+000	174.011230	45.551163
1147	1.1470e+000	175.201416	45.820496
1148	1.1480e+000	176.414490	46.054877
1149	1.1490e+000	177.696228	46.293370
1150	1.1500e+000	178.733826	46.514045
1151	1.1510e+000	179.893494	46.728551
1152	1.1520e+000	181.114197	46.922498
1153	1.1530e+000	182.289124	47.135634
1154	1.1540e+000	183.662415	47.306966
1155	1.1550e+000	185.096741	47.473500
1156	1.1560e+000	185.882568	47.657167
1157	1.1570e+000	186.935425	47.813421
1158	1.1580e+000	188.171387	47.976528
1159	1.1590e+000	189.582825	48.127985
1160	1.1600e+000	190.788269	48.267106
1161	1.1610e+000	191.802979	48.412395
1162	1.1620e+000	192.863464	48.540551
1163	1.1630e+000	194.427490	48.663224
1164	1.1640e+000	195.388794	48.801660
1165	1.1650e+000	196.701050	48.898291
1166	1.1660e+000	197.921753	49.029873
1167	1.1670e+000	199.165344	49.125819
1168	1.1680e+000	200.462341	49.227247
1169	1.1690e+000	201.774597	49.353347
1170	1.1700e+000	202.789307	49.452033
1171	1.1710e+000	204.078674	49.551406
1172	1.1720e+000	205.062866	49.629533
1173	1.1730e+000	206.474304	49.731646
1174	1.1740e+000	207.633972	49.823480
1175	1.1750e+000	208.839417	49.907089
1176	1.1760e+000	210.083008	49.995496
1177	1.1770e+000	211.280823	50.073623
1178	1.1780e+000	212.486267	50.147638
1179	1.1790e+000	213.645935	50.250437
1180	1.1800e+000	214.775085	50.315543
1181	1.1810e+000	215.988159	50.402579
1182	1.1820e+000	217.086792	50.463573
1183	1.1830e+000	218.513489	50.521826
1184	1.1840e+000	219.551086	50.605436
1185	1.1850e+000	220.809937	50.666430
1186	1.1860e+000	222.068787	50.734277
1187	1.1870e+000	223.365784	50.814460
1188	1.1880e+000	224.662781	50.867915
1189	1.1890e+000	225.662231	50.931650
1190	1.1900e+000	226.737976	50.995386
1191	1.1910e+000	227.973938	51.059121
1192	1.1920e+000	229.438782	51.097499
1193	1.1930e+000	230.590820	51.160549
1194	1.1940e+000	231.636047	51.237305
1195	1.1950e+000	232.955933	51.285278
1196	1.1960e+000	234.016418	51.337363
1197	1.1970e+000	235.534668	51.394930
1198	1.1980e+000	236.473083	51.440847
1199	1.1990e+000	237.762451	51.504582
1200	1.2000e+000	238.800049	51.545702
1201	1.2010e+000	239.982605	51.598472
1202	1.2020e+000	241.355896	51.655354
1203	1.2030e+000	242.393494	51.696473
1204	1.2040e+000	243.980408	51.752670
1205	1.2050e+000	244.773865	51.799272
1206	1.2060e+000	245.933533	51.856154
1207	1.2070e+000	247.383118	51.904812
1208	1.2080e+000	248.558044	51.939078
1209	1.2090e+000	249.755859	51.999387
1210	1.2100e+000	250.831604	52.035709
1211	1.2110e+000	252.143860	52.079570
1212	1.2120e+000	253.234863	52.138508
1213	1.2130e+000	254.547119	52.176201
1214	1.2140e+000	255.729675	52.214579
1215	1.2150e+000	256.935120	52.259125
1216	1.2160e+000	258.018494	52.304357
1217	1.2170e+000	259.490967	52.353700
1218	1.2180e+000	260.528564	52.394134
1219	1.2190e+000	261.596680	52.444163
1220	1.2200e+000	262.908936	52.485282
1221	1.2210e+000	263.839722	52.513381
1222	1.2220e+000	265.129089	52.559298
1223	1.2230e+000	266.227722	52.596990
1224	1.2240e+000	267.601013	52.662782
1225	1.2250e+000	268.806458	52.693621
1226	1.2260e+000	269.935608	52.735426
1227	1.2270e+000	271.423340	52.769007
1228	1.2280e+000	272.315979	52.812183
1229	1.2290e+000	273.529053	52.856729
1230	1.2300e+000	274.841309	52.906757
1231	1.2310e+000	276.130676	52.934856
1232	1.2320e+000	277.610779	52.982143
1233	1.2330e+000	278.511047	53.018465
1234	1.2340e+000	279.632568	53.049305
1235	1.2350e+000	280.670166	53.090425
1236	1.2360e+000	281.944275	53.132915
1237	1.2370e+000	283.271790	53.178146
1238	1.2380e+000	284.332275	53.198021
1239	1.2390e+000	285.575867	53.258329
1240	1.2400e+000	287.109375	53.291910
1241	1.2410e+000	288.063049	53.330974
1242	1.2420e+000	289.390564	53.371408
1243	1.2430e+000	290.679932	53.407730
1244	1.2440e+000	291.496277	53.444052
1245	1.2450e+000	292.945862	53.479689
1246	1.2460e+000	294.013977	53.524235
1247	1.2470e+000	295.097351	53.558502
1248	1.2480e+000	296.401978	53.598250
1249	1.2490e+000	297.630310	53.640055
1250	1.2500e+000	298.858643	53.675007
1251	1.2510e+000	300.041199	53.716812
1252	1.2520e+000	298.744202	53.694196
1253	1.2530e+000	297.607422	53.654447
1254	1.2540e+000	296.600342	53.642111
1255	1.2550e+000	295.440674	53.627719
1256	1.2560e+000	294.059753	53.603733
1257	1.2570e+000	292.839050	53.577691
1258	1.2580e+000	291.740417	53.547536
1259	1.2590e+000	290.451050	53.516011
1260	1.2600e+000	289.268494	53.494766
1261	1.2610e+000	288.352966	53.474207
1262	1.2620e+000	286.842346	53.457759
1263	1.2630e+000	285.621643	53.432402
1264	1.2640e+000	284.637451	53.381688
1265	1.2650e+000	283.340454	53.370037
1266	1.2660e+000	282.051086	53.333030
1267	1.2670e+000	280.746460	53.315211
1268	1.2680e+000	279.724121	53.274092
1269	1.2690e+000	278.343201	53.265182
1270	1.2700e+000	277.175903	53.223378
1271	1.2710e+000	276.184082	53.189797
1272	1.2720e+000	274.604797	53.164440
1273	1.2730e+000	273.712158	53.143880
1274	1.2740e+000	272.514343	53.113726
1275	1.2750e+000	271.415710	53.071235
1276	1.2760e+000	270.217896	53.042452
1277	1.2770e+000	268.768311	53.021207
1278	1.2780e+000	267.662048	53.012983
1279	1.2790e+000	266.380310	52.964325
1280	1.2800e+000	265.357971	52.936226
1281	1.2810e+000	263.999939	52.906072
1282	1.2820e+000	262.794495	52.869065
1283	1.2830e+000	261.558533	52.827945
1284	1.2840e+000	260.276794	52.822462
1285	1.2850e+000	259.201050	52.804644
1286	1.2860e+000	258.064270	52.764210
1287	1.2870e+000	256.721497	52.726517
1288	1.2880e+000	255.630493	52.695677
1289	1.2890e+000	254.463196	52.669635
1290	1.2900e+000	253.387451	52.629886
1291	1.2910e+000	252.029419	52.601102
1292	1.2920e+000	250.862122	52.577801
1293	1.2930e+000	249.664307	52.552444
1294	1.2940e+000	248.252869	52.516122
1295	1.2950e+000	247.184753	52.490080
1296	1.2960e+000	246.284485	52.456499
1297	1.2970e+000	244.857788	52.409211
1298	1.2980e+000	243.736267	52.378372
1299	1.2990e+000	242.668152	52.356441
1300	1.3000e+000	241.134644	52.332455
1301	1.3010e+000	240.081787	52.290650
1302	1.3020e+000	238.929749	52.252957
1303	1.3030e+000	237.380981	52.218006
1304	1.3040e+000	236.442566	52.184425
1305	1.3050e+000	235.260010	52.153585
1306	1.3060e+000	234.024048	52.114522
1307	1.3070e+000	233.100891	52.087794
1308	1.3080e+000	231.544495	52.068605
1309	1.3090e+000	230.117798	52.031597
1310	1.3100e+000	229.202271	52.010352
1311	1.3110e+000	227.928162	51.958267
1312	1.3120e+000	226.806641	51.924001
1313	1.3130e+000	225.608826	51.871231
1314	1.3140e+000	224.433899	51.856154
1315	1.3150e+000	223.136902	51.821202
1316	1.3160e+000	222.091675	51.782139
1317	1.3170e+000	220.680237	51.756097
1318	1.3180e+000	219.558716	51.713606
1319	1.3190e+000	218.330383	51.696473
1320	1.3200e+000	217.582703	51.642333
1321	1.3210e+000	215.873718	51.601898
1322	1.3220e+000	214.668274	51.563520
1323	1.3230e+000	213.630676	51.530625
1324	1.3240e+000	212.371826	51.492932
1325	1.3250e+000	211.090088	51.466889
1326	1.3260e+000	210.136414	51.432623
1327	1.3270e+000	208.580017	51.400413
1328	1.3280e+000	207.550049	51.348328
1329	1.3290e+000	206.336975	51.329139
1330	1.3300e+000	205.352783	51.287334
1331	1.3310e+000	203.865051	51.239361
1332	1.3320e+000	202.880859	51.211948
1333	1.3330e+000	201.744080	51.181109
1334	1.3340e+000	200.561523	51.137933
1335	1.3350e+000	199.157715	51.100926
1336	1.3360e+000	197.990417	51.064603
1337	1.3370e+000	196.830750	51.022799
1338	1.3380e+000	195.503235	50.978938
1339	1.3390e+000	194.091797	50.943986
1340	1.3400e+000	193.038940	50.920000
1341	1.3410e+000	191.894531	50.872712
1342	1.3420e+000	190.696716	50.836390
1343	1.3430e+000	189.605713	50.794585
1344	1.3440e+000	188.430786	50.771970
1345	1.3450e+000	187.278748	50.715773
1346	1.3460e+000	186.241150	50.686989
1347	1.3470e+000	184.654236	50.644499
1348	1.3480e+000	183.670044	50.593785
1349	1.3490e+000	182.197571	50.556778
1350	1.3500e+000	181.427002	50.521141
1351	1.3510e+000	180.198669	50.477965
1352	1.3520e+000	178.741455	50.439587
1353	1.3530e+000	177.825928	50.410803
1354	1.3540e+000	176.834106	50.357348
1355	1.3550e+000	175.338745	50.325138
1356	1.3560e+000	174.034119	50.258661
1357	1.3570e+000	172.630310	50.230563
1358	1.3580e+000	171.768188	50.185331
1359	1.3590e+000	170.478821	50.153806
1360	1.3600e+000	169.113159	50.109946
1361	1.3610e+000	167.846680	50.079791
1362	1.3620e+000	166.709900	50.051693
1363	1.3630e+000	165.275574	49.987958
1364	1.3640e+000	164.176941	49.946153
1365	1.3650e+000	163.360596	49.892697
1366	1.3660e+000	161.941528	49.864599
1367	1.3670e+000	160.728455	49.824850
1368	1.3680e+000	159.568787	49.779619
1369	1.3690e+000	158.447266	49.725478
1370	1.3700e+000	157.447815	49.692583
1371	1.3710e+000	156.021118	49.649407
1372	1.3720e+000	154.991150	49.578133
1373	1.3730e+000	153.800964	49.549350
1374	1.3740e+000	152.328491	49.516454
1375	1.3750e+000	151.237488	49.471223
1376	1.3760e+000	150.184631	49.426676
1377	1.3770e+000	148.811340	49.365682
1378	1.3780e+000	147.506714	49.340325
1379	1.3790e+000	146.492004	49.287555
1380	1.3800e+000	145.256042	49.229303
1381	1.3810e+000	144.088745	49.182701
1382	1.3820e+000	142.845154	49.136784
1383	1.3830e+000	141.456604	49.097720
1384	1.3840e+000	140.373230	49.044950
1385	1.3850e+000	139.190674	48.998348
1386	1.3860e+000	138.114929	48.955173
1387	1.3870e+000	137.016296	48.925018
1388	1.3880e+000	135.459900	48.865395
1389	1.3890e+000	134.368896	48.818108
1390	1.3900e+000	133.171082	48.766023
1391	1.3910e+000	132.003784	48.724218
1392	1.3920e+000	131.080627	48.670077
1393	1.3930e+000	129.547119	48.628273
1394	1.3940e+000	128.257751	48.564537
1395	1.3950e+000	127.197266	48.504914
1396	1.3960e+000	126.144409	48.482298
1397	1.3970e+000	124.900818	48.418563
1398	1.3980e+000	123.626709	48.372646
1399	1.3990e+000	122.360229	48.312338
1400	1.4000e+000	121.543884	48.265736
1401	1.4010e+000	120.277405	48.215707
1402	1.4020e+000	118.904114	48.168419
1403	1.4030e+000	117.454529	48.101258
1404	1.4040e+000	116.455078	48.063565
1405	1.4050e+000	115.287781	48.001200
1406	1.4060e+000	114.074707	47.938836
1407	1.4070e+000	112.907410	47.892919
1408	1.4080e+000	111.679077	47.847687
1409	1.4090e+000	110.351563	47.783952
1410	1.4100e+000	109.245300	47.723643
1411	1.4110e+000	108.001709	47.675671
1412	1.4120e+000	106.880188	47.616047
1413	1.4130e+000	105.758667	47.554368
1414	1.4140e+000	104.492188	47.493374
1415	1.4150e+000	103.172302	47.437178
1416	1.4160e+000	102.088928	47.379610
1417	1.4170e+000	100.975037	47.311078
1418	1.4180e+000	99.639893	47.260364
1419	1.4190e+000	98.541260	47.198684
1420	1.4200e+000	97.053528	47.124669
1421	1.4210e+000	96.244812	47.073270
1422	1.4220e+000	94.978333	47.009535
1423	1.4230e+000	93.475342	46.946485
1424	1.4240e+000	92.658997	46.885491
1425	1.4250e+000	91.171265	46.811476
1426	1.4260e+000	90.202332	46.744314
1427	1.4270e+000	88.829041	46.686061
1428	1.4280e+000	87.699890	46.620955
1429	1.4290e+000	86.265564	46.550367
1430	1.4300e+000	85.037231	46.482520
1431	1.4310e+000	84.068298	46.411246
1432	1.4320e+000	82.572937	46.344084
1433	1.4330e+000	81.619263	46.264586
1434	1.4340e+000	80.413818	46.205648
1435	1.4350e+000	78.956604	46.121353
1436	1.4360e+000	78.155518	46.045968
1437	1.4370e+000	76.774597	45.964414
1438	1.4380e+000	75.630188	45.893140
1439	1.4390e+000	74.485779	45.808845
1440	1.4400e+000	73.371887	45.717697
1441	1.4410e+000	71.952820	45.632716
1442	1.4420e+000	70.808411	45.544310
1443	1.4430e+000	69.572449	45.447679
1444	1.4440e+000	68.351746	45.373664
1445	1.4450e+000	67.344666	45.274291
1446	1.4460e+000	65.917969	45.172863
1447	1.4470e+000	64.994812	45.068009
1448	1.4480e+000	63.598633	44.964524
1449	1.4490e+000	62.576294	44.860355
1450	1.4500e+000	61.088562	44.750703
1451	1.4510e+000	60.043335	44.645848
1452	1.4520e+000	58.723450	44.543735
1453	1.4530e+000	57.395935	44.425859
1454	1.4540e+000	56.320190	44.290850
1455	1.4550e+000	55.236816	44.157897
1456	1.4560e+000	53.993225	44.013979
1457	1.4570e+000	52.589417	43.885137
1458	1.4580e+000	51.887512	43.730939
1459	1.4590e+000	50.346375	43.586336
1460	1.4600e+000	49.232483	43.441732
1461	1.4610e+000	47.851563	43.295072
1462	1.4620e+000	46.943665	43.121000
1463	1.4630e+000	45.623779	42.936647
1464	1.4640e+000	44.631958	42.748868
1465	1.4650e+000	43.037415	42.565887
1466	1.4660e+000	42.045593	42.360974
1467	1.4670e+000	40.657043	42.136188
1468	1.4680e+000	39.710999	41.946353
1469	1.4690e+000	38.398743	41.718139
1470	1.4700e+000	37.467957	41.487185
1471	1.4710e+000	35.896301	41.213055
1472	1.4720e+000	34.744263	40.971135
1473	1.4730e+000	33.836365	40.698376
1474	1.4740e+000	32.341003	40.415336
1475	1.4750e+000	30.967712	40.121332
1476	1.4760e+000	30.006409	39.828013
1477	1.4770e+000	28.770447	39.505224
1478	1.4780e+000	27.526855	39.150226
1479	1.4790e+000	26.618958	38.805508
1480	1.4800e+000	24.978638	38.436803
1481	1.4810e+000	23.963928	38.039999
1482	1.4820e+000	22.850037	37.658273
1483	1.4830e+000	21.652222	37.231316
1484	1.4840e+000	20.408630	36.811897
1485	1.4850e+000	19.233704	36.365750
1486	1.4860e+000	17.890930	35.919603
1487	1.4870e+000	16.799927	35.393959
1488	1.4880e+000	15.708923	34.883392
1489	1.4890e+000	14.320374	34.361174
1490	1.4900e+000	13.244629	33.794410
1491	1.4910e+000	12.084961	33.212569
1492	1.4920e+000	10.757446	32.618392
1493	1.4930e+000	9.391785	32.013935
1494	1.4940e+000	8.369446	31.375212
1495	1.4950e+000	7.026672	30.702909
1496	1.4960e+000	6.088257	30.006618
1497	1.4970e+000	4.669189	29.297307
1498	1.4980e+000	3.448486	28.559211
1499	1.4990e+000	2.532959	27.801927
1500	1.5000e+000	1.327515	27.017230
1501	1.5010e+000	0.022888	26.203064
1502	1.5020e+000	-0.991821	25.399863
1503	1.5030e+000	-2.014160	24.554857
1504	1.5040e+000	-3.433228	23.698886
1505	1.5050e+000	-4.913330	22.803166
1506	1.5060e+000	-5.836487	21.895795
1507	1.5070e+000	-7.125854	20.975404
1508	1.5080e+000	-8.369446	20.044047
1509	1.5090e+000	-9.391785	19.072256
1510	1.5100e+000	-10.566711	18.118968
1511	1.5110e+000	-11.756897	17.151289
1512	1.5120e+000	-12.886047	16.142491
1513	1.5130e+000	-14.427185	15.152196
1514	1.5140e+000	-15.342712	14.159160
1515	1.5150e+000	-16.639709	13.179145
1516	1.5160e+000	-17.822266	12.197759
1517	1.5170e+000	-19.050598	11.201982
1518	1.5180e+000	-20.156860	10.237044
1519	1.5190e+000	-21.606445	9.292666
1520	1.5200e+000	-22.933960	8.381869
1521	1.5210e+000	-23.651123	7.484093
1522	1.5220e+000	-25.108337	6.634975
1523	1.5230e+000	-26.191711	5.816697
1524	1.5240e+000	-27.481079	5.053245
1525	1.5250e+000	-28.564453	4.315150
1526	1.5260e+000	-29.655457	3.638734
1527	1.5270e+000	-30.929565	3.004123
1528	1.5280e+000	-32.066345	2.442841
1529	1.5290e+000	-33.493042	1.921309
1530	1.5300e+000	-34.523010	1.448435
1531	1.5310e+000	-35.964966	0.999547
1532	1.5320e+000	-37.109375	0.618506
1533	1.5330e+000	-38.391113	0.273787
1534	1.5340e+000	-39.314270	-0.053798
1535	1.5350e+000	-40.863037	-0.324501
1536	1.5360e+000	-41.969299	-0.608911
1537	1.5370e+000	-43.304443	-0.850831
1538	1.5380e+000	-44.586182	-1.096178
1539	1.5390e+000	-45.562744	-1.315482
1540	1.5400e+000	-46.806335	-1.529303
1541	1.5410e+000	-48.240662	-1.728733
1542	1.5420e+000	-49.186707	-1.929533
1543	1.5430e+000	-50.239563	-2.122795
1544	1.5440e+000	-51.605225	-2.324280
1545	1.5450e+000	-52.680969	-2.518913
1546	1.5460e+000	-54.115295	-2.691614
1547	1.5470e+000	-55.046082	-2.880764
1548	1.5480e+000	-56.259155	-3.078823
1549	1.5490e+000	-57.601929	-3.253581
1550	1.5500e+000	-58.593750	-3.449584
1551	1.5510e+000	-59.921265	-3.629825
1552	1.5520e+000	-61.210632	-3.832681
1553	1.5530e+000	-62.446594	-4.019775
1554	1.5540e+000	-63.583374	-4.232225
1555	1.5550e+000	-64.689636	-4.426858
1556	1.5560e+000	-65.864563	-4.621490
1557	1.5570e+000	-67.283630	-4.831885
1558	1.5580e+000	-68.367004	-5.032685
1559	1.5590e+000	-69.633484	-5.248563
1560	1.5600e+000	-70.663452	-5.453475
1561	1.5610e+000	-72.090149	-5.684429
1562	1.5620e+000	-73.104858	-5.913328
1563	1.5630e+000	-74.432373	-6.149765
1564	1.5640e+000	-75.569153	-6.399909
1565	1.5650e+000	-76.988220	-6.623325
1566	1.5660e+000	-78.140259	-6.894713
1567	1.5670e+000	-79.193115	-7.122927
1568	1.5680e+000	-80.299377	-7.406651
1569	1.5690e+000	-81.535339	-7.673243
1570	1.5700e+000	-82.626343	-7.968618
1571	1.5710e+000	-83.938599	-8.239321
1572	1.5720e+000	-85.220337	-8.530585
1573	1.5730e+000	-86.288452	-8.834184
1574	1.5740e+000	-87.623596	-9.143951
1575	1.5750e+000	-88.729858	-9.485928
1576	1.5760e+000	-90.072632	-9.799807
1577	1.5770e+000	-91.423035	-10.132875
1578	1.5780e+000	-92.491150	-10.475537
1579	1.5790e+000	-93.429565	-10.839445
1580	1.5800e+000	-94.673157	-11.202667
1581	1.5810e+000	-95.985413	-11.583023
1582	1.5820e+000	-97.152710	-11.979826
1583	1.5830e+000	-98.518372	-12.371147
1584	1.5840e+000	-99.510193	-12.793992
1585	1.5850e+000	-100.784302	-13.212726
1586	1.5860e+000	-101.684570	-13.651334
1587	1.5870e+000	-102.905273	-14.097481
1588	1.5880e+000	-104.339600	-14.551851
1589	1.5890e+000	-105.781555	-15.023355
1590	1.5900e+000	-106.933594	-15.493488
1591	1.5910e+000	-108.093262	-15.991034
1592	1.5920e+000	-109.031677	-16.513937
1593	1.5930e+000	-110.557556	-17.039581
1594	1.5940e+000	-111.701965	-17.576191
1595	1.5950e+000	-112.518311	-18.139528
1596	1.5960e+000	-114.158630	-18.678879
1597	1.5970e+000	-115.203857	-19.261405
1598	1.5980e+000	-116.455078	-19.845988
1599	1.5990e+000	-117.630005	-20.450445
1600	1.6000e+000	-118.759155	-21.069293
1601	1.6010e+000	-119.812012	-21.700478
1602	1.6020e+000	-121.215820	-22.341942
1603	1.6030e+000	-122.268677	-23.000539
1604	1.6040e+000	-123.634338	-23.665990
1605	1.6050e+000	-124.938965	-24.354742
1606	1.6060e+000	-126.083374	-25.018822
1607	1.6070e+000	-127.204895	-25.732931
1608	1.6080e+000	-128.166199	-26.446354
1609	1.6090e+000	-129.524231	-27.163204
1610	1.6100e+000	-130.966187	-27.886908
1611	1.6110e+000	-132.133484	-28.622947
1612	1.6120e+000	-133.415222	-29.375434
1613	1.6130e+000	-134.185791	-30.111473
1614	1.6140e+000	-135.696411	-30.843400
1615	1.6150e+000	-136.657715	-31.589034
1616	1.6160e+000	-138.214111	-32.323017
1617	1.6170e+000	-139.091492	-33.051518
1618	1.6180e+000	-140.205383	-33.780704
1619	1.6190e+000	-141.632080	-34.509204
1620	1.6200e+000	-142.730713	-35.221942
1621	1.6210e+000	-144.012451	-35.962094
1622	1.6220e+000	-145.233154	-36.630286
1623	1.6230e+000	-146.614075	-37.306016
1624	1.6240e+000	-147.712708	-37.974893
1625	1.6250e+000	-148.849487	-38.617043
1626	1.6260e+000	-149.925232	-39.240004
1627	1.6270e+000	-151.046753	-39.845831
1628	1.6280e+000	-152.328491	-40.434525
1629	1.6290e+000	-153.564453	-41.001975
1630	1.6300e+000	-154.701233	-41.520080
1631	1.6310e+000	-156.311035	-42.040927
1632	1.6320e+000	-157.356262	-42.513116
1633	1.6330e+000	-158.485413	-42.966116
1634	1.6340e+000	-159.469604	-43.384850
1635	1.6350e+000	-160.926819	-43.798101
1636	1.6360e+000	-161.972046	-44.143505
1637	1.6370e+000	-163.261414	-44.512895
1638	1.6380e+000	-164.443970	-44.837739
1639	1.6390e+000	-165.657043	-45.139282
1640	1.6400e+000	-166.732788	-45.409300
1641	1.6410e+000	-168.075562	-45.666297
1642	1.6420e+000	-169.021606	-45.911644
1643	1.6430e+000	-170.532227	-46.149452
1644	1.6440e+000	-171.493530	-46.372182
1645	1.6450e+000	-172.760010	-46.553108
1646	1.6460e+000	-173.736572	-46.751852
1647	1.6470e+000	-175.399780	-46.914274
1648	1.6480e+000	-176.383972	-47.084920
1649	1.6490e+000	-177.589417	-47.232951
1650	1.6500e+000	-178.825378	-47.385093
1651	1.6510e+000	-179.885864	-47.539976
1652	1.6520e+000	-181.304932	-47.650999
1653	1.6530e+000	-182.456970	-47.781896
1654	1.6540e+000	-183.853149	-47.896345
1655	1.6550e+000	-184.806824	-48.009424
1656	1.6560e+000	-186.103821	-48.119076
1657	1.6570e+000	-187.210083	-48.223931
1658	1.6580e+000	-188.552856	-48.315764
1659	1.6590e+000	-189.689636	-48.419934
1660	1.6600e+000	-190.742493	-48.524103
1661	1.6610e+000	-192.207336	-48.622790
1662	1.6620e+000	-193.389893	-48.709826
1663	1.6630e+000	-194.465637	-48.782471
1664	1.6640e+000	-195.457458	-48.873619
1665	1.6650e+000	-196.884155	-48.948319
1666	1.6660e+000	-198.196411	-49.038097
1667	1.6670e+000	-199.249268	-49.110056
1668	1.6680e+000	-200.469971	-49.191610
1669	1.6690e+000	-201.721191	-49.278646
1670	1.6700e+000	-202.819824	-49.365682
1671	1.6710e+000	-203.910828	-49.438327
1672	1.6720e+000	-205.261230	-49.513713
1673	1.6730e+000	-206.703186	-49.572651
1674	1.6740e+000	-207.778931	-49.630903
1675	1.6750e+000	-208.831787	-49.707660
1676	1.6760e+000	-210.235596	-49.778934
1677	1.6770e+000	-211.303711	-49.850893
1678	1.6780e+000	-211.997986	-49.931761
1679	1.6790e+000	-213.836670	-49.990014
1680	1.6800e+000	-215.118408	-50.052378
1681	1.6810e+000	-216.171265	-50.121596
1682	1.6820e+000	-217.109680	-50.175051
1683	1.6830e+000	-218.582153	-50.233989
1684	1.6840e+000	-219.680786	-50.301837
1685	1.6850e+000	-220.840454	-50.372425
1686	1.6860e+000	-222.351074	-50.441643
1687	1.6870e+000	-223.373413	-50.507434
1688	1.6880e+000	-224.426270	-50.558834
1689	1.6890e+000	-225.807190	-50.627366
1690	1.6900e+000	-226.806641	-50.669171
1691	1.6910e+000	-228.057861	-50.736333
1692	1.6920e+000	-229.148865	-50.793215
1693	1.6930e+000	-230.300903	-50.859006
1694	1.6940e+000	-231.475830	-50.920000
1695	1.6950e+000	-232.940674	-50.982364
1696	1.6960e+000	-234.069824	-51.044729
1697	1.6970e+000	-235.153198	-51.105038
1698	1.6980e+000	-236.404419	-51.140675
1699	1.6990e+000	-237.503052	-51.198927
1700	1.7000e+000	-238.899231	-51.258550
1701	1.7010e+000	-240.402222	-51.301726
1702	1.7020e+000	-241.394043	-51.366147
1703	1.7030e+000	-242.416382	-51.427140
1704	1.7040e+000	-243.713379	-51.480596
1705	1.7050e+000	-245.071411	-51.535422
1706	1.7060e+000	-245.834351	-51.570373
1707	1.7070e+000	-247.344971	-51.631367
1708	1.7080e+000	-248.489380	-51.674543
1709	1.7090e+000	-249.588013	-51.735537
1710	1.7100e+000	-250.770569	-51.779398
1711	1.7110e+000	-252.059937	-51.846559
1712	1.7120e+000	-253.540039	-51.900700
1713	1.7130e+000	-254.364014	-51.957582
1714	1.7140e+000	-255.470276	-52.002814
1715	1.7150e+000	-256.851196	-52.049416
1716	1.7160e+000	-258.033752	-52.104927
1717	1.7170e+000	-259.437561	-52.144676
1718	1.7180e+000	-260.437012	-52.189222
1719	1.7190e+000	-261.718750	-52.250216
1720	1.7200e+000	-262.924194	-52.309154
1721	1.7210e+000	-263.961792	-52.355071
1722	1.7220e+000	-265.274048	-52.396876
1723	1.7230e+000	-266.540527	-52.445534
1724	1.7240e+000	-267.700195	-52.481170
1725	1.7250e+000	-268.936157	-52.542164
1726	1.7260e+000	-270.095825	-52.582599
1727	1.7270e+000	-271.247864	-52.627145
1728	1.7280e+000	-272.796631	-52.687453
1729	1.7290e+000	-273.605347	-52.740223
1730	1.7300e+000	-274.963379	-52.795735
1731	1.7310e+000	-276.062012	-52.829316
1732	1.7320e+000	-277.465820	-52.863582
1733	1.7330e+000	-278.472900	-52.908813
1734	1.7340e+000	-279.624939	-52.958842
1735	1.7350e+000	-280.738831	-53.003388
1736	1.7360e+000	-281.829834	-53.059585
1737	1.7370e+000	-283.439636	-53.102760
1738	1.7380e+000	-284.652710	-53.154845
1739	1.7390e+000	-285.766602	-53.199391
1740	1.7400e+000	-287.017822	-53.234343
1741	1.7410e+000	-288.009644	-53.290539
1742	1.7420e+000	-289.215088	-53.317267
1743	1.7430e+000	-290.679932	-53.360443
1744	1.7440e+000	-291.580200	-53.420751
1745	1.7450e+000	-293.014526	-53.466668
1746	1.7460e+000	-293.998718	-53.511214
1747	1.7470e+000	-295.448303	-53.545480
1748	1.7480e+000	-296.432495	-53.594824
1749	1.7490e+000	-297.790527	-53.644853
1750	1.7500e+000	-298.927307	-53.675692
1751	1.7510e+000	-300.025940	-53.716812
1752	1.7520e+000	-298.942566	-53.688713
1753	1.7530e+000	-297.698975	-53.670895
1754	1.7540e+000	-296.508789	-53.662671
1755	1.7550e+000	-295.219421	-53.626349
1756	1.7560e+000	-293.807983	-53.598936
1757	1.7570e+000	-292.938232	-53.567411
1758	1.7580e+000	-291.702271	-53.534515
1759	1.7590e+000	-290.512085	-53.503676
1760	1.7600e+000	-289.283752	-53.472151
1761	1.7610e+000	-288.085938	-53.455703
1762	1.7620e+000	-286.697388	-53.435143
1763	1.7630e+000	-285.705566	-53.385114
1764	1.7640e+000	-284.416199	-53.373464
1765	1.7650e+000	-283.233643	-53.326862
1766	1.7660e+000	-282.043457	-53.291910
1767	1.7670e+000	-281.036377	-53.261070
1768	1.7680e+000	-279.769897	-53.236399
1769	1.7690e+000	-278.480530	-53.198706
1770	1.7700e+000	-277.183533	-53.174034
1771	1.7710e+000	-276.077271	-53.152104
1772	1.7720e+000	-274.856567	-53.115096
1773	1.7730e+000	-273.773193	-53.071921
1774	1.7740e+000	-272.445679	-53.050676
1775	1.7750e+000	-271.324158	-53.001332
1776	1.7760e+000	-269.920349	-52.972549
1777	1.7770e+000	-268.653870	-52.938282
1778	1.7780e+000	-267.601013	-52.893736
1779	1.7790e+000	-266.540527	-52.866323
1780	1.7800e+000	-265.357971	-52.839596
1781	1.7810e+000	-264.091492	-52.819036
1782	1.7820e+000	-262.969971	-52.775860
1783	1.7830e+000	-261.734009	-52.740909
1784	1.7840e+000	-260.635376	-52.699789
1785	1.7850e+000	-259.262085	-52.648390
1786	1.7860e+000	-258.415222	-52.620291
1787	1.7870e+000	-256.958008	-52.594934
1788	1.7880e+000	-255.622864	-52.564780
1789	1.7890e+000	-254.623413	-52.531885
1790	1.7900e+000	-253.280640	-52.488709
1791	1.7910e+000	-252.082825	-52.457184
1792	1.7920e+000	-251.129150	-52.422233
1793	1.7930e+000	-249.710083	-52.379742
1794	1.7940e+000	-248.634338	-52.346161
1795	1.7950e+000	-247.329712	-52.307098
1796	1.7960e+000	-246.299744	-52.272146
1797	1.7970e+000	-244.941711	-52.243363
1798	1.7980e+000	-243.652344	-52.197446
1799	1.7990e+000	-242.416382	-52.160438
1800	1.8000e+000	-241.287231	-52.141249
1801	1.8010e+000	-240.043640	-52.089165
1802	1.8020e+000	-238.784790	-52.057640
1803	1.8030e+000	-237.686157	-52.013779
1804	1.8040e+000	-236.495972	-51.969233
1805	1.8050e+000	-235.412598	-51.934966
1806	1.8060e+000	-233.978271	-51.913036
1807	1.8070e+000	-232.643127	-51.862322
1808	1.8080e+000	-231.628418	-51.822573
1809	1.8090e+000	-230.659485	-51.778712
1810	1.8100e+000	-229.347229	-51.749243
1811	1.8110e+000	-228.096008	-51.699215
1812	1.8120e+000	-227.188110	-51.674543
1813	1.8130e+000	-225.891113	-51.616976
1814	1.8140e+000	-224.784851	-51.580653
1815	1.8150e+000	-223.266602	-51.547072
1816	1.8160e+000	-222.167969	-51.499100
1817	1.8170e+000	-220.870972	-51.473057
1818	1.8180e+000	-219.650269	-51.423028
1819	1.8190e+000	-218.269348	-51.386021
1820	1.8200e+000	-217.308044	-51.342160
1821	1.8210e+000	-216.445923	-51.298299
1822	1.8220e+000	-214.950562	-51.259921
1823	1.8230e+000	-213.691711	-51.211263
1824	1.8240e+000	-212.554932	-51.173570
1825	1.8250e+000	-211.242676	-51.139989
1826	1.8260e+000	-210.037231	-51.105723
1827	1.8270e+000	-208.992004	-51.042673
1828	1.8280e+000	-207.611084	-51.000868
1829	1.8290e+000	-206.504822	-50.961805
1830	1.8300e+000	-205.245972	-50.915203
1831	1.8310e+000	-204.330444	-50.878195
1832	1.8320e+000	-203.033447	-50.834334
1833	1.8330e+000	-201.568604	-50.798697
1834	1.8340e+000	-200.599670	-50.745927
1835	1.8350e+000	-199.401855	-50.702752
1836	1.8360e+000	-198.196411	-50.653408
1837	1.8370e+000	-196.609497	-50.613660
1838	1.8380e+000	-195.594788	-50.569113
1839	1.8390e+000	-194.328308	-50.530050
1840	1.8400e+000	-193.237305	-50.493728
1841	1.8410e+000	-192.100525	-50.434790
1842	1.8420e+000	-191.032410	-50.389558
1843	1.8430e+000	-189.460754	-50.359404
1844	1.8440e+000	-188.453674	-50.312116
1845	1.8450e+000	-187.347412	-50.252493
1846	1.8460e+000	-186.119080	-50.212059
1847	1.8470e+000	-185.012817	-50.158604
1848	1.8480e+000	-183.593750	-50.107890
1849	1.8490e+000	-182.266235	-50.079791
1850	1.8500e+000	-181.350708	-50.016056
1851	1.8510e+000	-180.030823	-49.960545
1852	1.8520e+000	-178.840637	-49.922852
1853	1.8530e+000	-177.612305	-49.881732
1854	1.8540e+000	-176.643372	-49.834445
1855	1.8550e+000	-175.155640	-49.777563
1856	1.8560e+000	-174.072266	-49.739870
1857	1.8570e+000	-172.607422	-49.698750
1858	1.8580e+000	-171.768188	-49.640498
1859	1.8590e+000	-170.417786	-49.601434
1860	1.8600e+000	-169.235229	-49.539755
1861	1.8610e+000	-168.304443	-49.495209
1862	1.8620e+000	-166.893005	-49.430103
1863	1.8630e+000	-165.748596	-49.385557
1864	1.8640e+000	-164.199829	-49.343067
1865	1.8650e+000	-163.215637	-49.295094
1866	1.8660e+000	-162.124634	-49.254660
1867	1.8670e+000	-160.636902	-49.196407
1868	1.8680e+000	-159.667969	-49.138155
1869	1.8690e+000	-158.340454	-49.080587
1870	1.8700e+000	-157.287598	-49.033300
1871	1.8710e+000	-156.112671	-48.963397
1872	1.8720e+000	-154.861450	-48.920221
1873	1.8730e+000	-153.480530	-48.866080
1874	1.8740e+000	-152.221680	-48.829758
1875	1.8750e+000	-151.092529	-48.769450
1876	1.8760e+000	-150.016785	-48.722162
1877	1.8770e+000	-148.773193	-48.650888
1878	1.8780e+000	-147.705078	-48.594006
1879	1.8790e+000	-146.286011	-48.533698
1880	1.8800e+000	-145.233154	-48.486410
1881	1.8810e+000	-143.951416	-48.432955
1882	1.8820e+000	-142.669678	-48.389094
1883	1.8830e+000	-141.273499	-48.320562
1884	1.8840e+000	-140.167236	-48.262309
1885	1.8850e+000	-139.274597	-48.210224
1886	1.8860e+000	-138.069153	-48.146489
1887	1.8870e+000	-136.894226	-48.084124
1888	1.8880e+000	-135.749817	-48.032725
1889	1.8890e+000	-134.437561	-47.981326
1890	1.8900e+000	-132.972717	-47.921702
1891	1.8910e+000	-131.973267	-47.868932
1892	1.8920e+000	-130.867004	-47.812050
1893	1.8930e+000	-129.638672	-47.747630
1894	1.8940e+000	-128.143311	-47.675671
1895	1.8950e+000	-127.265930	-47.612621
1896	1.8960e+000	-126.289368	-47.556424
1897	1.8970e+000	-124.824524	-47.487206
1898	1.8980e+000	-123.481750	-47.426212
1899	1.8990e+000	-122.245789	-47.376184
1900	1.9000e+000	-121.360779	-47.306280
1901	1.9010e+000	-120.048523	-47.248713
1902	1.9020e+000	-118.812561	-47.178125
1903	1.9030e+000	-117.576599	-47.115760
1904	1.9040e+000	-116.432190	-47.034892
1905	1.9050e+000	-115.005493	-46.961562
1906	1.9060e+000	-114.227295	-46.897141
1907	1.9070e+000	-112.701416	-46.845742
1908	1.9080e+000	-111.709595	-46.783377
1909	1.9090e+000	-110.481262	-46.710048
1910	1.9100e+000	-109.069824	-46.637403
1911	1.9110e+000	-108.070374	-46.572297
1912	1.9120e+000	-106.956482	-46.496226
1913	1.9130e+000	-105.804443	-46.424267
1914	1.9140e+000	-104.415894	-46.350252
1915	1.9150e+000	-103.187561	-46.293370
1916	1.9160e+000	-101.974487	-46.231691
1917	1.9170e+000	-100.982666	-46.148081
1918	1.9180e+000	-99.594116	-46.063786
1919	1.9190e+000	-98.571777	-45.989771
1920	1.9200e+000	-97.389221	-45.921924
1921	1.9210e+000	-95.954895	-45.826663
1922	1.9220e+000	-94.917297	-45.751278
1923	1.9230e+000	-93.544006	-45.674521
1924	1.9240e+000	-92.361450	-45.600506
1925	1.9250e+000	-90.988159	-45.538827
1926	1.9260e+000	-90.019226	-45.444252
1927	1.9270e+000	-88.890076	-45.355160
1928	1.9280e+000	-87.516785	-45.262641
1929	1.9290e+000	-86.494446	-45.173549
1930	1.9300e+000	-85.151672	-45.098848
1931	1.9310e+000	-84.053040	-45.020721
1932	1.9320e+000	-82.679749	-44.925461
1933	1.9330e+000	-81.481934	-44.861726
1934	1.9340e+000	-80.276489	-44.764410
1935	1.9350e+000	-79.376221	-44.678744
1936	1.9360e+000	-77.987671	-44.578686
1937	1.9370e+000	-76.942444	-44.469720
1938	1.9380e+000	-75.729370	-44.360753
1939	1.9390e+000	-74.584961	-44.272346
1940	1.9400e+000	-73.272705	-44.175715
1941	1.9410e+000	-72.113037	-44.093476
1942	1.9420e+000	-70.854187	-43.996160
1943	1.9430e+000	-69.473267	-43.887193
1944	1.9440e+000	-68.328857	-43.786451
1945	1.9450e+000	-67.153931	-43.653497
1946	1.9460e+000	-66.055298	-43.556867
1947	1.9470e+000	-64.697266	-43.436935
1948	1.9480e+000	-63.713074	-43.337563
1949	1.9490e+000	-62.393188	-43.219001
1950	1.9500e+000	-61.180115	-43.105923
1951	1.9510e+000	-59.989929	-42.987361
1952	1.9520e+000	-58.929443	-42.840017
1953	1.9530e+000	-57.662964	-42.713231
1954	1.9540e+000	-56.526184	-42.567942
1955	1.9550e+000	-55.221558	-42.437045
1956	1.9560e+000	-54.138184	-42.293812
1957	1.9570e+000	-52.642822	-42.138929
1958	1.9580e+000	-51.437378	-41.990899
1959	1.9590e+000	-50.506592	-41.824365
1960	1.9600e+000	-49.072266	-41.646866
1961	1.9610e+000	-48.301697	-41.465940
1962	1.9620e+000	-46.676636	-41.283643
1963	1.9630e+000	-45.646667	-41.085584
1964	1.9640e+000	-44.548035	-40.883413
1965	1.9650e+000	-43.220520	-40.683298
1966	1.9660e+000	-42.228699	-40.463309
1967	1.9670e+000	-40.985107	-40.230298
1968	1.9680e+000	-39.772034	-39.968504
1969	1.9690e+000	-38.345337	-39.696430
1970	1.9700e+000	-37.277222	-39.437377
1971	1.9710e+000	-35.827637	-39.137890
1972	1.9720e+000	-34.729004	-38.819899
1973	1.9730e+000	-33.599854	-38.510132
1974	1.9740e+000	-32.447815	-38.158561
1975	1.9750e+000	-31.272888	-37.780946
1976	1.9760e+000	-30.097961	-37.397850
1977	1.9770e+000	-28.808594	-36.985969
1978	1.9780e+000	-27.542114	-36.557641
1979	1.9790e+000	-26.397705	-36.103271
1980	1.9800e+000	-25.215149	-35.627655
1981	1.9810e+000	-24.169922	-35.125997
1982	1.9820e+000	-22.987366	-34.613374
1983	1.9830e+000	-21.492004	-34.061687
1984	1.9840e+000	-20.324707	-33.480531
1985	1.9850e+000	-19.302368	-32.867165
1986	1.9860e+000	-18.035889	-32.218848
1987	1.9870e+000	-16.860962	-31.569159
1988	1.9880e+000	-15.808105	-30.884520
1989	1.9890e+000	-14.610291	-30.164928
1990	1.9900e+000	-13.427734	-29.417239
1991	1.9910e+000	-12.168884	-28.644877
1992	1.9920e+000	-10.780334	-27.836879
1993	1.9930e+000	-9.857178	-27.000097
1994	1.9940e+000	-8.110046	-26.135217
1995	1.9950e+000	-7.148743	-25.241553
1996	1.9960e+000	-6.134033	-24.312937
1997	1.9970e+000	-5.027771	-23.382951
1998	1.9980e+000	-3.616333	-22.400195
1999	1.9990e+000	-2.510071	-21.401676
2000	2.0000e+000	-1.358032	-20.388765
2001	2.0010e+000	0.114441	-19.350498

Center data before PMax,±Pr and ±Vc Calc.

PMax (µC/cm2):	5.37e+001
Pr (µC/cm2):	2.62e+001
-Pr (µC/cm2):	-1.94e+001
Vc:	2.48e-001
-Vc:	-3.92e-001
C (Max-Eff) (nF):	1.11e+000
K (Eff):	2.02e+003
Vert. (±Pr) Shift (µC/cm2):	3.42e+000
Horiz. Shift (±Vc):	-7.20e-002
Offset (µC/cm2):	1.15e+000

A (Loop Area - µC/cm2·Volts):	1.08e+002



Hysteresis Version: 5.16.2 - Radiant Technologies, Inc., 1999 - 3/20/18

