»»»»»»»»»»»»»»»»»»»»»»»»»»»»»»»»»»»» Hysteresis ««««««««««««««««««««««««««««««««««««
»»»  Executed Version:	5.12.0
»»»  Vision Version:	5.12.5 (R)
»»»  Vision Compiled:	2/24/17
»»»  Driver Version:	5.12.4
»»»  Windows Version:	Windows 7
»»»  Processor Information:	x86 (AMD or Intel) - 2 Processors
»»»  Tester Name:	PMF0910-256
»»»  Tester S/N:	PMF0910-256
»»»  Internal Amp Type:	 RTI 100V      
»»»  Internal Amp S/N:	 iAB1-0000     
»»»  Execution Count:	1
»»»»»»»»»»»»»»»»»»»»»»»»»»»»»»»»»»»»»»»»»»««««««««««««««««««««««««««««««««««««««««««

Stored:	6/19/2017 - 11:21:6
Configured:	06/19/17 10:57:34 AM
Executed:	06/19/17 11:20:32 AM

»»»»»»»»»»»»»»»»»»»»»»»»»»»»»»»»»»» Sample Info ««««««««««««««««««««««««««««««««««««
Sample Name:	
Lot Name:	
Wafer Name:	
Die Row/Column:	0/0
Capacitor Number:	0
Sample Area (cm2):	1.96e-005
Sample Thickness (µm):	1.00e-001

Mux Loop Adjustment:	Disabled

Amplifier:	Internal

»»»»»»»»»»»»»»»»»»»»»»»»»»»»»»»»»»» Tester Info «««««««««««««««««««««««««««««««««««
Tester Name:	PMF0910-256
Tester Serial Number:	PMF0910-256
Return Signal Amp. Level:	1.79 [Index: 2]

»»»»»»»»»»»»»»»»»»»»»»»»»»»»»»»» Hysteresis Info ««««««««««««««««««««««««««««««««««
Task Name:	Hyst-2
Volts:	3.00
Field:	300.00 (kV/cm)
Hysteresis Period (ms):	2.00e+000
Preset:	Enabled
Preset Delay (ms):	1.00e+003
Profile:	Double Bipolar

»»»»»»»»»»»»»»»»»»»»»»»»»»»»»»»»»»»»»» Data «««««««««««««««««««««««««««««««««««««««
Points:	2001

Valid Data

Point	Time (ms)	Drive Voltage	Measured Polarization
   1	1.0000e-003	0.0000	-13.019388
   2	2.0000e-003	0.0127	-12.961280
   3	3.0000e-003	0.0240	-12.911781
   4	4.0000e-003	0.0339	-12.879499
   5	5.0000e-003	0.0459	-12.793413
   6	6.0000e-003	0.0600	-12.685806
   7	7.0000e-003	0.0707	-12.597568
   8	8.0000e-003	0.0842	-12.485657
   9	9.0000e-003	0.0956	-12.332855
  10	1.0000e-002	0.1069	-12.130553
  11	1.1000e-002	0.1190	-11.880905
  12	1.2000e-002	0.1321	-11.598974
  13	1.3000e-002	0.1430	-11.299826
  14	1.4000e-002	0.1556	-10.983461
  15	1.5000e-002	0.1681	-10.568097
  16	1.6000e-002	0.1790	-10.144125
  17	1.7000e-002	0.1916	-9.722305
  18	1.8000e-002	0.2048	-9.337072
  19	1.9000e-002	0.2134	-8.831318
  20	2.0000e-002	0.2275	-8.340630
  21	2.1000e-002	0.2391	-7.839180
  22	2.2000e-002	0.2520	-7.333427
  23	2.3000e-002	0.2640	-6.814760
  24	2.4000e-002	0.2747	-6.281029
  25	2.5000e-002	0.2876	-5.715015
  26	2.6000e-002	0.2987	-5.159762
  27	2.7000e-002	0.3091	-4.565771
  28	2.8000e-002	0.3214	-3.952410
  29	2.9000e-002	0.3367	-3.397157
  30	3.0000e-002	0.3490	-2.785949
  31	3.1000e-002	0.3590	-2.157523
  32	3.2000e-002	0.3708	-1.559227
  33	3.3000e-002	0.3853	-0.924345
  34	3.4000e-002	0.3950	-0.283007
  35	3.5000e-002	0.4076	0.319593
  36	3.6000e-002	0.4197	0.902824
  37	3.7000e-002	0.4324	1.557075
  38	3.8000e-002	0.4420	2.183349
  39	3.9000e-002	0.4543	2.841905
  40	4.0000e-002	0.4694	3.416527
  41	4.1000e-002	0.4780	4.040648
  42	4.2000e-002	0.4919	4.673378
  43	4.3000e-002	0.5030	5.271674
  44	4.4000e-002	0.5153	5.900100
  45	4.5000e-002	0.5259	6.476874
  46	4.6000e-002	0.5400	7.045040
  47	4.7000e-002	0.5500	7.667009
  48	4.8000e-002	0.5646	8.168458
  49	4.9000e-002	0.5762	8.809797
  50	5.0000e-002	0.5881	9.384419
  51	5.1000e-002	0.5997	9.939672
  52	5.2000e-002	0.6111	10.462642
  53	5.3000e-002	0.6238	11.039417
  54	5.4000e-002	0.6364	11.540866
  55	5.5000e-002	0.6484	12.063837
  56	5.6000e-002	0.6593	12.619090
  57	5.7000e-002	0.6700	13.133452
  58	5.8000e-002	0.6838	13.587554
  59	5.9000e-002	0.6969	14.110525
  60	6.0000e-002	0.7085	14.652865
  61	6.1000e-002	0.7177	15.124184
  62	6.2000e-002	0.7325	15.573982
  63	6.3000e-002	0.7445	16.088344
  64	6.4000e-002	0.7558	16.563967
  65	6.5000e-002	0.7691	16.977179
  66	6.6000e-002	0.7798	17.457107
  67	6.7000e-002	0.7906	17.868166
  68	6.8000e-002	0.8064	18.315812
  69	6.9000e-002	0.8151	18.787131
  70	7.0000e-002	0.8267	19.215407
  71	7.1000e-002	0.8381	19.585576
  72	7.2000e-002	0.8528	20.065504
  73	7.3000e-002	0.8636	20.495932
  74	7.4000e-002	0.8746	20.874710
  75	7.5000e-002	0.8893	21.322355
  76	7.6000e-002	0.8981	21.754936
  77	7.7000e-002	0.9115	22.105735
  78	7.8000e-002	0.9232	22.512490
  79	7.9000e-002	0.9357	22.932158
  80	8.0000e-002	0.9473	23.278653
  81	8.1000e-002	0.9598	23.696169
  82	8.2000e-002	0.9705	24.092163
  83	8.3000e-002	0.9854	24.451571
  84	8.4000e-002	0.9962	24.823892
  85	8.5000e-002	1.0067	25.239255
  86	8.6000e-002	1.0211	25.581446
  87	8.7000e-002	1.0311	25.968832
  88	8.8000e-002	1.0448	26.377739
  89	8.9000e-002	1.0554	26.702712
  90	9.0000e-002	1.0689	27.107315
  91	9.1000e-002	1.0824	27.505462
  92	9.2000e-002	1.0926	27.849805
  93	9.3000e-002	1.1048	28.241495
  94	9.4000e-002	1.1160	28.635337
  95	9.5000e-002	1.1269	28.996897
  96	9.6000e-002	1.1430	29.392891
  97	9.7000e-002	1.1542	29.745842
  98	9.8000e-002	1.1627	30.126772
  99	9.9000e-002	1.1770	30.516310
 100	1.0000e-001	1.1876	30.862805
 101	1.0100e-001	1.1994	31.211452
 102	1.0200e-001	1.2124	31.577316
 103	1.0300e-001	1.2234	31.904442
 104	1.0400e-001	1.2334	32.210046
 105	1.0500e-001	1.2514	32.515650
 106	1.0600e-001	1.2582	32.806190
 107	1.0700e-001	1.2719	33.042925
 108	1.0800e-001	1.2856	33.253835
 109	1.0900e-001	1.2969	33.516397
 110	1.1000e-001	1.3071	33.679960
 111	1.1100e-001	1.3186	33.845675
 112	1.1200e-001	1.3313	34.017846
 113	1.1300e-001	1.3443	34.162040
 114	1.1400e-001	1.3578	34.202930
 115	1.1500e-001	1.3672	34.372950
 116	1.1600e-001	1.3791	34.465492
 117	1.1700e-001	1.3903	34.568795
 118	1.1800e-001	1.4053	34.652728
 119	1.1900e-001	1.4161	34.753879
 120	1.2000e-001	1.4278	34.794770
 121	1.2100e-001	1.4398	34.878703
 122	1.2200e-001	1.4526	34.928202
 123	1.2300e-001	1.4650	34.958332
 124	1.2400e-001	1.4779	35.020745
 125	1.2500e-001	1.4901	35.139112
 126	1.2600e-001	1.5004	35.167090
 127	1.2700e-001	1.5102	35.197220
 128	1.2800e-001	1.5234	35.281154
 129	1.2900e-001	1.5356	35.317740
 130	1.3000e-001	1.5478	35.369392
 131	1.3100e-001	1.5611	35.444717
 132	1.3200e-001	1.5729	35.431804
 133	1.3300e-001	1.5826	35.504977
 134	1.3400e-001	1.5950	35.535107
 135	1.3500e-001	1.6104	35.625497
 136	1.3600e-001	1.6195	35.608280
 137	1.3700e-001	1.6320	35.629801
 138	1.3800e-001	1.6435	35.690061
 139	1.3900e-001	1.6560	35.737408
 140	1.4000e-001	1.6687	35.784755
 141	1.4100e-001	1.6806	35.801972
 142	1.4200e-001	1.6930	35.838559
 143	1.4300e-001	1.7049	35.916036
 144	1.4400e-001	1.7150	35.890210
 145	1.4500e-001	1.7255	35.965535
 146	1.4600e-001	1.7386	35.976296
 147	1.4700e-001	1.7516	36.010730
 148	1.4800e-001	1.7630	36.025795
 149	1.4900e-001	1.7776	36.064534
 150	1.5000e-001	1.7878	36.124794
 151	1.5100e-001	1.7982	36.174293
 152	1.5200e-001	1.8112	36.189358
 153	1.5300e-001	1.8245	36.202271
 154	1.5400e-001	1.8337	36.260379
 155	1.5500e-001	1.8483	36.241010
 156	1.5600e-001	1.8597	36.299117
 157	1.5700e-001	1.8718	36.348617
 158	1.5800e-001	1.8846	36.372290
 159	1.5900e-001	1.8963	36.370138
 160	1.6000e-001	1.9086	36.402420
 161	1.6100e-001	1.9202	36.447615
 162	1.6200e-001	1.9334	36.454072
 163	1.6300e-001	1.9458	36.473441
 164	1.6400e-001	1.9559	36.527245
 165	1.6500e-001	1.9692	36.550918
 166	1.6600e-001	1.9795	36.578896
 167	1.6700e-001	1.9930	36.598265
 168	1.6800e-001	2.0040	36.677895
 169	1.6900e-001	2.0164	36.690807
 170	1.7000e-001	2.0289	36.664982
 171	1.7100e-001	2.0388	36.705872
 172	1.7200e-001	2.0522	36.723090
 173	1.7300e-001	2.0650	36.751067
 174	1.7400e-001	2.0757	36.783350
 175	1.7500e-001	2.0882	36.847914
 176	1.7600e-001	2.1006	36.856522
 177	1.7700e-001	2.1098	36.835001
 178	1.7800e-001	2.1239	36.779045
 179	1.7900e-001	2.1355	36.916782
 180	1.8000e-001	2.1469	36.923239
 181	1.8100e-001	2.1596	36.936152
 182	1.8200e-001	2.1734	36.985651
 183	1.8300e-001	2.1870	36.983499
 184	1.8400e-001	2.1960	37.045911
 185	1.8500e-001	2.2077	37.071737
 186	1.8600e-001	2.2213	37.080345
 187	1.8700e-001	2.2346	37.153518
 188	1.8800e-001	2.2449	37.116932
 189	1.8900e-001	2.2558	37.194409
 190	1.9000e-001	2.2683	37.179344
 191	1.9100e-001	2.2800	37.224539
 192	1.9200e-001	2.2909	37.280495
 193	1.9300e-001	2.3051	37.254669
 194	1.9400e-001	2.3161	37.241756
 195	1.9500e-001	2.3273	37.295560
 196	1.9600e-001	2.3402	37.329994
 197	1.9700e-001	2.3508	37.334298
 198	1.9800e-001	2.3637	37.360124
 199	1.9900e-001	2.3766	37.351515
 200	2.0000e-001	2.3873	37.431145
 201	2.0100e-001	2.3996	37.444057
 202	2.0200e-001	2.4129	37.454818
 203	2.0300e-001	2.4259	37.472035
 204	2.0400e-001	2.4351	37.523687
 205	2.0500e-001	2.4477	37.558121
 206	2.0600e-001	2.4596	37.575338
 207	2.0700e-001	2.4715	37.581795
 208	2.0800e-001	2.4834	37.575338
 209	2.0900e-001	2.4975	37.618381
 210	2.1000e-001	2.5067	37.626990
 211	2.1100e-001	2.5214	37.646359
 212	2.1200e-001	2.5317	37.665728
 213	2.1300e-001	2.5436	37.741053
 214	2.1400e-001	2.5548	37.749662
 215	2.1500e-001	2.5672	37.730292
 216	2.1600e-001	2.5803	37.753966
 217	2.1700e-001	2.5920	37.824987
 218	2.1800e-001	2.6038	37.809922
 219	2.1900e-001	2.6152	37.809922
 220	2.2000e-001	2.6302	37.893855
 221	2.2100e-001	2.6393	37.840052
 222	2.2200e-001	2.6530	37.898160
 223	2.2300e-001	2.6659	37.865877
 224	2.2400e-001	2.6767	37.934746
 225	2.2500e-001	2.6882	37.973485
 226	2.2600e-001	2.7015	37.969180
 227	2.2700e-001	2.7150	37.984245
 228	2.2800e-001	2.7230	38.063875
 229	2.2900e-001	2.7377	38.055266
 230	2.3000e-001	2.7484	38.048810
 231	2.3100e-001	2.7610	38.070331
 232	2.3200e-001	2.7731	38.100461
 233	2.3300e-001	2.7847	38.124135
 234	2.3400e-001	2.7964	38.141352
 235	2.3500e-001	2.8091	38.141352
 236	2.3600e-001	2.8201	38.160721
 237	2.3700e-001	2.8330	38.246807
 238	2.3800e-001	2.8447	38.246807
 239	2.3900e-001	2.8559	38.220981
 240	2.4000e-001	2.8671	38.281241
 241	2.4100e-001	2.8817	38.317827
 242	2.4200e-001	2.8925	38.268328
 243	2.4300e-001	2.9051	38.311371
 244	2.4400e-001	2.9159	38.337197
 245	2.4500e-001	2.9281	38.365175
 246	2.4600e-001	2.9400	38.386696
 247	2.4700e-001	2.9527	38.429739
 248	2.4800e-001	2.9641	38.453412
 249	2.4900e-001	2.9771	38.438347
 250	2.5000e-001	2.9875	38.470630
 251	2.5100e-001	3.0011	38.418978
 252	2.5200e-001	2.9875	38.466325
 253	2.5300e-001	2.9778	38.434043
 254	2.5400e-001	2.9624	38.418978
 255	2.5500e-001	2.9509	38.416826
 256	2.5600e-001	2.9420	38.427587
 257	2.5700e-001	2.9306	38.399609
 258	2.5800e-001	2.9150	38.352262
 259	2.5900e-001	2.9028	38.369479
 260	2.6000e-001	2.8900	38.360870
 261	2.6100e-001	2.8818	38.350110
 262	2.6200e-001	2.8694	38.337197
 263	2.6300e-001	2.8557	38.322132
 264	2.6400e-001	2.8455	38.272632
 265	2.6500e-001	2.8319	38.220981
 266	2.6600e-001	2.8201	38.309219
 267	2.6700e-001	2.8098	38.236046
 268	2.6800e-001	2.7962	38.201612
 269	2.6900e-001	2.7834	38.195155
 270	2.7000e-001	2.7722	38.203764
 271	2.7100e-001	2.7621	38.190851
 272	2.7200e-001	2.7493	38.201612
 273	2.7300e-001	2.7378	38.160721
 274	2.7400e-001	2.7247	38.165025
 275	2.7500e-001	2.7143	38.102613
 276	2.7600e-001	2.7010	38.119830
 277	2.7700e-001	2.6871	38.119830
 278	2.7800e-001	2.6767	38.066027
 279	2.7900e-001	2.6632	38.074635
 280	2.8000e-001	2.6520	38.102613
 281	2.8100e-001	2.6398	38.057418
 282	2.8200e-001	2.6295	38.025136
 283	2.8300e-001	2.6156	38.005767
 284	2.8400e-001	2.6042	37.964876
 285	2.8500e-001	2.5913	37.960572
 286	2.8600e-001	2.5803	37.945507
 287	2.8700e-001	2.5673	37.958420
 288	2.8800e-001	2.5571	37.926137
 289	2.8900e-001	2.5436	37.889551
 290	2.9000e-001	2.5316	37.919681
 291	2.9100e-001	2.5191	37.915377
 292	2.9200e-001	2.5085	37.818530
 293	2.9300e-001	2.4960	37.878790
 294	2.9400e-001	2.4864	37.861573
 295	2.9500e-001	2.4712	37.824987
 296	2.9600e-001	2.4628	37.816378
 297	2.9700e-001	2.4477	37.799161
 298	2.9800e-001	2.4348	37.734597
 299	2.9900e-001	2.4244	37.764727
 300	3.0000e-001	2.4126	37.762575
 301	3.0100e-001	2.3988	37.719532
 302	3.0200e-001	2.3911	37.702315
 303	3.0300e-001	2.3763	37.682945
 304	3.0400e-001	2.3648	37.648511
 305	3.0500e-001	2.3508	37.659272
 306	3.0600e-001	2.3421	37.667880
 307	3.0700e-001	2.3293	37.629142
 308	3.0800e-001	2.3137	37.599012
 309	3.0900e-001	2.3044	37.603316
 310	3.1000e-001	2.2916	37.553817
 311	3.1100e-001	2.2820	37.573186
 312	3.1200e-001	2.2691	37.547360
 313	3.1300e-001	2.2562	37.512926
 314	3.1400e-001	2.2455	37.515078
 315	3.1500e-001	2.2330	37.519382
 316	3.1600e-001	2.2211	37.463427
 317	3.1700e-001	2.2073	37.452666
 318	3.1800e-001	2.1969	37.431145
 319	3.1900e-001	2.1822	37.403167
 320	3.2000e-001	2.1744	37.420384
 321	3.2100e-001	2.1604	37.398862
 322	3.2200e-001	2.1496	37.370885
 323	3.2300e-001	2.1378	37.334298
 324	3.2400e-001	2.1270	37.314929
 325	3.2500e-001	2.1122	37.306320
 326	3.2600e-001	2.0985	37.291255
 327	3.2700e-001	2.0892	37.295560
 328	3.2800e-001	2.0751	37.276190
 329	3.2900e-001	2.0621	37.278342
 330	3.3000e-001	2.0538	37.226691
 331	3.3100e-001	2.0419	37.198713
 332	3.3200e-001	2.0261	37.183648
 333	3.3300e-001	2.0182	37.220235
 334	3.3400e-001	2.0055	37.138453
 335	3.3500e-001	1.9927	37.116932
 336	3.3600e-001	1.9813	37.144910
 337	3.3700e-001	1.9668	37.106171
 338	3.3800e-001	1.9544	37.076041
 339	3.3900e-001	1.9426	37.076041
 340	3.4000e-001	1.9339	37.058824
 341	3.4100e-001	1.9180	37.026542
 342	3.4200e-001	1.9078	36.992107
 343	3.4300e-001	1.8953	36.959825
 344	3.4400e-001	1.8839	37.058824
 345	3.4500e-001	1.8707	37.002868
 346	3.4600e-001	1.8613	36.949065
 347	3.4700e-001	1.8482	36.927543
 348	3.4800e-001	1.8366	36.869435
 349	3.4900e-001	1.8228	36.878044
 350	3.5000e-001	1.8123	36.783350
 351	3.5100e-001	1.8016	36.847914
 352	3.5200e-001	1.7885	36.828545
 353	3.5300e-001	1.7754	36.804871
 354	3.5400e-001	1.7631	36.813480
 355	3.5500e-001	1.7503	36.774741
 356	3.5600e-001	1.7397	36.723090
 357	3.5700e-001	1.7274	36.751067
 358	3.5800e-001	1.7159	36.684351
 359	3.5900e-001	1.7047	36.673590
 360	3.6000e-001	1.6920	36.654221
 361	3.6100e-001	1.6776	36.684351
 362	3.6200e-001	1.6669	36.649917
 363	3.6300e-001	1.6555	36.606874
 364	3.6400e-001	1.6452	36.596113
 365	3.6500e-001	1.6326	36.583200
 366	3.6600e-001	1.6204	36.563831
 367	3.6700e-001	1.6092	36.514332
 368	3.6800e-001	1.5965	36.497115
 369	3.6900e-001	1.5841	36.499267
 370	3.7000e-001	1.5718	36.479897
 371	3.7100e-001	1.5608	36.441159
 372	3.7200e-001	1.5470	36.417485
 373	3.7300e-001	1.5371	36.413181
 374	3.7400e-001	1.5235	36.372290
 375	3.7500e-001	1.5120	36.378747
 376	3.7600e-001	1.4990	36.348617
 377	3.7700e-001	1.4891	36.322791
 378	3.7800e-001	1.4764	36.296965
 379	3.7900e-001	1.4632	36.307726
 380	3.8000e-001	1.4533	36.249618
 381	3.8100e-001	1.4388	36.251770
 382	3.8200e-001	1.4279	36.191510
 383	3.8300e-001	1.4165	36.174293
 384	3.8400e-001	1.4016	36.176445
 385	3.8500e-001	1.3918	36.126946
 386	3.8600e-001	1.3775	36.144163
 387	3.8700e-001	1.3671	36.075295
 388	3.8800e-001	1.3557	36.045165
 389	3.8900e-001	1.3434	36.064534
 390	3.9000e-001	1.3297	36.015035
 391	3.9100e-001	1.3216	36.019339
 392	3.9200e-001	1.3065	35.991361
 393	3.9300e-001	1.2973	35.903123
 394	3.9400e-001	1.2856	35.933253
 395	3.9500e-001	1.2707	35.907427
 396	3.9600e-001	1.2612	35.890210
 397	3.9700e-001	1.2490	35.870841
 398	3.9800e-001	1.2368	35.845015
 399	3.9900e-001	1.2233	35.797668
 400	4.0000e-001	1.2112	35.780451
 401	4.0100e-001	1.1988	35.784755
 402	4.0200e-001	1.1861	35.737408
 403	4.0300e-001	1.1752	35.711582
 404	4.0400e-001	1.1594	35.713735
 405	4.0500e-001	1.1537	35.657779
 406	4.0600e-001	1.1389	35.599671
 407	4.0700e-001	1.1280	35.651322
 408	4.0800e-001	1.1137	35.595367
 409	4.0900e-001	1.1040	35.569541
 410	4.1000e-001	1.0921	35.554476
 411	4.1100e-001	1.0786	35.502825
 412	4.1200e-001	1.0701	35.483455
 413	4.1300e-001	1.0558	35.464086
 414	4.1400e-001	1.0425	35.436108
 415	4.1500e-001	1.0337	35.397370
 416	4.1600e-001	1.0194	35.380152
 417	4.1700e-001	1.0071	35.300523
 418	4.1800e-001	0.9977	35.322045
 419	4.1900e-001	0.9840	35.291915
 420	4.2000e-001	0.9714	35.300523
 421	4.2100e-001	0.9624	35.263937
 422	4.2200e-001	0.9471	35.251024
 423	4.2300e-001	0.9351	35.173547
 424	4.2400e-001	0.9243	35.126200
 425	4.2500e-001	0.9112	35.126200
 426	4.2600e-001	0.8990	35.132656
 427	4.2700e-001	0.8885	35.091765
 428	4.2800e-001	0.8773	35.027201
 429	4.2900e-001	0.8621	35.016440
 430	4.3000e-001	0.8513	34.956180
 431	4.3100e-001	0.8420	34.947572
 432	4.3200e-001	0.8285	34.962637
 433	4.3300e-001	0.8167	34.859334
 434	4.3400e-001	0.8046	34.857182
 435	4.3500e-001	0.7904	34.842117
 436	4.3600e-001	0.7791	34.788313
 437	4.3700e-001	0.7665	34.738814
 438	4.3800e-001	0.7560	34.712988
 439	4.3900e-001	0.7437	34.702227
 440	4.4000e-001	0.7330	34.626902
 441	4.4100e-001	0.7170	34.650576
 442	4.4200e-001	0.7067	34.583860
 443	4.4300e-001	0.6969	34.532208
 444	4.4400e-001	0.6835	34.474100
 445	4.4500e-001	0.6693	34.456883
 446	4.4600e-001	0.6586	34.418145
 447	4.4700e-001	0.6493	34.377254
 448	4.4800e-001	0.6358	34.312690
 449	4.4900e-001	0.6238	34.265342
 450	4.5000e-001	0.6136	34.254582
 451	4.5100e-001	0.6019	34.202930
 452	4.5200e-001	0.5860	34.140518
 453	4.5300e-001	0.5748	34.151279
 454	4.5400e-001	0.5644	34.069497
 455	4.5500e-001	0.5518	33.985564
 456	4.5600e-001	0.5389	33.948977
 457	4.5700e-001	0.5261	33.938217
 458	4.5800e-001	0.5154	33.852131
 459	4.5900e-001	0.5029	33.798327
 460	4.6000e-001	0.4932	33.757437
 461	4.6100e-001	0.4778	33.647677
 462	4.6200e-001	0.4683	33.613243
 463	4.6300e-001	0.4557	33.542222
 464	4.6400e-001	0.4445	33.462593
 465	4.6500e-001	0.4315	33.350682
 466	4.6600e-001	0.4211	33.350682
 467	4.6700e-001	0.4089	33.234466
 468	4.6800e-001	0.3968	33.118250
 469	4.6900e-001	0.3835	33.051534
 470	4.7000e-001	0.3722	32.922405
 471	4.7100e-001	0.3591	32.825559
 472	4.7200e-001	0.3480	32.767451
 473	4.7300e-001	0.3350	32.623257
 474	4.7400e-001	0.3214	32.461847
 475	4.7500e-001	0.3114	32.328414
 476	4.7600e-001	0.3003	32.194981
 477	4.7700e-001	0.2881	32.014201
 478	4.7800e-001	0.2764	31.850638
 479	4.7900e-001	0.2654	31.669858
 480	4.8000e-001	0.2531	31.409449
 481	4.8100e-001	0.2402	31.243734
 482	4.8200e-001	0.2278	31.017759
 483	4.8300e-001	0.2142	30.669112
 484	4.8400e-001	0.2045	30.430224
 485	4.8500e-001	0.1942	30.135380
 486	4.8600e-001	0.1799	29.799646
 487	4.8700e-001	0.1675	29.440238
 488	4.8800e-001	0.1550	29.074374
 489	4.8900e-001	0.1431	28.710662
 490	4.9000e-001	0.1336	28.237190
 491	4.9100e-001	0.1184	27.841196
 492	4.9200e-001	0.1071	27.320377
 493	4.9300e-001	0.0944	26.829689
 494	4.9400e-001	0.0826	26.285197
 495	4.9500e-001	0.0713	25.729944
 496	4.9600e-001	0.0597	25.112279
 497	4.9700e-001	0.0484	24.554874
 498	4.9800e-001	0.0360	23.846819
 499	4.9900e-001	0.0224	23.171046
 500	5.0000e-001	0.0122	22.506034
 501	5.0100e-001	0.0019	21.802283
 502	5.0200e-001	-0.0105	21.027512
 503	5.0300e-001	-0.0236	20.362500
 504	5.0400e-001	-0.0356	19.516707
 505	5.0500e-001	-0.0488	18.750545
 506	5.0600e-001	-0.0617	17.971469
 507	5.0700e-001	-0.0710	17.155807
 508	5.0800e-001	-0.0826	16.297102
 509	5.0900e-001	-0.0972	15.436245
 510	5.1000e-001	-0.1066	14.547410
 511	5.1100e-001	-0.1219	13.673640
 512	5.1200e-001	-0.1325	12.778348
 513	5.1300e-001	-0.1436	11.911035
 514	5.1400e-001	-0.1546	10.983461
 515	5.1500e-001	-0.1702	10.045127
 516	5.1600e-001	-0.1774	9.143379
 517	5.1700e-001	-0.1927	8.235175
 518	5.1800e-001	-0.2036	7.357100
 519	5.1900e-001	-0.2181	6.438135
 520	5.2000e-001	-0.2278	5.489040
 521	5.2100e-001	-0.2394	4.619575
 522	5.2200e-001	-0.2494	3.704914
 523	5.2300e-001	-0.2635	2.824687
 524	5.2400e-001	-0.2769	1.888505
 525	5.2500e-001	-0.2857	1.107277
 526	5.2600e-001	-0.3024	0.298072
 527	5.2700e-001	-0.3114	-0.532655
 528	5.2800e-001	-0.3233	-1.294514
 529	5.2900e-001	-0.3358	-2.099415
 530	5.3000e-001	-0.3454	-2.867730
 531	5.3100e-001	-0.3600	-3.588698
 532	5.3200e-001	-0.3719	-4.277384
 533	5.3300e-001	-0.3844	-4.996200
 534	5.3400e-001	-0.3966	-5.695646
 535	5.3500e-001	-0.4075	-6.317615
 536	5.3600e-001	-0.4202	-6.902998
 537	5.3700e-001	-0.4336	-7.580923
 538	5.3800e-001	-0.4436	-8.213653
 539	5.3900e-001	-0.4559	-8.751689
 540	5.4000e-001	-0.4675	-9.371506
 541	5.4100e-001	-0.4800	-9.870803
 542	5.4200e-001	-0.4913	-10.423904
 543	5.4300e-001	-0.5042	-10.949027
 544	5.4400e-001	-0.5156	-11.512888
 545	5.4500e-001	-0.5254	-12.035859
 546	5.4600e-001	-0.5386	-12.474896
 547	5.4700e-001	-0.5514	-13.000019
 548	5.4800e-001	-0.5646	-13.467034
 549	5.4900e-001	-0.5754	-13.938353
 550	5.5000e-001	-0.5849	-14.398912
 551	5.5100e-001	-0.5991	-14.872383
 552	5.5200e-001	-0.6117	-15.281290
 553	5.5300e-001	-0.6233	-15.748305
 554	5.5400e-001	-0.6373	-16.180886
 555	5.5500e-001	-0.6492	-16.615619
 556	5.5600e-001	-0.6605	-17.000852
 557	5.5700e-001	-0.6711	-17.426977
 558	5.5800e-001	-0.6851	-17.838036
 559	5.5900e-001	-0.6960	-18.264160
 560	5.6000e-001	-0.7080	-18.664459
 561	5.6100e-001	-0.7179	-19.019562
 562	5.6200e-001	-0.7314	-19.424165
 563	5.6300e-001	-0.7446	-19.813703
 564	5.6400e-001	-0.7557	-20.155894
 565	5.6500e-001	-0.7689	-20.547584
 566	5.6600e-001	-0.7821	-20.926361
 567	5.6700e-001	-0.7924	-21.227661
 568	5.6800e-001	-0.8043	-21.615047
 569	5.6900e-001	-0.8154	-21.970150
 570	5.7000e-001	-0.8266	-22.292972
 571	5.7100e-001	-0.8392	-22.652380
 572	5.7200e-001	-0.8536	-22.975201
 573	5.7300e-001	-0.8643	-23.274349
 574	5.7400e-001	-0.8765	-23.618692
 575	5.7500e-001	-0.8884	-23.954426
 576	5.7600e-001	-0.9010	-24.262182
 577	5.7700e-001	-0.9119	-24.559178
 578	5.7800e-001	-0.9216	-24.817435
 579	5.7900e-001	-0.9350	-25.144561
 580	5.8000e-001	-0.9486	-25.417883
 581	5.8100e-001	-0.9588	-25.706270
 582	5.8200e-001	-0.9745	-25.966680
 583	5.8300e-001	-0.9849	-26.289501
 584	5.8400e-001	-0.9942	-26.502563
 585	5.8500e-001	-1.0104	-26.715625
 586	5.8600e-001	-1.0221	-26.986795
 587	5.8700e-001	-1.0307	-27.270878
 588	5.8800e-001	-1.0435	-27.471027
 589	5.8900e-001	-1.0566	-27.718524
 590	5.9000e-001	-1.0670	-27.950955
 591	5.9100e-001	-1.0797	-28.142496
 592	5.9200e-001	-1.0929	-28.372775
 593	5.9300e-001	-1.1037	-28.620272
 594	5.9400e-001	-1.1180	-28.801052
 595	5.9500e-001	-1.1296	-28.992592
 596	5.9600e-001	-1.1409	-29.181981
 597	5.9700e-001	-1.1525	-29.433782
 598	5.9800e-001	-1.1646	-29.554302
 599	5.9900e-001	-1.1784	-29.715712
 600	6.0000e-001	-1.1877	-29.935231
 601	6.0100e-001	-1.2016	-30.079425
 602	6.0200e-001	-1.2102	-30.236531
 603	6.0300e-001	-1.2267	-30.410855
 604	6.0400e-001	-1.2356	-30.557200
 605	6.0500e-001	-1.2473	-30.682025
 606	6.0600e-001	-1.2585	-30.867109
 607	6.0700e-001	-1.2710	-31.024215
 608	6.0800e-001	-1.2849	-31.127518
 609	6.0900e-001	-1.2947	-31.276016
 610	6.1000e-001	-1.3074	-31.338428
 611	6.1100e-001	-1.3198	-31.532121
 612	6.1200e-001	-1.3342	-31.674162
 613	6.1300e-001	-1.3423	-31.764552
 614	6.1400e-001	-1.3546	-31.865703
 615	6.1500e-001	-1.3690	-32.001288
 616	6.1600e-001	-1.3792	-32.126112
 617	6.1700e-001	-1.3935	-32.149786
 618	6.1800e-001	-1.4035	-32.356392
 619	6.1900e-001	-1.4165	-32.436021
 620	6.2000e-001	-1.4307	-32.479064
 621	6.2100e-001	-1.4401	-32.634018
 622	6.2200e-001	-1.4535	-32.707191
 623	6.2300e-001	-1.4616	-32.776060
 624	6.2400e-001	-1.4774	-32.933166
 625	6.2500e-001	-1.4871	-32.967600
 626	6.2600e-001	-1.4983	-33.034317
 627	6.2700e-001	-1.5129	-33.150532
 628	6.2800e-001	-1.5260	-33.264596
 629	6.2900e-001	-1.5355	-33.307639
 630	6.3000e-001	-1.5479	-33.410942
 631	6.3100e-001	-1.5585	-33.499180
 632	6.3200e-001	-1.5716	-33.533614
 633	6.3300e-001	-1.5835	-33.643373
 634	6.3400e-001	-1.5948	-33.710090
 635	6.3500e-001	-1.6084	-33.744524
 636	6.3600e-001	-1.6196	-33.875805
 637	6.3700e-001	-1.6319	-33.940369
 638	6.3800e-001	-1.6436	-33.940369
 639	6.3900e-001	-1.6560	-34.050128
 640	6.4000e-001	-1.6678	-34.153431
 641	6.4100e-001	-1.6805	-34.136214
 642	6.4200e-001	-1.6947	-34.239517
 643	6.4300e-001	-1.7038	-34.347124
 644	6.4400e-001	-1.7151	-34.336363
 645	6.4500e-001	-1.7265	-34.424601
 646	6.4600e-001	-1.7403	-34.551577
 647	6.4700e-001	-1.7521	-34.517143
 648	6.4800e-001	-1.7617	-34.570947
 649	6.4900e-001	-1.7786	-34.691467
 650	6.5000e-001	-1.7874	-34.702227
 651	6.5100e-001	-1.8002	-34.747422
 652	6.5200e-001	-1.8117	-34.835660
 653	6.5300e-001	-1.8240	-34.898072
 654	6.5400e-001	-1.8365	-34.921746
 655	6.5500e-001	-1.8481	-34.982006
 656	6.5600e-001	-1.8616	-35.053027
 657	6.5700e-001	-1.8719	-35.074548
 658	6.5800e-001	-1.8846	-35.180003
 659	6.5900e-001	-1.8954	-35.227350
 660	6.6000e-001	-1.9077	-35.218742
 661	6.6100e-001	-1.9204	-35.289762
 662	6.6200e-001	-1.9324	-35.371544
 663	6.6300e-001	-1.9447	-35.373696
 664	6.6400e-001	-1.9585	-35.438260
 665	6.6500e-001	-1.9671	-35.481303
 666	6.6600e-001	-1.9817	-35.524346
 667	6.6700e-001	-1.9919	-35.554476
 668	6.6800e-001	-2.0045	-35.666387
 669	6.6900e-001	-2.0142	-35.644866
 670	6.7000e-001	-2.0292	-35.733104
 671	6.7100e-001	-2.0405	-35.773995
 672	6.7200e-001	-2.0522	-35.761082
 673	6.7300e-001	-2.0652	-35.832102
 674	6.7400e-001	-2.0750	-35.965535
 675	6.7500e-001	-2.0859	-35.920340
 676	6.7600e-001	-2.1027	-35.941862
 677	6.7700e-001	-2.1137	-36.060230
 678	6.7800e-001	-2.1252	-36.034404
 679	6.7900e-001	-2.1352	-36.055925
 680	6.8000e-001	-2.1473	-36.189358
 681	6.8100e-001	-2.1610	-36.200119
 682	6.8200e-001	-2.1693	-36.182902
 683	6.8300e-001	-2.1842	-36.290509
 684	6.8400e-001	-2.1983	-36.290509
 685	6.8500e-001	-2.2084	-36.333552
 686	6.8600e-001	-2.2207	-36.378747
 687	6.8700e-001	-2.2327	-36.426094
 688	6.8800e-001	-2.2419	-36.430398
 689	6.8900e-001	-2.2565	-36.494962
 690	6.9000e-001	-2.2677	-36.596113
 691	6.9100e-001	-2.2803	-36.568135
 692	6.9200e-001	-2.2945	-36.606874
 693	6.9300e-001	-2.3045	-36.634852
 694	6.9400e-001	-2.3152	-36.658525
 695	6.9500e-001	-2.3304	-36.729546
 696	6.9600e-001	-2.3402	-36.785502
 697	6.9700e-001	-2.3522	-36.748915
 698	6.9800e-001	-2.3645	-36.835001
 699	6.9900e-001	-2.3775	-36.869435
 700	7.0000e-001	-2.3887	-36.856522
 701	7.0100e-001	-2.4010	-36.925391
 702	7.0200e-001	-2.4134	-36.996412
 703	7.0300e-001	-2.4249	-36.977042
 704	7.0400e-001	-2.4408	-37.086802
 705	7.0500e-001	-2.4477	-37.110475
 706	7.0600e-001	-2.4622	-37.112627
 707	7.0700e-001	-2.4738	-37.101867
 708	7.0800e-001	-2.4840	-37.196561
 709	7.0900e-001	-2.4979	-37.222387
 710	7.1000e-001	-2.5099	-37.192257
 711	7.1100e-001	-2.5208	-37.306320
 712	7.1200e-001	-2.5330	-37.314929
 713	7.1300e-001	-2.5432	-37.327842
 714	7.1400e-001	-2.5585	-37.401015
 715	7.1500e-001	-2.5697	-37.441905
 716	7.1600e-001	-2.5809	-37.411775
 717	7.1700e-001	-2.5906	-37.476340
 718	7.1800e-001	-2.6066	-37.504317
 719	7.1900e-001	-2.6167	-37.549512
 720	7.2000e-001	-2.6273	-37.568882
 721	7.2100e-001	-2.6414	-37.596860
 722	7.2200e-001	-2.6509	-37.644207
 723	7.2300e-001	-2.6648	-37.661424
 724	7.2400e-001	-2.6759	-37.687250
 725	7.2500e-001	-2.6901	-37.747510
 726	7.2600e-001	-2.7026	-37.762575
 727	7.2700e-001	-2.7107	-37.773335
 728	7.2800e-001	-2.7251	-37.809922
 729	7.2900e-001	-2.7369	-37.857269
 730	7.3000e-001	-2.7474	-37.915377
 731	7.3100e-001	-2.7621	-37.921833
 732	7.3200e-001	-2.7702	-37.919681
 733	7.3300e-001	-2.7849	-37.958420
 734	7.3400e-001	-2.7979	-38.033745
 735	7.3500e-001	-2.8101	-38.005767
 736	7.3600e-001	-2.8200	-38.053114
 737	7.3700e-001	-2.8328	-38.081092
 738	7.3800e-001	-2.8455	-38.124135
 739	7.3900e-001	-2.8562	-38.154265
 740	7.4000e-001	-2.8687	-38.121982
 741	7.4100e-001	-2.8802	-38.214525
 742	7.4200e-001	-2.8926	-38.201612
 743	7.4300e-001	-2.9050	-38.257567
 744	7.4400e-001	-2.9166	-38.246807
 745	7.4500e-001	-2.9292	-38.307067
 746	7.4600e-001	-2.9392	-38.307067
 747	7.4700e-001	-2.9536	-38.347957
 748	7.4800e-001	-2.9665	-38.414674
 749	7.4900e-001	-2.9774	-38.427587
 750	7.5000e-001	-2.9878	-38.468477
 751	7.5100e-001	-3.0000	-38.479238
 752	7.5200e-001	-2.9878	-38.470630
 753	7.5300e-001	-2.9731	-38.442652
 754	7.5400e-001	-2.9655	-38.421130
 755	7.5500e-001	-2.9534	-38.438347
 756	7.5600e-001	-2.9408	-38.416826
 757	7.5700e-001	-2.9282	-38.386696
 758	7.5800e-001	-2.9182	-38.403913
 759	7.5900e-001	-2.9016	-38.343653
 760	7.6000e-001	-2.8928	-38.330740
 761	7.6100e-001	-2.8810	-38.307067
 762	7.6200e-001	-2.8693	-38.324284
 763	7.6300e-001	-2.8564	-38.300610
 764	7.6400e-001	-2.8450	-38.279089
 765	7.6500e-001	-2.8325	-38.242502
 766	7.6600e-001	-2.8191	-38.244655
 767	7.6700e-001	-2.8077	-38.214525
 768	7.6800e-001	-2.7984	-38.203764
 769	7.6900e-001	-2.7840	-38.160721
 770	7.7000e-001	-2.7686	-38.171482
 771	7.7100e-001	-2.7586	-38.160721
 772	7.7200e-001	-2.7489	-38.139200
 773	7.7300e-001	-2.7348	-38.132743
 774	7.7400e-001	-2.7261	-38.111222
 775	7.7500e-001	-2.7105	-38.061722
 776	7.7600e-001	-2.6991	-38.076787
 777	7.7700e-001	-2.6899	-38.020832
 778	7.7800e-001	-2.6759	-38.007919
 779	7.7900e-001	-2.6620	-37.988550
 780	7.8000e-001	-2.6518	-37.973485
 781	7.8100e-001	-2.6415	-37.962724
 782	7.8200e-001	-2.6283	-37.900312
 783	7.8300e-001	-2.6143	-37.936898
 784	7.8400e-001	-2.6051	-37.939050
 785	7.8500e-001	-2.5930	-37.891703
 786	7.8600e-001	-2.5809	-37.889551
 787	7.8700e-001	-2.5679	-37.865877
 788	7.8800e-001	-2.5550	-37.814226
 789	7.8900e-001	-2.5449	-37.790552
 790	7.9000e-001	-2.5335	-37.756118
 791	7.9100e-001	-2.5203	-37.749662
 792	7.9200e-001	-2.5095	-37.741053
 793	7.9300e-001	-2.4981	-37.702315
 794	7.9400e-001	-2.4834	-37.719532
 795	7.9500e-001	-2.4720	-37.693706
 796	7.9600e-001	-2.4593	-37.650663
 797	7.9700e-001	-2.4475	-37.648511
 798	7.9800e-001	-2.4372	-37.599012
 799	7.9900e-001	-2.4249	-37.558121
 800	8.0000e-001	-2.4117	-37.558121
 801	8.0100e-001	-2.4003	-37.547360
 802	8.0200e-001	-2.3867	-37.517230
 803	8.0300e-001	-2.3751	-37.504317
 804	8.0400e-001	-2.3618	-37.463427
 805	8.0500e-001	-2.3517	-37.426840
 806	8.0600e-001	-2.3395	-37.467731
 807	8.0700e-001	-2.3273	-37.411775
 808	8.0800e-001	-2.3158	-37.368732
 809	8.0900e-001	-2.3034	-37.362276
 810	8.1000e-001	-2.2910	-37.360124
 811	8.1100e-001	-2.2803	-37.291255
 812	8.1200e-001	-2.2667	-37.284799
 813	8.1300e-001	-2.2569	-37.295560
 814	8.1400e-001	-2.2462	-37.213778
 815	8.1500e-001	-2.2339	-37.209474
 816	8.1600e-001	-2.2208	-37.213778
 817	8.1700e-001	-2.2098	-37.125540
 818	8.1800e-001	-2.1935	-37.138453
 819	8.1900e-001	-2.1828	-37.134149
 820	8.2000e-001	-2.1719	-37.065280
 821	8.2100e-001	-2.1605	-37.056672
 822	8.2200e-001	-2.1471	-37.078193
 823	8.2300e-001	-2.1367	-37.030846
 824	8.2400e-001	-2.1269	-36.977042
 825	8.2500e-001	-2.1140	-36.987803
 826	8.2600e-001	-2.0989	-36.953369
 827	8.2700e-001	-2.0887	-36.916782
 828	8.2800e-001	-2.0770	-36.936152
 829	8.2900e-001	-2.0636	-36.873740
 830	8.3000e-001	-2.0518	-36.815632
 831	8.3100e-001	-2.0381	-36.811327
 832	8.3200e-001	-2.0293	-36.783350
 833	8.3300e-001	-2.0180	-36.783350
 834	8.3400e-001	-2.0015	-36.738155
 835	8.3500e-001	-1.9924	-36.667134
 836	8.3600e-001	-1.9801	-36.701568
 837	8.3700e-001	-1.9696	-36.675742
 838	8.3800e-001	-1.9551	-36.617635
 839	8.3900e-001	-1.9431	-36.563831
 840	8.4000e-001	-1.9328	-36.576744
 841	8.4100e-001	-1.9193	-36.533701
 842	8.4200e-001	-1.9082	-36.434702
 843	8.4300e-001	-1.8951	-36.477745
 844	8.4400e-001	-1.8845	-36.486354
 845	8.4500e-001	-1.8715	-36.393812
 846	8.4600e-001	-1.8607	-36.331400
 847	8.4700e-001	-1.8458	-36.367986
 848	8.4800e-001	-1.8331	-36.301270
 849	8.4900e-001	-1.8249	-36.264683
 850	8.5000e-001	-1.8112	-36.299117
 851	8.5100e-001	-1.8010	-36.213032
 852	8.5200e-001	-1.7868	-36.202271
 853	8.5300e-001	-1.7761	-36.189358
 854	8.5400e-001	-1.7628	-36.223792
 855	8.5500e-001	-1.7551	-36.086055
 856	8.5600e-001	-1.7389	-36.077447
 857	8.5700e-001	-1.7273	-36.025795
 858	8.5800e-001	-1.7166	-35.989209
 859	8.5900e-001	-1.7052	-36.004274
 860	8.6000e-001	-1.6934	-35.946166
 861	8.6100e-001	-1.6817	-35.883754
 862	8.6200e-001	-1.6692	-35.870841
 863	8.6300e-001	-1.6573	-35.883754
 864	8.6400e-001	-1.6426	-35.795516
 865	8.6500e-001	-1.6303	-35.801972
 866	8.6600e-001	-1.6187	-35.746017
 867	8.6700e-001	-1.6062	-35.692213
 868	8.6800e-001	-1.5968	-35.685757
 869	8.6900e-001	-1.5848	-35.677148
 870	8.7000e-001	-1.5707	-35.563085
 871	8.7100e-001	-1.5604	-35.599671
 872	8.7200e-001	-1.5457	-35.591062
 873	8.7300e-001	-1.5363	-35.479151
 874	8.7400e-001	-1.5243	-35.444717
 875	8.7500e-001	-1.5133	-35.446869
 876	8.7600e-001	-1.4989	-35.401674
 877	8.7700e-001	-1.4899	-35.345718
 878	8.7800e-001	-1.4756	-35.358631
 879	8.7900e-001	-1.4633	-35.300523
 880	8.8000e-001	-1.4523	-35.199372
 881	8.8100e-001	-1.4393	-35.214437
 882	8.8200e-001	-1.4272	-35.199372
 883	8.8300e-001	-1.4140	-35.083157
 884	8.8400e-001	-1.4021	-35.061635
 885	8.8500e-001	-1.3906	-35.091765
 886	8.8600e-001	-1.3789	-35.001375
 887	8.8700e-001	-1.3681	-34.997071
 888	8.8800e-001	-1.3566	-34.938963
 889	8.8900e-001	-1.3438	-34.865790
 890	8.9000e-001	-1.3313	-34.891616
 891	8.9100e-001	-1.3212	-34.872247
 892	8.9200e-001	-1.3098	-34.756031
 893	8.9300e-001	-1.2971	-34.736662
 894	8.9400e-001	-1.2828	-34.712988
 895	8.9500e-001	-1.2730	-34.635511
 896	8.9600e-001	-1.2613	-34.611837
 897	8.9700e-001	-1.2477	-34.540817
 898	8.9800e-001	-1.2354	-34.523600
 899	8.9900e-001	-1.2257	-34.437514
 900	9.0000e-001	-1.2131	-34.431057
 901	9.0100e-001	-1.2014	-34.347124
 902	9.0200e-001	-1.1879	-34.327755
 903	9.0300e-001	-1.1733	-34.284712
 904	9.0400e-001	-1.1644	-34.228756
 905	9.0500e-001	-1.1528	-34.146975
 906	9.0600e-001	-1.1402	-34.164192
 907	9.0700e-001	-1.1253	-34.091019
 908	9.0800e-001	-1.1179	-33.996325
 909	9.0900e-001	-1.1027	-33.998477
 910	9.1000e-001	-1.0910	-33.925304
 911	9.1100e-001	-1.0806	-33.843522
 912	9.1200e-001	-1.0674	-33.826305
 913	9.1300e-001	-1.0579	-33.766045
 914	9.1400e-001	-1.0438	-33.729459
 915	9.1500e-001	-1.0297	-33.675655
 916	9.1600e-001	-1.0206	-33.602482
 917	9.1700e-001	-1.0090	-33.540070
 918	9.1800e-001	-0.9966	-33.514245
 919	9.1900e-001	-0.9822	-33.445376
 920	9.2000e-001	-0.9731	-33.342073
 921	9.2100e-001	-0.9599	-33.322704
 922	9.2200e-001	-0.9483	-33.292574
 923	9.2300e-001	-0.9362	-33.174206
 924	9.2400e-001	-0.9234	-33.161293
 925	9.2500e-001	-0.9118	-33.079512
 926	9.2600e-001	-0.8997	-33.004187
 927	9.2700e-001	-0.8910	-32.920253
 928	9.2800e-001	-0.8755	-32.907340
 929	9.2900e-001	-0.8624	-32.763147
 930	9.3000e-001	-0.8526	-32.730865
 931	9.3100e-001	-0.8400	-32.677061
 932	9.3200e-001	-0.8291	-32.618953
 933	9.3300e-001	-0.8151	-32.519955
 934	9.3400e-001	-0.8024	-32.468303
 935	9.3500e-001	-0.7917	-32.390826
 936	9.3600e-001	-0.7807	-32.283219
 937	9.3700e-001	-0.7684	-32.210046
 938	9.3800e-001	-0.7565	-32.147634
 939	9.3900e-001	-0.7453	-32.061548
 940	9.4000e-001	-0.7327	-31.990527
 941	9.4100e-001	-0.7189	-31.904442
 942	9.4200e-001	-0.7081	-31.779617
 943	9.4300e-001	-0.6940	-31.715053
 944	9.4400e-001	-0.6847	-31.697836
 945	9.4500e-001	-0.6740	-31.514904
 946	9.4600e-001	-0.6605	-31.426666
 947	9.4700e-001	-0.6446	-31.338428
 948	9.4800e-001	-0.6384	-31.217908
 949	9.4900e-001	-0.6242	-31.151192
 950	9.5000e-001	-0.6104	-31.043585
 951	9.5100e-001	-0.5998	-30.912304
 952	9.5200e-001	-0.5882	-30.768110
 953	9.5300e-001	-0.5740	-30.645438
 954	9.5400e-001	-0.5639	-30.516310
 955	9.5500e-001	-0.5537	-30.419463
 956	9.5600e-001	-0.5422	-30.314008
 957	9.5700e-001	-0.5273	-30.159054
 958	9.5800e-001	-0.5146	-30.075120
 959	9.5900e-001	-0.5036	-29.937383
 960	9.6000e-001	-0.4910	-29.763060
 961	9.6100e-001	-0.4778	-29.644692
 962	9.6200e-001	-0.4674	-29.487585
 963	9.6300e-001	-0.4583	-29.345544
 964	9.6400e-001	-0.4419	-29.169068
 965	9.6500e-001	-0.4301	-29.039940
 966	9.6600e-001	-0.4198	-28.846247
 967	9.6700e-001	-0.4086	-28.682684
 968	9.6800e-001	-0.3951	-28.519121
 969	9.6900e-001	-0.3860	-28.310363
 970	9.7000e-001	-0.3724	-28.101605
 971	9.7100e-001	-0.3617	-27.935890
 972	9.7200e-001	-0.3491	-27.768023
 973	9.7300e-001	-0.3352	-27.520527
 974	9.7400e-001	-0.3226	-27.275182
 975	9.7500e-001	-0.3140	-27.118076
 976	9.7600e-001	-0.3024	-26.864123
 977	9.7700e-001	-0.2885	-26.638148
 978	9.7800e-001	-0.2781	-26.410021
 979	9.7900e-001	-0.2649	-26.164677
 980	9.8000e-001	-0.2518	-25.887050
 981	9.8100e-001	-0.2404	-25.637402
 982	9.8200e-001	-0.2272	-25.340406
 983	9.8300e-001	-0.2156	-25.092910
 984	9.8400e-001	-0.2029	-24.810979
 985	9.8500e-001	-0.1933	-24.550570
 986	9.8600e-001	-0.1785	-24.247117
 987	9.8700e-001	-0.1685	-23.922144
 988	9.8800e-001	-0.1570	-23.577801
 989	9.8900e-001	-0.1432	-23.313087
 990	9.9000e-001	-0.1308	-22.947223
 991	9.9100e-001	-0.1192	-22.609337
 992	9.9200e-001	-0.1067	-22.249929
 993	9.9300e-001	-0.0953	-21.955085
 994	9.9400e-001	-0.0829	-21.522505
 995	9.9500e-001	-0.0709	-21.171705
 996	9.9600e-001	-0.0611	-20.784320
 997	9.9700e-001	-0.0472	-20.377565
 998	9.9800e-001	-0.0358	-19.927767
 999	9.9900e-001	-0.0220	-19.594185
1000	1.0000e+000	-0.0117	-19.193886
1001	1.0010e+000	-0.0011	-18.754849
1002	1.0020e+000	0.0118	-18.307203
1003	1.0030e+000	0.0235	-17.896144
1004	1.0040e+000	0.0351	-17.452802
1005	1.0050e+000	0.0484	-16.981483
1006	1.0060e+000	0.0578	-16.561815
1007	1.0070e+000	0.0728	-16.090496
1008	1.0080e+000	0.0845	-15.558917
1009	1.0090e+000	0.0921	-15.100510
1010	1.0100e+000	0.1083	-14.629191
1011	1.0110e+000	0.1195	-14.097612
1012	1.0120e+000	0.1311	-13.572489
1013	1.0130e+000	0.1443	-13.101170
1014	1.0140e+000	0.1553	-12.530852
1015	1.0150e+000	0.1673	-11.997120
1016	1.0160e+000	0.1796	-11.474150
1017	1.0170e+000	0.1946	-10.921049
1018	1.0180e+000	0.2029	-10.365796
1019	1.0190e+000	0.2165	-9.780413
1020	1.0200e+000	0.2278	-9.192878
1021	1.0210e+000	0.2396	-8.661299
1022	1.0220e+000	0.2505	-8.015656
1023	1.0230e+000	0.2651	-7.471164
1024	1.0240e+000	0.2755	-6.823369
1025	1.0250e+000	0.2880	-6.190639
1026	1.0260e+000	0.3015	-5.557909
1027	1.0270e+000	0.3114	-4.974678
1028	1.0280e+000	0.3236	-4.320427
1029	1.0290e+000	0.3361	-3.646806
1030	1.0300e+000	0.3481	-3.003315
1031	1.0310e+000	0.3596	-2.396411
1032	1.0320e+000	0.3726	-1.724942
1033	1.0330e+000	0.3842	-1.062082
1034	1.0340e+000	0.3941	-0.382005
1035	1.0350e+000	0.4083	0.237812
1036	1.0360e+000	0.4215	0.917889
1037	1.0370e+000	0.4317	1.524793
1038	1.0380e+000	0.4449	2.211327
1039	1.0390e+000	0.4576	2.828992
1040	1.0400e+000	0.4662	3.509069
1041	1.0410e+000	0.4788	4.137495
1042	1.0420e+000	0.4932	4.757312
1043	1.0430e+000	0.5038	5.400802
1044	1.0440e+000	0.5146	6.035685
1045	1.0450e+000	0.5285	6.586633
1046	1.0460e+000	0.5400	7.262406
1047	1.0470e+000	0.5536	7.830572
1048	1.0480e+000	0.5638	8.441780
1049	1.0490e+000	0.5738	9.070206
1050	1.0500e+000	0.5892	9.567351
1051	1.0510e+000	0.5994	10.174255
1052	1.0520e+000	0.6115	10.682161
1053	1.0530e+000	0.6230	11.338565
1054	1.0540e+000	0.6376	11.857231
1055	1.0550e+000	0.6485	12.367289
1056	1.0560e+000	0.6606	12.888107
1057	1.0570e+000	0.6702	13.447665
1058	1.0580e+000	0.6816	13.918984
1059	1.0590e+000	0.6949	14.459172
1060	1.0600e+000	0.7052	14.949860
1061	1.0610e+000	0.7190	15.434092
1062	1.0620e+000	0.7330	15.967824
1063	1.0630e+000	0.7447	16.363818
1064	1.0640e+000	0.7552	16.841594
1065	1.0650e+000	0.7695	17.355956
1066	1.0660e+000	0.7807	17.784232
1067	1.0670e+000	0.7887	18.216813
1068	1.0680e+000	0.8037	18.718262
1069	1.0690e+000	0.8163	19.135778
1070	1.0700e+000	0.8277	19.581272
1071	1.0710e+000	0.8403	20.050439
1072	1.0720e+000	0.8503	20.465802
1073	1.0730e+000	0.8630	20.831667
1074	1.0740e+000	0.8768	21.313747
1075	1.0750e+000	0.8861	21.671002
1076	1.0760e+000	0.8997	22.064845
1077	1.0770e+000	0.9118	22.510338
1078	1.0780e+000	0.9246	22.925702
1079	1.0790e+000	0.9360	23.244219
1080	1.0800e+000	0.9491	23.670343
1081	1.0810e+000	0.9597	24.081402
1082	1.0820e+000	0.9710	24.382702
1083	1.0830e+000	0.9862	24.800218
1084	1.0840e+000	0.9995	25.219886
1085	1.0850e+000	1.0070	25.538403
1086	1.0860e+000	1.0215	25.960223
1087	1.0870e+000	1.0318	26.364826
1088	1.0880e+000	1.0458	26.683343
1089	1.0890e+000	1.0557	27.094402
1090	1.0900e+000	1.0680	27.464571
1091	1.0910e+000	1.0771	27.869174
1092	1.0920e+000	1.0929	28.250103
1093	1.0930e+000	1.1019	28.626728
1094	1.0940e+000	1.1155	28.968919
1095	1.0950e+000	1.1298	29.358457
1096	1.0960e+000	1.1423	29.763060
1097	1.0970e+000	1.1527	30.124620
1098	1.0980e+000	1.1629	30.505549
1099	1.0990e+000	1.1758	30.877870
1100	1.1000e+000	1.1886	31.204995
1101	1.1010e+000	1.1982	31.534273
1102	1.1020e+000	1.2130	31.902290
1103	1.1030e+000	1.2259	32.190677
1104	1.1040e+000	1.2344	32.457542
1105	1.1050e+000	1.2489	32.778212
1106	1.1060e+000	1.2601	33.027860
1107	1.1070e+000	1.2695	33.273205
1108	1.1080e+000	1.2838	33.462593
1109	1.1090e+000	1.2968	33.654134
1110	1.1100e+000	1.3061	33.802632
1111	1.1110e+000	1.3206	33.994172
1112	1.1120e+000	1.3308	34.110388
1113	1.1130e+000	1.3422	34.258886
1114	1.1140e+000	1.3569	34.310537
1115	1.1150e+000	1.3680	34.502078
1116	1.1160e+000	1.3779	34.525752
1117	1.1170e+000	1.3892	34.611837
1118	1.1180e+000	1.4035	34.715140
1119	1.1190e+000	1.4147	34.816291
1120	1.1200e+000	1.4272	34.831356
1121	1.1210e+000	1.4399	34.915290
1122	1.1220e+000	1.4513	34.979854
1123	1.1230e+000	1.4635	35.031505
1124	1.1240e+000	1.4774	35.091765
1125	1.1250e+000	1.4887	35.154177
1126	1.1260e+000	1.4992	35.190764
1127	1.1270e+000	1.5116	35.263937
1128	1.1280e+000	1.5216	35.285458
1129	1.1290e+000	1.5369	35.309132
1130	1.1300e+000	1.5491	35.403826
1131	1.1310e+000	1.5607	35.468390
1132	1.1320e+000	1.5713	35.485607
1133	1.1330e+000	1.5827	35.466238
1134	1.1340e+000	1.5961	35.584606
1135	1.1350e+000	1.6064	35.541563
1136	1.1360e+000	1.6187	35.631953
1137	1.1370e+000	1.6329	35.685757
1138	1.1380e+000	1.6421	35.666387
1139	1.1390e+000	1.6559	35.814885
1140	1.1400e+000	1.6669	35.806277
1141	1.1410e+000	1.6808	35.817037
1142	1.1420e+000	1.6888	35.808429
1143	1.1430e+000	1.7047	35.969840
1144	1.1440e+000	1.7169	35.922492
1145	1.1450e+000	1.7275	35.959079
1146	1.1460e+000	1.7422	35.982752
1147	1.1470e+000	1.7500	36.060230
1148	1.1480e+000	1.7636	36.023643
1149	1.1490e+000	1.7742	36.148467
1150	1.1500e+000	1.7889	36.144163
1151	1.1510e+000	1.8008	36.122642
1152	1.1520e+000	1.8103	36.204423
1153	1.1530e+000	1.8254	36.243162
1154	1.1540e+000	1.8377	36.223792
1155	1.1550e+000	1.8481	36.284052
1156	1.1560e+000	1.8599	36.296965
1157	1.1570e+000	1.8714	36.333552
1158	1.1580e+000	1.8842	36.380899
1159	1.1590e+000	1.8956	36.383051
1160	1.1600e+000	1.9098	36.391660
1161	1.1610e+000	1.9200	36.439007
1162	1.1620e+000	1.9347	36.464832
1163	1.1630e+000	1.9434	36.548766
1164	1.1640e+000	1.9559	36.574592
1165	1.1650e+000	1.9695	36.546614
1166	1.1660e+000	1.9811	36.621939
1167	1.1670e+000	1.9920	36.645612
1168	1.1680e+000	2.0037	36.664982
1169	1.1690e+000	2.0146	36.684351
1170	1.1700e+000	2.0280	36.710177
1171	1.1710e+000	2.0422	36.718785
1172	1.1720e+000	2.0511	36.738155
1173	1.1730e+000	2.0632	36.755372
1174	1.1740e+000	2.0760	36.837153
1175	1.1750e+000	2.0878	36.843610
1176	1.1760e+000	2.1021	36.871587
1177	1.1770e+000	2.1111	36.890957
1178	1.1780e+000	2.1243	36.893109
1179	1.1790e+000	2.1360	36.949065
1180	1.1800e+000	2.1476	36.953369
1181	1.1810e+000	2.1613	36.992107
1182	1.1820e+000	2.1721	37.011477
1183	1.1830e+000	2.1835	37.030846
1184	1.1840e+000	2.1960	37.076041
1185	1.1850e+000	2.2087	37.106171
1186	1.1860e+000	2.2227	37.142757
1187	1.1870e+000	2.2312	37.140605
1188	1.1880e+000	2.2415	37.157822
1189	1.1890e+000	2.2565	37.181496
1190	1.1900e+000	2.2683	37.175040
1191	1.1910e+000	2.2810	37.226691
1192	1.1920e+000	2.2914	37.267582
1193	1.1930e+000	2.3029	37.243908
1194	1.1940e+000	2.3173	37.263277
1195	1.1950e+000	2.3277	37.319233
1196	1.1960e+000	2.3383	37.340755
1197	1.1970e+000	2.3524	37.373037
1198	1.1980e+000	2.3639	37.375189
1199	1.1990e+000	2.3773	37.403167
1200	1.2000e+000	2.3864	37.431145
1201	1.2010e+000	2.4008	37.439753
1202	1.2020e+000	2.4122	37.465579
1203	1.2030e+000	2.4257	37.450514
1204	1.2040e+000	2.4348	37.517230
1205	1.2050e+000	2.4492	37.532295
1206	1.2060e+000	2.4606	37.566730
1207	1.2070e+000	2.4722	37.614077
1208	1.2080e+000	2.4848	37.599012
1209	1.2090e+000	2.4970	37.616229
1210	1.2100e+000	2.5097	37.642055
1211	1.2110e+000	2.5214	37.680793
1212	1.2120e+000	2.5327	37.672185
1213	1.2130e+000	2.5444	37.745357
1214	1.2140e+000	2.5568	37.717380
1215	1.2150e+000	2.5678	37.751814
1216	1.2160e+000	2.5784	37.784096
1217	1.2170e+000	2.5894	37.829291
1218	1.2180e+000	2.6037	37.818530
1219	1.2190e+000	2.6147	37.855117
1220	1.2200e+000	2.6273	37.844356
1221	1.2210e+000	2.6386	37.848660
1222	1.2220e+000	2.6510	37.893855
1223	1.2230e+000	2.6634	37.951963
1224	1.2240e+000	2.6768	37.936898
1225	1.2250e+000	2.6891	37.960572
1226	1.2260e+000	2.7015	37.979941
1227	1.2270e+000	2.7132	38.012223
1228	1.2280e+000	2.7251	37.999310
1229	1.2290e+000	2.7376	38.046657
1230	1.2300e+000	2.7477	38.053114
1231	1.2310e+000	2.7609	38.068179
1232	1.2320e+000	2.7734	38.121982
1233	1.2330e+000	2.7865	38.104765
1234	1.2340e+000	2.7952	38.128439
1235	1.2350e+000	2.8088	38.167177
1236	1.2360e+000	2.8187	38.171482
1237	1.2370e+000	2.8323	38.169330
1238	1.2380e+000	2.8448	38.259720
1239	1.2390e+000	2.8580	38.257567
1240	1.2400e+000	2.8693	38.281241
1241	1.2410e+000	2.8794	38.328588
1242	1.2420e+000	2.8940	38.274785
1243	1.2430e+000	2.9051	38.285545
1244	1.2440e+000	2.9156	38.350110
1245	1.2450e+000	2.9298	38.330740
1246	1.2460e+000	2.9401	38.350110
1247	1.2470e+000	2.9516	38.414674
1248	1.2480e+000	2.9663	38.468477
1249	1.2490e+000	2.9771	38.425435
1250	1.2500e+000	2.9879	38.431891
1251	1.2510e+000	2.9981	38.464173
1252	1.2520e+000	2.9889	38.421130
1253	1.2530e+000	2.9758	38.408217
1254	1.2540e+000	2.9637	38.459869
1255	1.2550e+000	2.9532	38.434043
1256	1.2560e+000	2.9391	38.451260
1257	1.2570e+000	2.9293	38.414674
1258	1.2580e+000	2.9153	38.345805
1259	1.2590e+000	2.9044	38.367327
1260	1.2600e+000	2.8941	38.371631
1261	1.2610e+000	2.8803	38.311371
1262	1.2620e+000	2.8691	38.311371
1263	1.2630e+000	2.8556	38.330740
1264	1.2640e+000	2.8439	38.285545
1265	1.2650e+000	2.8327	38.283393
1266	1.2660e+000	2.8202	38.294154
1267	1.2670e+000	2.8097	38.264024
1268	1.2680e+000	2.7976	38.208068
1269	1.2690e+000	2.7831	38.229590
1270	1.2700e+000	2.7733	38.195155
1271	1.2710e+000	2.7603	38.158569
1272	1.2720e+000	2.7480	38.188699
1273	1.2730e+000	2.7374	38.175786
1274	1.2740e+000	2.7251	38.145656
1275	1.2750e+000	2.7123	38.134895
1276	1.2760e+000	2.7013	38.113374
1277	1.2770e+000	2.6897	38.094005
1278	1.2780e+000	2.6767	38.096157
1279	1.2790e+000	2.6659	38.053114
1280	1.2800e+000	2.6526	38.035897
1281	1.2810e+000	2.6411	38.070331
1282	1.2820e+000	2.6287	38.029440
1283	1.2830e+000	2.6185	37.979941
1284	1.2840e+000	2.6068	37.990702
1285	1.2850e+000	2.5904	38.025136
1286	1.2860e+000	2.5802	37.926137
1287	1.2870e+000	2.5696	37.904616
1288	1.2880e+000	2.5561	37.960572
1289	1.2890e+000	2.5450	37.930442
1290	1.2900e+000	2.5336	37.887399
1291	1.2910e+000	2.5214	37.898160
1292	1.2920e+000	2.5101	37.891703
1293	1.2930e+000	2.4969	37.872334
1294	1.2940e+000	2.4839	37.840052
1295	1.2950e+000	2.4726	37.857269
1296	1.2960e+000	2.4599	37.814226
1297	1.2970e+000	2.4482	37.781944
1298	1.2980e+000	2.4364	37.833595
1299	1.2990e+000	2.4258	37.728140
1300	1.3000e+000	2.4107	37.762575
1301	1.3010e+000	2.4007	37.764727
1302	1.3020e+000	2.3868	37.719532
1303	1.3030e+000	2.3767	37.678641
1304	1.3040e+000	2.3638	37.682945
1305	1.3050e+000	2.3534	37.644207
1306	1.3060e+000	2.3381	37.685097
1307	1.3070e+000	2.3293	37.639902
1308	1.3080e+000	2.3164	37.588251
1309	1.3090e+000	2.3048	37.583947
1310	1.3100e+000	2.2939	37.566730
1311	1.3110e+000	2.2784	37.532295
1312	1.3120e+000	2.2687	37.558121
1313	1.3130e+000	2.2561	37.515078
1314	1.3140e+000	2.2434	37.512926
1315	1.3150e+000	2.2318	37.506470
1316	1.3160e+000	2.2218	37.523687
1317	1.3170e+000	2.2076	37.463427
1318	1.3180e+000	2.1966	37.448362
1319	1.3190e+000	2.1827	37.426840
1320	1.3200e+000	2.1709	37.401015
1321	1.3210e+000	2.1590	37.366580
1322	1.3220e+000	2.1497	37.364428
1323	1.3230e+000	2.1364	37.364428
1324	1.3240e+000	2.1231	37.323537
1325	1.3250e+000	2.1124	37.304168
1326	1.3260e+000	2.0987	37.284799
1327	1.3270e+000	2.0893	37.310625
1328	1.3280e+000	2.0780	37.265430
1329	1.3290e+000	2.0632	37.228843
1330	1.3300e+000	2.0521	37.248212
1331	1.3310e+000	2.0425	37.196561
1332	1.3320e+000	2.0280	37.215930
1333	1.3330e+000	2.0132	37.177192
1334	1.3340e+000	2.0033	37.170735
1335	1.3350e+000	1.9920	37.114780
1336	1.3360e+000	1.9808	37.080345
1337	1.3370e+000	1.9685	37.129845
1338	1.3380e+000	1.9566	37.116932
1339	1.3390e+000	1.9435	37.088954
1340	1.3400e+000	1.9312	37.080345
1341	1.3410e+000	1.9202	37.050215
1342	1.3420e+000	1.9098	36.998564
1343	1.3430e+000	1.8974	36.996412
1344	1.3440e+000	1.8828	36.994260
1345	1.3450e+000	1.8736	36.938304
1346	1.3460e+000	1.8597	36.968434
1347	1.3470e+000	1.8485	36.940456
1348	1.3480e+000	1.8358	36.908174
1349	1.3490e+000	1.8246	36.893109
1350	1.3500e+000	1.8137	36.839305
1351	1.3510e+000	1.7980	36.845762
1352	1.3520e+000	1.7868	36.852218
1353	1.3530e+000	1.7733	36.787654
1354	1.3540e+000	1.7632	36.783350
1355	1.3550e+000	1.7519	36.755372
1356	1.3560e+000	1.7398	36.720937
1357	1.3570e+000	1.7284	36.720937
1358	1.3580e+000	1.7159	36.740307
1359	1.3590e+000	1.7037	36.690807
1360	1.3600e+000	1.6907	36.639156
1361	1.3610e+000	1.6792	36.669286
1362	1.3620e+000	1.6661	36.654221
1363	1.3630e+000	1.6575	36.587505
1364	1.3640e+000	1.6460	36.578896
1365	1.3650e+000	1.6309	36.559527
1366	1.3660e+000	1.6190	36.520788
1367	1.3670e+000	1.6087	36.544462
1368	1.3680e+000	1.5961	36.520788
1369	1.3690e+000	1.5829	36.507875
1370	1.3700e+000	1.5721	36.492810
1371	1.3710e+000	1.5588	36.449767
1372	1.3720e+000	1.5507	36.451920
1373	1.3730e+000	1.5351	36.421790
1374	1.3740e+000	1.5250	36.391660
1375	1.3750e+000	1.5118	36.350769
1376	1.3760e+000	1.4992	36.324943
1377	1.3770e+000	1.4870	36.316335
1378	1.3780e+000	1.4756	36.260379
1379	1.3790e+000	1.4652	36.286205
1380	1.3800e+000	1.4524	36.271140
1381	1.3810e+000	1.4404	36.238857
1382	1.3820e+000	1.4272	36.152772
1383	1.3830e+000	1.4162	36.219488
1384	1.3840e+000	1.4037	36.148467
1385	1.3850e+000	1.3911	36.118337
1386	1.3860e+000	1.3796	36.114033
1387	1.3870e+000	1.3689	36.131250
1388	1.3880e+000	1.3564	36.036556
1389	1.3890e+000	1.3442	36.051621
1390	1.3900e+000	1.3306	36.045165
1391	1.3910e+000	1.3214	35.963383
1392	1.3920e+000	1.3086	35.982752
1393	1.3930e+000	1.2951	35.995665
1394	1.3940e+000	1.2826	35.952622
1395	1.3950e+000	1.2709	35.885906
1396	1.3960e+000	1.2601	35.924645
1397	1.3970e+000	1.2480	35.905275
1398	1.3980e+000	1.2374	35.851472
1399	1.3990e+000	1.2255	35.836407
1400	1.4000e+000	1.2148	35.752473
1401	1.4010e+000	1.2007	35.750321
1402	1.4020e+000	1.1876	35.756777
1403	1.4030e+000	1.1761	35.750321
1404	1.4040e+000	1.1652	35.685757
1405	1.4050e+000	1.1530	35.707278
1406	1.4060e+000	1.1393	35.679300
1407	1.4070e+000	1.1281	35.608280
1408	1.4080e+000	1.1164	35.616888
1409	1.4090e+000	1.1034	35.558780
1410	1.4100e+000	1.0908	35.545867
1411	1.4110e+000	1.0815	35.558780
1412	1.4120e+000	1.0681	35.513585
1413	1.4130e+000	1.0574	35.457630
1414	1.4140e+000	1.0448	35.461934
1415	1.4150e+000	1.0327	35.418891
1416	1.4160e+000	1.0196	35.384457
1417	1.4170e+000	1.0074	35.354327
1418	1.4180e+000	0.9947	35.317740
1419	1.4190e+000	0.9860	35.300523
1420	1.4200e+000	0.9715	35.238111
1421	1.4210e+000	0.9595	35.291915
1422	1.4220e+000	0.9478	35.225198
1423	1.4230e+000	0.9356	35.192916
1424	1.4240e+000	0.9232	35.162786
1425	1.4250e+000	0.9109	35.160634
1426	1.4260e+000	0.8988	35.083157
1427	1.4270e+000	0.8852	35.113287
1428	1.4280e+000	0.8748	35.050875
1429	1.4290e+000	0.8639	35.020745
1430	1.4300e+000	0.8524	35.003527
1431	1.4310e+000	0.8415	34.947572
1432	1.4320e+000	0.8257	34.921746
1433	1.4330e+000	0.8157	34.932507
1434	1.4340e+000	0.8051	34.872247
1435	1.4350e+000	0.7923	34.790465
1436	1.4360e+000	0.7806	34.801226
1437	1.4370e+000	0.7657	34.775400
1438	1.4380e+000	0.7552	34.708684
1439	1.4390e+000	0.7447	34.706532
1440	1.4400e+000	0.7294	34.644120
1441	1.4410e+000	0.7208	34.592468
1442	1.4420e+000	0.7076	34.573099
1443	1.4430e+000	0.6942	34.575251
1444	1.4440e+000	0.6841	34.504230
1445	1.4450e+000	0.6712	34.465492
1446	1.4460e+000	0.6615	34.450427
1447	1.4470e+000	0.6497	34.394471
1448	1.4480e+000	0.6369	34.325602
1449	1.4490e+000	0.6243	34.314842
1450	1.4500e+000	0.6107	34.217995
1451	1.4510e+000	0.6001	34.213691
1452	1.4520e+000	0.5882	34.217995
1453	1.4530e+000	0.5746	34.146975
1454	1.4540e+000	0.5632	34.097475
1455	1.4550e+000	0.5495	34.004933
1456	1.4560e+000	0.5402	33.966195
1457	1.4570e+000	0.5282	33.905935
1458	1.4580e+000	0.5154	33.890870
1459	1.4590e+000	0.5042	33.804784
1460	1.4600e+000	0.4909	33.735915
1461	1.4610e+000	0.4772	33.686416
1462	1.4620e+000	0.4666	33.628308
1463	1.4630e+000	0.4557	33.542222
1464	1.4640e+000	0.4441	33.469050
1465	1.4650e+000	0.4308	33.451832
1466	1.4660e+000	0.4204	33.318400
1467	1.4670e+000	0.4072	33.232314
1468	1.4680e+000	0.3941	33.169902
1469	1.4690e+000	0.3832	33.064447
1470	1.4700e+000	0.3719	32.976209
1471	1.4710e+000	0.3620	32.859993
1472	1.4720e+000	0.3470	32.741625
1473	1.4730e+000	0.3391	32.646931
1474	1.4740e+000	0.3249	32.530715
1475	1.4750e+000	0.3122	32.349935
1476	1.4760e+000	0.3005	32.192829
1477	1.4770e+000	0.2859	32.050787
1478	1.4780e+000	0.2757	31.867855
1479	1.4790e+000	0.2612	31.695684
1480	1.4800e+000	0.2536	31.482622
1481	1.4810e+000	0.2386	31.250190
1482	1.4820e+000	0.2296	30.983325
1483	1.4830e+000	0.2134	30.759502
1484	1.4840e+000	0.2020	30.481875
1485	1.4850e+000	0.1929	30.189184
1486	1.4860e+000	0.1780	29.857754
1487	1.4870e+000	0.1670	29.554302
1488	1.4880e+000	0.1548	29.121721
1489	1.4890e+000	0.1431	28.753705
1490	1.4900e+000	0.1313	28.342645
1491	1.4910e+000	0.1204	27.905760
1492	1.4920e+000	0.1115	27.352660
1493	1.4930e+000	0.0983	26.932992
1494	1.4940e+000	0.0803	26.334696
1495	1.4950e+000	0.0700	25.768682
1496	1.4960e+000	0.0610	25.217734
1497	1.4970e+000	0.0461	24.569939
1498	1.4980e+000	0.0372	23.941513
1499	1.4990e+000	0.0237	23.293718
1500	1.5000e+000	0.0104	22.596424
1501	1.5010e+000	0.0007	21.881912
1502	1.5020e+000	-0.0114	21.163097
1503	1.5030e+000	-0.0237	20.424912
1504	1.5040e+000	-0.0330	19.656597
1505	1.5050e+000	-0.0471	18.909803
1506	1.5060e+000	-0.0577	18.068315
1507	1.5070e+000	-0.0717	17.259110
1508	1.5080e+000	-0.0843	16.434839
1509	1.5090e+000	-0.0983	15.511570
1510	1.5100e+000	-0.1054	14.680842
1511	1.5110e+000	-0.1207	13.811377
1512	1.5120e+000	-0.1315	12.933302
1513	1.5130e+000	-0.1439	12.018642
1514	1.5140e+000	-0.1553	11.157785
1515	1.5150e+000	-0.1682	10.249580
1516	1.5160e+000	-0.1804	9.278964
1517	1.5170e+000	-0.1898	8.379368
1518	1.5180e+000	-0.2043	7.464707
1519	1.5190e+000	-0.2172	6.571568
1520	1.5200e+000	-0.2258	5.663364
1521	1.5210e+000	-0.2374	4.776681
1522	1.5220e+000	-0.2490	3.911520
1523	1.5230e+000	-0.2621	3.018380
1524	1.5240e+000	-0.2740	2.138154
1525	1.5250e+000	-0.2856	1.277297
1526	1.5260e+000	-0.2987	0.485308
1527	1.5270e+000	-0.3134	-0.351875
1528	1.5280e+000	-0.3230	-1.156777
1529	1.5290e+000	-0.3364	-1.931548
1530	1.5300e+000	-0.3468	-2.678342
1531	1.5310e+000	-0.3587	-3.429440
1532	1.5320e+000	-0.3719	-4.113821
1533	1.5330e+000	-0.3835	-4.813267
1534	1.5340e+000	-0.3966	-5.523475
1535	1.5350e+000	-0.4082	-6.162661
1536	1.5360e+000	-0.4208	-6.804000
1537	1.5370e+000	-0.4318	-7.464707
1538	1.5380e+000	-0.4440	-8.041482
1539	1.5390e+000	-0.4565	-8.639777
1540	1.5400e+000	-0.4677	-9.188574
1541	1.5410e+000	-0.4805	-9.778261
1542	1.5420e+000	-0.4921	-10.337818
1543	1.5430e+000	-0.5029	-10.839267
1544	1.5440e+000	-0.5172	-11.357934
1545	1.5450e+000	-0.5267	-11.898122
1546	1.5460e+000	-0.5397	-12.375897
1547	1.5470e+000	-0.5520	-12.864434
1548	1.5480e+000	-0.5656	-13.376644
1549	1.5490e+000	-0.5761	-13.850115
1550	1.5500e+000	-0.5849	-14.297761
1551	1.5510e+000	-0.5997	-14.745407
1552	1.5520e+000	-0.6126	-15.208117
1553	1.5530e+000	-0.6229	-15.640698
1554	1.5540e+000	-0.6351	-16.099105
1555	1.5550e+000	-0.6461	-16.518772
1556	1.5560e+000	-0.6594	-16.931984
1557	1.5570e+000	-0.6699	-17.295696
1558	1.5580e+000	-0.6844	-17.749798
1559	1.5590e+000	-0.6956	-18.165162
1560	1.5600e+000	-0.7098	-18.537482
1561	1.5610e+000	-0.7207	-18.974367
1562	1.5620e+000	-0.7314	-19.314406
1563	1.5630e+000	-0.7419	-19.686727
1564	1.5640e+000	-0.7543	-20.080569
1565	1.5650e+000	-0.7687	-20.459346
1566	1.5660e+000	-0.7800	-20.846732
1567	1.5670e+000	-0.7912	-21.193227
1568	1.5680e+000	-0.8021	-21.535417
1569	1.5690e+000	-0.8180	-21.871152
1570	1.5700e+000	-0.8276	-22.239168
1571	1.5710e+000	-0.8391	-22.540468
1572	1.5720e+000	-0.8542	-22.884811
1573	1.5730e+000	-0.8650	-23.233458
1574	1.5740e+000	-0.8754	-23.556280
1575	1.5750e+000	-0.8872	-23.831754
1576	1.5760e+000	-0.9013	-24.139510
1577	1.5770e+000	-0.9144	-24.479549
1578	1.5780e+000	-0.9232	-24.739958
1579	1.5790e+000	-0.9339	-25.032650
1580	1.5800e+000	-0.9482	-25.364080
1581	1.5810e+000	-0.9615	-25.615880
1582	1.5820e+000	-0.9704	-25.856920
1583	1.5830e+000	-0.9843	-26.162525
1584	1.5840e+000	-0.9951	-26.414325
1585	1.5850e+000	-1.0094	-26.668278
1586	1.5860e+000	-1.0206	-26.948057
1587	1.5870e+000	-1.0325	-27.202010
1588	1.5880e+000	-1.0448	-27.387094
1589	1.5890e+000	-1.0551	-27.649655
1590	1.5900e+000	-1.0682	-27.886391
1591	1.5910e+000	-1.0773	-28.092997
1592	1.5920e+000	-1.0910	-28.290994
1593	1.5930e+000	-1.1037	-28.521273
1594	1.5940e+000	-1.1158	-28.717118
1595	1.5950e+000	-1.1285	-28.934485
1596	1.5960e+000	-1.1396	-29.143242
1597	1.5970e+000	-1.1538	-29.302501
1598	1.5980e+000	-1.1632	-29.487585
1599	1.5990e+000	-1.1769	-29.681278
1600	1.6000e+000	-1.1877	-29.846993
1601	1.6010e+000	-1.2007	-30.040686
1602	1.6020e+000	-1.2125	-30.195640
1603	1.6030e+000	-1.2247	-30.326921
1604	1.6040e+000	-1.2350	-30.542135
1605	1.6050e+000	-1.2490	-30.677720
1606	1.6060e+000	-1.2609	-30.806849
1607	1.6070e+000	-1.2695	-30.944586
1608	1.6080e+000	-1.2836	-31.114605
1609	1.6090e+000	-1.2955	-31.207147
1610	1.6100e+000	-1.3100	-31.321211
1611	1.6110e+000	-1.3197	-31.465405
1612	1.6120e+000	-1.3325	-31.592381
1613	1.6130e+000	-1.3441	-31.689227
1614	1.6140e+000	-1.3581	-31.874312
1615	1.6150e+000	-1.3697	-31.953941
1616	1.6160e+000	-1.3810	-32.042179
1617	1.6170e+000	-1.3937	-32.177764
1618	1.6180e+000	-1.4043	-32.302588
1619	1.6190e+000	-1.4189	-32.315501
1620	1.6200e+000	-1.4274	-32.491977
1621	1.6210e+000	-1.4417	-32.582367
1622	1.6220e+000	-1.4534	-32.694278
1623	1.6230e+000	-1.4642	-32.760995
1624	1.6240e+000	-1.4756	-32.872906
1625	1.6250e+000	-1.4865	-32.939622
1626	1.6260e+000	-1.4983	-33.034317
1627	1.6270e+000	-1.5142	-33.105337
1628	1.6280e+000	-1.5237	-33.202184
1629	1.6290e+000	-1.5371	-33.296878
1630	1.6300e+000	-1.5478	-33.400181
1631	1.6310e+000	-1.5601	-33.460441
1632	1.6320e+000	-1.5723	-33.525005
1633	1.6330e+000	-1.5865	-33.619700
1634	1.6340e+000	-1.5976	-33.688568
1635	1.6350e+000	-1.6086	-33.692872
1636	1.6360e+000	-1.6207	-33.837066
1637	1.6370e+000	-1.6331	-33.890870
1638	1.6380e+000	-1.6447	-33.933912
1639	1.6390e+000	-1.6566	-34.041520
1640	1.6400e+000	-1.6687	-34.099627
1641	1.6410e+000	-1.6813	-34.159887
1642	1.6420e+000	-1.6922	-34.226604
1643	1.6430e+000	-1.7020	-34.286864
1644	1.6440e+000	-1.7166	-34.327755
1645	1.6450e+000	-1.7308	-34.405232
1646	1.6460e+000	-1.7413	-34.493470
1647	1.6470e+000	-1.7522	-34.534360
1648	1.6480e+000	-1.7631	-34.553730
1649	1.6490e+000	-1.7761	-34.648424
1650	1.6500e+000	-1.7889	-34.687162
1651	1.6510e+000	-1.8001	-34.732357
1652	1.6520e+000	-1.8118	-34.816291
1653	1.6530e+000	-1.8248	-34.855030
1654	1.6540e+000	-1.8346	-34.917442
1655	1.6550e+000	-1.8472	-34.999223
1656	1.6560e+000	-1.8584	-35.059483
1657	1.6570e+000	-1.8742	-35.042266
1658	1.6580e+000	-1.8845	-35.160634
1659	1.6590e+000	-1.8983	-35.182155
1660	1.6600e+000	-1.9065	-35.195068
1661	1.6610e+000	-1.9215	-35.266089
1662	1.6620e+000	-1.9308	-35.345718
1663	1.6630e+000	-1.9444	-35.326349
1664	1.6640e+000	-1.9534	-35.438260
1665	1.6650e+000	-1.9665	-35.485607
1666	1.6660e+000	-1.9796	-35.474847
1667	1.6670e+000	-1.9932	-35.569541
1668	1.6680e+000	-2.0044	-35.599671
1669	1.6690e+000	-2.0127	-35.653475
1670	1.6700e+000	-2.0293	-35.690061
1671	1.6710e+000	-2.0415	-35.758930
1672	1.6720e+000	-2.0516	-35.763234
1673	1.6730e+000	-2.0644	-35.799820
1674	1.6740e+000	-2.0761	-35.918188
1675	1.6750e+000	-2.0873	-35.913884
1676	1.6760e+000	-2.0977	-35.928949
1677	1.6770e+000	-2.1122	-36.021491
1678	1.6780e+000	-2.1259	-36.021491
1679	1.6790e+000	-2.1363	-36.062382
1680	1.6800e+000	-2.1482	-36.098968
1681	1.6810e+000	-2.1597	-36.169989
1682	1.6820e+000	-2.1727	-36.176445
1683	1.6830e+000	-2.1851	-36.266835
1684	1.6840e+000	-2.1957	-36.266835
1685	1.6850e+000	-2.2086	-36.294813
1686	1.6860e+000	-2.2211	-36.415333
1687	1.6870e+000	-2.2334	-36.421790
1688	1.6880e+000	-2.2425	-36.423942
1689	1.6890e+000	-2.2579	-36.533701
1690	1.6900e+000	-2.2666	-36.522940
1691	1.6910e+000	-2.2800	-36.565983
1692	1.6920e+000	-2.2902	-36.624091
1693	1.6930e+000	-2.3057	-36.639156
1694	1.6940e+000	-2.3170	-36.662830
1695	1.6950e+000	-2.3293	-36.716633
1696	1.6960e+000	-2.3409	-36.753220
1697	1.6970e+000	-2.3529	-36.746763
1698	1.6980e+000	-2.3664	-36.817784
1699	1.6990e+000	-2.3762	-36.890957
1700	1.7000e+000	-2.3907	-36.858675
1701	1.7010e+000	-2.3997	-36.910326
1702	1.7020e+000	-2.4108	-36.968434
1703	1.7030e+000	-2.4253	-36.972738
1704	1.7040e+000	-2.4352	-37.035150
1705	1.7050e+000	-2.4477	-37.060976
1706	1.7060e+000	-2.4604	-37.095410
1707	1.7070e+000	-2.4703	-37.138453
1708	1.7080e+000	-2.4859	-37.187952
1709	1.7090e+000	-2.4973	-37.213778
1710	1.7100e+000	-2.5064	-37.230995
1711	1.7110e+000	-2.5199	-37.269734
1712	1.7120e+000	-2.5322	-37.280495
1713	1.7130e+000	-2.5467	-37.329994
1714	1.7140e+000	-2.5541	-37.401015
1715	1.7150e+000	-2.5687	-37.396710
1716	1.7160e+000	-2.5805	-37.435449
1717	1.7170e+000	-2.5936	-37.450514
1718	1.7180e+000	-2.6045	-37.461275
1719	1.7190e+000	-2.6166	-37.508622
1720	1.7200e+000	-2.6289	-37.581795
1721	1.7210e+000	-2.6411	-37.549512
1722	1.7220e+000	-2.6530	-37.611925
1723	1.7230e+000	-2.6640	-37.646359
1724	1.7240e+000	-2.6743	-37.687250
1725	1.7250e+000	-2.6896	-37.708771
1726	1.7260e+000	-2.6984	-37.732445
1727	1.7270e+000	-2.7111	-37.809922
1728	1.7280e+000	-2.7270	-37.781944
1729	1.7290e+000	-2.7374	-37.844356
1730	1.7300e+000	-2.7488	-37.919681
1731	1.7310e+000	-2.7611	-37.870182
1732	1.7320e+000	-2.7740	-37.945507
1733	1.7330e+000	-2.7837	-37.986397
1734	1.7340e+000	-2.7956	-38.016527
1735	1.7350e+000	-2.8085	-37.997158
1736	1.7360e+000	-2.8189	-38.040201
1737	1.7370e+000	-2.8319	-38.085396
1738	1.7380e+000	-2.8452	-38.072483
1739	1.7390e+000	-2.8563	-38.137047
1740	1.7400e+000	-2.8690	-38.186547
1741	1.7410e+000	-2.8806	-38.195155
1742	1.7420e+000	-2.8922	-38.208068
1743	1.7430e+000	-2.9066	-38.266176
1744	1.7440e+000	-2.9158	-38.272632
1745	1.7450e+000	-2.9292	-38.309219
1746	1.7460e+000	-2.9390	-38.335045
1747	1.7470e+000	-2.9514	-38.337197
1748	1.7480e+000	-2.9641	-38.384544
1749	1.7490e+000	-2.9766	-38.451260
1750	1.7500e+000	-2.9892	-38.399609
1751	1.7510e+000	-3.0020	-38.468477
1752	1.7520e+000	-2.9867	-38.455565
1753	1.7530e+000	-2.9774	-38.440500
1754	1.7540e+000	-2.9640	-38.427587
1755	1.7550e+000	-2.9515	-38.401761
1756	1.7560e+000	-2.9385	-38.406065
1757	1.7570e+000	-2.9286	-38.371631
1758	1.7580e+000	-2.9158	-38.356566
1759	1.7590e+000	-2.9071	-38.328588
1760	1.7600e+000	-2.8923	-38.350110
1761	1.7610e+000	-2.8809	-38.311371
1762	1.7620e+000	-2.8698	-38.292002
1763	1.7630e+000	-2.8572	-38.294154
1764	1.7640e+000	-2.8444	-38.307067
1765	1.7650e+000	-2.8311	-38.240350
1766	1.7660e+000	-2.8206	-38.255415
1767	1.7670e+000	-2.8056	-38.212372
1768	1.7680e+000	-2.7956	-38.182242
1769	1.7690e+000	-2.7864	-38.167177
1770	1.7700e+000	-2.7726	-38.171482
1771	1.7710e+000	-2.7604	-38.177938
1772	1.7720e+000	-2.7472	-38.100461
1773	1.7730e+000	-2.7376	-38.063875
1774	1.7740e+000	-2.7239	-38.100461
1775	1.7750e+000	-2.7106	-38.057418
1776	1.7760e+000	-2.7019	-38.010071
1777	1.7770e+000	-2.6856	-38.044505
1778	1.7780e+000	-2.6757	-37.986397
1779	1.7790e+000	-2.6638	-37.999310
1780	1.7800e+000	-2.6493	-37.986397
1781	1.7810e+000	-2.6400	-37.962724
1782	1.7820e+000	-2.6279	-37.926137
1783	1.7830e+000	-2.6142	-37.911072
1784	1.7840e+000	-2.6029	-37.919681
1785	1.7850e+000	-2.5912	-37.842204
1786	1.7860e+000	-2.5813	-37.870182
1787	1.7870e+000	-2.5684	-37.833595
1788	1.7880e+000	-2.5548	-37.797009
1789	1.7890e+000	-2.5465	-37.766879
1790	1.7900e+000	-2.5327	-37.769031
1791	1.7910e+000	-2.5211	-37.797009
1792	1.7920e+000	-2.5085	-37.743205
1793	1.7930e+000	-2.4948	-37.680793
1794	1.7940e+000	-2.4830	-37.670032
1795	1.7950e+000	-2.4728	-37.646359
1796	1.7960e+000	-2.4625	-37.659272
1797	1.7970e+000	-2.4478	-37.586099
1798	1.7980e+000	-2.4385	-37.549512
1799	1.7990e+000	-2.4232	-37.566730
1800	1.8000e+000	-2.4113	-37.545208
1801	1.8010e+000	-2.4007	-37.534447
1802	1.8020e+000	-2.3893	-37.512926
1803	1.8030e+000	-2.3763	-37.474187
1804	1.8040e+000	-2.3640	-37.450514
1805	1.8050e+000	-2.3543	-37.461275
1806	1.8060e+000	-2.3405	-37.459122
1807	1.8070e+000	-2.3280	-37.392406
1808	1.8080e+000	-2.3192	-37.353667
1809	1.8090e+000	-2.3036	-37.351515
1810	1.8100e+000	-2.2917	-37.306320
1811	1.8110e+000	-2.2797	-37.310625
1812	1.8120e+000	-2.2687	-37.295560
1813	1.8130e+000	-2.2575	-37.211626
1814	1.8140e+000	-2.2426	-37.220235
1815	1.8150e+000	-2.2312	-37.183648
1816	1.8160e+000	-2.2167	-37.196561
1817	1.8170e+000	-2.2091	-37.121236
1818	1.8180e+000	-2.1965	-37.101867
1819	1.8190e+000	-2.1814	-37.108323
1820	1.8200e+000	-2.1714	-37.069585
1821	1.8210e+000	-2.1590	-37.048063
1822	1.8220e+000	-2.1491	-37.030846
1823	1.8230e+000	-2.1366	-37.024390
1824	1.8240e+000	-2.1237	-37.002868
1825	1.8250e+000	-2.1096	-36.961977
1826	1.8260e+000	-2.0988	-36.929695
1827	1.8270e+000	-2.0892	-36.949065
1828	1.8280e+000	-2.0769	-36.871587
1829	1.8290e+000	-2.0634	-36.845762
1830	1.8300e+000	-2.0506	-36.819936
1831	1.8310e+000	-2.0395	-36.755372
1832	1.8320e+000	-2.0279	-36.759676
1833	1.8330e+000	-2.0178	-36.753220
1834	1.8340e+000	-2.0030	-36.699416
1835	1.8350e+000	-1.9917	-36.645612
1836	1.8360e+000	-1.9791	-36.662830
1837	1.8370e+000	-1.9663	-36.628395
1838	1.8380e+000	-1.9575	-36.596113
1839	1.8390e+000	-1.9433	-36.559527
1840	1.8400e+000	-1.9315	-36.546614
1841	1.8410e+000	-1.9201	-36.501419
1842	1.8420e+000	-1.9104	-36.451920
1843	1.8430e+000	-1.8940	-36.439007
1844	1.8440e+000	-1.8817	-36.439007
1845	1.8450e+000	-1.8732	-36.408877
1846	1.8460e+000	-1.8575	-36.357225
1847	1.8470e+000	-1.8470	-36.361530
1848	1.8480e+000	-1.8354	-36.365834
1849	1.8490e+000	-1.8255	-36.292661
1850	1.8500e+000	-1.8118	-36.241010
1851	1.8510e+000	-1.8003	-36.241010
1852	1.8520e+000	-1.7873	-36.215184
1853	1.8530e+000	-1.7769	-36.159228
1854	1.8540e+000	-1.7646	-36.139859
1855	1.8550e+000	-1.7530	-36.101120
1856	1.8560e+000	-1.7397	-36.049469
1857	1.8570e+000	-1.7283	-36.021491
1858	1.8580e+000	-1.7153	-36.017187
1859	1.8590e+000	-1.7053	-35.978448
1860	1.8600e+000	-1.6909	-35.900971
1861	1.8610e+000	-1.6798	-35.933253
1862	1.8620e+000	-1.6682	-35.926797
1863	1.8630e+000	-1.6544	-35.870841
1864	1.8640e+000	-1.6447	-35.819190
1865	1.8650e+000	-1.6338	-35.776147
1866	1.8660e+000	-1.6183	-35.735256
1867	1.8670e+000	-1.6050	-35.692213
1868	1.8680e+000	-1.5971	-35.679300
1869	1.8690e+000	-1.5835	-35.638410
1870	1.8700e+000	-1.5746	-35.552324
1871	1.8710e+000	-1.5594	-35.586758
1872	1.8720e+000	-1.5489	-35.552324
1873	1.8730e+000	-1.5382	-35.509281
1874	1.8740e+000	-1.5253	-35.459782
1875	1.8750e+000	-1.5130	-35.433956
1876	1.8760e+000	-1.4986	-35.397370
1877	1.8770e+000	-1.4886	-35.341414
1878	1.8780e+000	-1.4745	-35.289762
1879	1.8790e+000	-1.4643	-35.283306
1880	1.8800e+000	-1.4519	-35.240263
1881	1.8810e+000	-1.4400	-35.214437
1882	1.8820e+000	-1.4268	-35.164938
1883	1.8830e+000	-1.4143	-35.087461
1884	1.8840e+000	-1.4033	-35.074548
1885	1.8850e+000	-1.3913	-35.009984
1886	1.8860e+000	-1.3790	-34.977702
1887	1.8870e+000	-1.3679	-34.960485
1888	1.8880e+000	-1.3593	-34.947572
1889	1.8890e+000	-1.3447	-34.870095
1890	1.8900e+000	-1.3308	-34.844269
1891	1.8910e+000	-1.3179	-34.784009
1892	1.8920e+000	-1.3097	-34.740966
1893	1.8930e+000	-1.2967	-34.706532
1894	1.8940e+000	-1.2849	-34.654880
1895	1.8950e+000	-1.2740	-34.611837
1896	1.8960e+000	-1.2594	-34.551577
1897	1.8970e+000	-1.2485	-34.579555
1898	1.8980e+000	-1.2351	-34.465492
1899	1.8990e+000	-1.2248	-34.493470
1900	1.9000e+000	-1.2141	-34.433210
1901	1.9010e+000	-1.2020	-34.355732
1902	1.9020e+000	-1.1874	-34.312690
1903	1.9030e+000	-1.1772	-34.284712
1904	1.9040e+000	-1.1632	-34.224452
1905	1.9050e+000	-1.1508	-34.116845
1906	1.9060e+000	-1.1398	-34.140518
1907	1.9070e+000	-1.1290	-34.060889
1908	1.9080e+000	-1.1172	-34.007085
1909	1.9090e+000	-1.1037	-33.957586
1910	1.9100e+000	-1.0925	-33.931760
1911	1.9110e+000	-1.0788	-33.888717
1912	1.9120e+000	-1.0674	-33.800480
1913	1.9130e+000	-1.0551	-33.750980
1914	1.9140e+000	-1.0441	-33.697177
1915	1.9150e+000	-1.0317	-33.636917
1916	1.9160e+000	-1.0209	-33.628308
1917	1.9170e+000	-1.0083	-33.531462
1918	1.9180e+000	-0.9937	-33.494875
1919	1.9190e+000	-0.9834	-33.438920
1920	1.9200e+000	-0.9740	-33.339921
1921	1.9210e+000	-0.9599	-33.309791
1922	1.9220e+000	-0.9457	-33.290422
1923	1.9230e+000	-0.9349	-33.172054
1924	1.9240e+000	-0.9227	-33.051534
1925	1.9250e+000	-0.9121	-33.038621
1926	1.9260e+000	-0.9019	-32.991274
1927	1.9270e+000	-0.8891	-32.918101
1928	1.9280e+000	-0.8749	-32.915949
1929	1.9290e+000	-0.8649	-32.808342
1930	1.9300e+000	-0.8525	-32.717952
1931	1.9310e+000	-0.8385	-32.672757
1932	1.9320e+000	-0.8284	-32.558693
1933	1.9330e+000	-0.8170	-32.489825
1934	1.9340e+000	-0.8031	-32.463999
1935	1.9350e+000	-0.7901	-32.384370
1936	1.9360e+000	-0.7816	-32.304740
1937	1.9370e+000	-0.7688	-32.214350
1938	1.9380e+000	-0.7558	-32.130417
1939	1.9390e+000	-0.7448	-32.009897
1940	1.9400e+000	-0.7327	-31.977615
1941	1.9410e+000	-0.7194	-31.863551
1942	1.9420e+000	-0.7038	-31.717205
1943	1.9430e+000	-0.6964	-31.719357
1944	1.9440e+000	-0.6836	-31.613902
1945	1.9450e+000	-0.6716	-31.480470
1946	1.9460e+000	-0.6583	-31.422362
1947	1.9470e+000	-0.6483	-31.276016
1948	1.9480e+000	-0.6362	-31.202843
1949	1.9490e+000	-0.6258	-31.088780
1950	1.9500e+000	-0.6144	-31.000542
1951	1.9510e+000	-0.6001	-30.877870
1952	1.9520e+000	-0.5885	-30.768110
1953	1.9530e+000	-0.5797	-30.634677
1954	1.9540e+000	-0.5642	-30.546440
1955	1.9550e+000	-0.5520	-30.372116
1956	1.9560e+000	-0.5415	-30.288182
1957	1.9570e+000	-0.5267	-30.150445
1958	1.9580e+000	-0.5165	-30.032077
1959	1.9590e+000	-0.5039	-29.890036
1960	1.9600e+000	-0.4942	-29.795342
1961	1.9610e+000	-0.4804	-29.616714
1962	1.9620e+000	-0.4673	-29.435934
1963	1.9630e+000	-0.4549	-29.298197
1964	1.9640e+000	-0.4461	-29.126025
1965	1.9650e+000	-0.4301	-28.975375
1966	1.9660e+000	-0.4193	-28.768770
1967	1.9670e+000	-0.4078	-28.598750
1968	1.9680e+000	-0.3943	-28.426579
1969	1.9690e+000	-0.3854	-28.303907
1970	1.9700e+000	-0.3693	-28.060715
1971	1.9710e+000	-0.3612	-27.849805
1972	1.9720e+000	-0.3478	-27.722828
1973	1.9730e+000	-0.3350	-27.458115
1974	1.9740e+000	-0.3242	-27.234292
1975	1.9750e+000	-0.3116	-27.023382
1976	1.9760e+000	-0.3001	-26.771581
1977	1.9770e+000	-0.2879	-26.549910
1978	1.9780e+000	-0.2756	-26.328240
1979	1.9790e+000	-0.2628	-26.089352
1980	1.9800e+000	-0.2534	-25.792356
1981	1.9810e+000	-0.2402	-25.598663
1982	1.9820e+000	-0.2269	-25.346862
1983	1.9830e+000	-0.2139	-25.008976
1984	1.9840e+000	-0.2039	-24.739958
1985	1.9850e+000	-0.1917	-24.453723
1986	1.9860e+000	-0.1798	-24.128750
1987	1.9870e+000	-0.1693	-23.855427
1988	1.9880e+000	-0.1569	-23.523997
1989	1.9890e+000	-0.1440	-23.177502
1990	1.9900e+000	-0.1335	-22.865442
1991	1.9910e+000	-0.1180	-22.551229
1992	1.9920e+000	-0.1078	-22.140170
1993	1.9930e+000	-0.0967	-21.817348
1994	1.9940e+000	-0.0835	-21.490222
1995	1.9950e+000	-0.0719	-21.064098
1996	1.9960e+000	-0.0607	-20.717603
1997	1.9970e+000	-0.0462	-20.315152
1998	1.9980e+000	-0.0343	-19.925615
1999	1.9990e+000	-0.0229	-19.465056
2000	2.0000e+000	-0.0108	-19.086279
2001	2.0010e+000	0.0009	-18.681676

Center data before PMax,±Pr and ±Vc Calc.

PMax (µC/cm2):	3.85e+001
Pr (µC/cm2):	2.18e+001
-Pr (µC/cm2):	-1.87e+001
Vc:	4.03e-001
-Vc:	-3.07e-001
C (Max-Eff) (nF):	2.52e-001
Vert. (±Pr) Shift (µC/cm2):	1.58e+000
Horiz. Shift (±Vc):	4.78e-002
Offset (µC/cm2):	1.30e+001

A (Loop Area - µC/cm2·Volts):	5.55e+001



Hysteresis Version: 5.12.0 - Radiant Technologies, Inc., 1999 - 11/30/16

