»»»»»»»»»»»»»»»»»»»»»»»»»»»»»»»»»»»» Hysteresis ««««««««««««««««««««««««««««««««««««
»»»  Executed Version:	5.16.2
»»»  Vision Version:	5.16.10 (R)
»»»  Vision Compiled:	4/26/18
»»»  Driver Version:	5.16.6
»»»  Windows Version:	Windows 8
»»»  Processor Information:	x86 (AMD or Intel) - 8 Processors
»»»  Tester Name:	PPM21016-863
»»»  Tester S/N:	PPM21016-863
»»»  Internal Amp Type:	 RTI ML200V    
»»»  Internal Amp S/N:	 iAB2-0000     
»»»  Execution Count:	1
»»»»»»»»»»»»»»»»»»»»»»»»»»»»»»»»»»»»»»»»»»««««««««««««««««««««««««««««««««««««««««««

Stored:	5/16/2018 - 8:58:45
Configured:	05/15/18 08:22:15 PM
Executed:	05/16/18 08:58:25 AM

»»»»»»»»»»»»»»»»»»»»»»»»»»»»»»»»»»» Sample Info ««««««««««««««««««««««««««««««««««««
Sample Name:	Internal Reference Cap.
Lot Name:	N/A
Wafer Name:	N/A
Die Row/Column:	0/0
Capacitor Number:	0
Sample Area (cm2):	7.85e-005
Sample Thickness (µm):	1.00e-001

Mux Loop Adjustment:	Disabled

Amplifier:	Internal

»»»»»»»»»»»»»»»»»»»»»»»»»»»»»»»»»»» Tester Info «««««««««««««««««««««««««««««««««««
Tester Name:	PPM21016-863
Tester Serial Number:	PPM21016-863
Return Signal Amp. Level:	0.19 [Index: 3]

»»»»»»»»»»»»»»»»»»»»»»»»»»»»»»»» Hysteresis Info ««««««««««««««««««««««««««««««««««
Task Name:	Hyst-1
Field (kV/cm):	0.03
Field:	300.00 (kV/cm)
Hysteresis Period (ms):	2.00e+000
Preset:	Enabled
Preset Delay (ms):	1.00e+003
Profile:	Double Bipolar

»»»»»»»»»»»»»»»»»»»»»»»»»»»»»»»»»»»»»» Data «««««««««««««««««««««««««««««««««««««««
Points:	2001

Valid Data

Point	Time (ms)	Field (kV/cm)	Measured Polarization
   1	1.0000e-003	0.205994	-33.615905
   2	2.0000e-003	1.510620	-33.569919
   3	3.0000e-003	2.593994	-33.692549
   4	4.0000e-003	3.662109	-33.626124
   5	5.0000e-003	4.890442	-33.631234
   6	6.0000e-003	6.187439	-33.273563
   7	7.0000e-003	7.316589	-33.631234
   8	8.0000e-003	8.552551	-33.227577
   9	9.0000e-003	9.666443	-32.496908
  10	1.0000e-002	10.986328	-32.941441
  11	1.1000e-002	12.092590	-33.227577
  12	1.2000e-002	13.214111	-32.956770
  13	1.3000e-002	14.495850	-32.859688
  14	1.4000e-002	15.708923	-32.726839
  15	1.5000e-002	17.051697	-32.931222
  16	1.6000e-002	18.203735	-32.553113
  17	1.7000e-002	19.279480	-32.394716
  18	1.8000e-002	20.477295	-32.205662
  19	1.9000e-002	21.575928	-32.062594
  20	2.0000e-002	22.460938	-32.169895
  21	2.1000e-002	24.284363	-31.704923
  22	2.2000e-002	25.344849	-31.464773
  23	2.3000e-002	26.481628	-31.311486
  24	2.4000e-002	27.763367	-30.897610
  25	2.5000e-002	29.914856	-29.880804
  26	2.6000e-002	29.960632	-30.463296
  27	2.7000e-002	31.227112	-30.820967
  28	2.8000e-002	32.592773	-29.834818
  29	2.9000e-002	33.851624	-29.533353
  30	3.0000e-002	35.018921	-29.109258
  31	3.1000e-002	36.140442	-28.812903
  32	3.2000e-002	37.422180	-28.506328
  33	3.3000e-002	38.452148	-28.230411
  34	3.4000e-002	39.634705	-27.673467
  35	3.5000e-002	40.824890	-27.239153
  36	3.6000e-002	42.221069	-26.896812
  37	3.7000e-002	43.190002	-26.518703
  38	3.8000e-002	44.418335	-26.115046
  39	3.9000e-002	45.997620	-25.369048
  40	4.0000e-002	47.004700	-24.944953
  41	4.1000e-002	48.126221	-24.536187
  42	4.2000e-002	49.186707	-23.749312
  43	4.3000e-002	50.407410	-23.197478
  44	4.4000e-002	51.689148	-22.477028
  45	4.5000e-002	52.902222	-21.909865
  46	4.6000e-002	53.855896	-21.230291
  47	4.7000e-002	55.229187	-20.402540
  48	4.8000e-002	56.419373	-19.646322
  49	4.9000e-002	57.624817	-18.772585
  50	5.0000e-002	58.807373	-18.036806
  51	5.1000e-002	59.448242	-17.265260
  52	5.2000e-002	61.233521	-16.146262
  53	5.3000e-002	62.400818	-14.807553
  54	5.4000e-002	63.438416	-13.898049
  55	5.5000e-002	64.880371	-12.804599
  56	5.6000e-002	65.673828	-11.516986
  57	5.7000e-002	67.291260	-10.469523
  58	5.8000e-002	68.283081	-8.987745
  59	5.9000e-002	69.572449	-7.638817
  60	6.0000e-002	70.762634	-6.417628
  61	6.1000e-002	71.769714	-4.808112
  62	6.2000e-002	73.104858	-3.188376
  63	6.3000e-002	74.279785	-0.894176
  64	6.4000e-002	75.263977	0.199273
  65	6.5000e-002	76.591492	1.757694
  66	6.6000e-002	77.507019	3.832183
  67	6.7000e-002	78.742981	5.508124
  68	6.8000e-002	80.070496	7.592831
  69	6.9000e-002	81.352234	9.580456
  70	7.0000e-002	82.511902	11.481219
  71	7.1000e-002	83.900452	13.443296
  72	7.2000e-002	84.915161	15.589318
  73	7.3000e-002	86.051941	17.638259
  74	7.4000e-002	87.280273	19.804719
  75	7.5000e-002	88.584900	21.787235
  76	7.6000e-002	90.011597	23.938367
  77	7.7000e-002	90.957642	25.992417
  78	7.8000e-002	92.178345	27.678577
  79	7.9000e-002	93.292236	29.645764
  80	8.0000e-002	94.657898	31.147979
  81	8.1000e-002	95.809937	32.113689
  82	8.2000e-002	96.771240	34.147301
  83	8.3000e-002	98.381042	36.012296
  84	8.4000e-002	99.403381	37.320348
  85	8.5000e-002	101.119995	38.618181
  86	8.6000e-002	100.662231	38.536427
  87	8.7000e-002	103.073120	40.294122
  88	8.8000e-002	104.370117	41.019682
  89	8.9000e-002	105.461121	41.617502
  90	9.0000e-002	106.857300	42.552555
  91	9.1000e-002	108.070374	42.736499
  92	9.2000e-002	109.107971	43.216800
  93	9.3000e-002	110.519409	43.554032
  94	9.4000e-002	111.511230	44.167181
  95	9.5000e-002	112.930298	43.840168
  96	9.6000e-002	114.059448	44.351126
  97	9.7000e-002	115.264893	44.519742
  98	9.8000e-002	116.485596	44.826316
  99	9.9000e-002	117.713928	45.321945
 100	1.0000e-001	118.949890	45.199315
 101	1.0100e-001	119.941711	45.214644
 102	1.0200e-001	120.979309	44.943836
 103	1.0300e-001	122.619629	45.659177
 104	1.0400e-001	123.886108	45.664287
 105	1.0500e-001	124.984741	45.771588
 106	1.0600e-001	126.113892	46.103710
 107	1.0700e-001	127.273560	46.016848
 108	1.0800e-001	128.547668	46.180354
 109	1.0900e-001	129.707336	46.190573
 110	1.1000e-001	130.981445	45.848232
 111	1.1100e-001	132.072449	46.527805
 112	1.1200e-001	133.377075	46.716860
 113	1.1300e-001	134.773254	46.844599
 114	1.1400e-001	135.650635	46.788394
 115	1.1500e-001	136.985779	46.875256
 116	1.1600e-001	138.214111	46.997886
 117	1.1700e-001	140.541077	48.275280
 118	1.1800e-001	140.525818	47.554830
 119	1.1900e-001	141.906738	47.263584
 120	1.2000e-001	142.791748	47.396433
 121	1.2100e-001	144.226074	47.631474
 122	1.2200e-001	145.759583	47.851186
 123	1.2300e-001	146.606445	47.585488
 124	1.2400e-001	147.666931	47.651912
 125	1.2500e-001	148.948669	47.289132
 126	1.2600e-001	149.971008	47.902281
 127	1.2700e-001	151.245117	47.718337
 128	1.2800e-001	152.610779	48.030021
 129	1.2900e-001	153.724670	48.265061
 130	1.3000e-001	154.983521	48.316157
 131	1.3100e-001	156.234741	48.300828
 132	1.3200e-001	157.318115	48.377472
 133	1.3300e-001	158.592224	49.082594
 134	1.3400e-001	159.774780	48.525650
 135	1.3500e-001	161.003113	48.791348
 136	1.3600e-001	162.208557	49.087703
 137	1.3700e-001	163.284302	48.847553
 138	1.3800e-001	164.169312	48.459225
 139	1.3900e-001	165.611267	48.949745
 140	1.4000e-001	166.931152	48.745362
 141	1.4100e-001	167.999268	49.046827
 142	1.4200e-001	169.212341	49.174566
 143	1.4300e-001	170.707703	49.179676
 144	1.4400e-001	171.905518	49.537346
 145	1.4500e-001	173.034668	49.424935
 146	1.4600e-001	174.232483	49.547565
 147	1.4700e-001	175.422668	49.522017
 148	1.4800e-001	176.139832	49.578223
 149	1.4900e-001	177.909851	49.941002
 150	1.5000e-001	178.245544	49.562894
 151	1.5100e-001	180.023193	49.552675
 152	1.5200e-001	181.327820	49.900126
 153	1.5300e-001	182.334900	49.976769
 154	1.5400e-001	183.753967	49.981879
 155	1.5500e-001	184.867859	50.201591
 156	1.5600e-001	186.271667	50.124947
 157	1.5700e-001	187.309265	50.329330
 158	1.5800e-001	188.682556	50.283344
 159	1.5900e-001	190.315247	50.610357
 160	1.6000e-001	190.795898	50.543933
 161	1.6100e-001	192.131042	50.457070
 162	1.6200e-001	193.382263	50.579700
 163	1.6300e-001	194.488525	50.589919
 164	1.6400e-001	196.159363	51.151972
 165	1.6500e-001	196.929932	50.784083
 166	1.6600e-001	198.341370	50.400864
 167	1.6700e-001	199.317932	50.901603
 168	1.6800e-001	200.569153	50.988466
 169	1.6900e-001	201.728821	50.983356
 170	1.7000e-001	202.972412	51.003794
 171	1.7100e-001	204.071045	51.054890
 172	1.7200e-001	205.467224	51.208177
 173	1.7300e-001	206.657410	51.151972
 174	1.7400e-001	207.466125	51.203068
 175	1.7500e-001	209.136963	51.657820
 176	1.7600e-001	210.136414	51.356355
 177	1.7700e-001	211.357117	51.499423
 178	1.7800e-001	213.050842	51.576067
 179	1.7900e-001	213.485718	51.652711
 180	1.8000e-001	214.851379	51.708916
 181	1.8100e-001	216.117859	51.197958
 182	1.8200e-001	217.323303	51.800888
 183	1.8300e-001	218.482971	51.908189
 184	1.8400e-001	219.810486	51.877532
 185	1.8500e-001	220.932007	51.805998
 186	1.8600e-001	222.129822	51.979724
 187	1.8700e-001	223.037720	51.887751
 188	1.8800e-001	224.601746	52.076806
 189	1.8900e-001	225.769043	52.199435
 190	1.9000e-001	226.951599	52.092134
 191	1.9100e-001	228.141785	51.949066
 192	1.9200e-001	229.095459	52.097244
 193	1.9300e-001	230.552673	52.347613
 194	1.9400e-001	231.742859	52.393599
 195	1.9500e-001	233.055115	52.679736
 196	1.9600e-001	234.771729	52.204545
 197	1.9700e-001	235.282898	52.577544
 198	1.9800e-001	236.541748	52.649078
 199	1.9900e-001	237.663269	52.633749
 200	2.0000e-001	238.929749	52.996529
 201	2.0100e-001	240.013123	52.695064
 202	2.0200e-001	241.424561	52.950543
 203	2.0300e-001	242.729187	52.776818
 204	2.0400e-001	243.774414	52.976091
 205	2.0500e-001	244.834900	53.098721
 206	2.0600e-001	245.643616	52.853461
 207	2.0700e-001	247.070313	52.960762
 208	2.0800e-001	248.481750	53.022077
 209	2.0900e-001	249.687195	53.098721
 210	2.1000e-001	251.220703	53.727199
 211	2.1100e-001	252.143860	53.435953
 212	2.1200e-001	253.074646	53.195803
 213	2.1300e-001	254.402161	53.343981
 214	2.1400e-001	255.668640	53.400186
 215	2.1500e-001	256.889343	53.527925
 216	2.1600e-001	258.018494	53.287775
 217	2.1700e-001	259.101868	53.563692
 218	2.1800e-001	260.307312	53.435953
 219	2.1900e-001	261.573792	53.527925
 220	2.2000e-001	262.886047	53.665884
 221	2.2100e-001	263.763428	53.563692
 222	2.2200e-001	265.213013	53.487049
 223	2.2300e-001	266.441345	53.716980
 224	2.2400e-001	267.387390	53.875377
 225	2.2500e-001	268.798828	53.829390
 226	2.2600e-001	269.889832	54.263704
 227	2.2700e-001	271.278381	53.926472
 228	2.2800e-001	271.995544	54.207499
 229	2.2900e-001	273.696899	53.936691
 230	2.3000e-001	274.826050	53.921363
 231	2.3100e-001	276.000977	54.125746
 232	2.3200e-001	277.313232	54.161513
 233	2.3300e-001	278.793335	54.416992
 234	2.3400e-001	279.609680	54.192170
 235	2.3500e-001	280.937195	54.360786
 236	2.3600e-001	282.035828	54.217718
 237	2.3700e-001	282.775879	54.263704
 238	2.3800e-001	284.515381	54.508964
 239	2.3900e-001	285.675049	54.677580
 240	2.4000e-001	287.055969	54.483416
 241	2.4100e-001	288.208008	55.040360
 242	2.4200e-001	289.703369	54.565169
 243	2.4300e-001	290.542603	54.667361
 244	2.4400e-001	291.725159	54.682690
 245	2.4500e-001	292.816162	54.570279
 246	2.4600e-001	293.388367	54.350567
 247	2.4700e-001	295.333862	54.856415
 248	2.4800e-001	296.554565	54.830867
 249	2.4900e-001	297.859192	54.922840
 250	2.5000e-001	298.934937	54.989264
 251	2.5100e-001	300.254822	54.963716
 252	2.5200e-001	299.232483	54.984155
 253	2.5300e-001	298.080444	54.861525
 254	2.5400e-001	296.722412	55.019922
 255	2.5500e-001	295.616150	54.876854
 256	2.5600e-001	294.425964	55.423578
 257	2.5700e-001	293.548584	54.738895
 258	2.5800e-001	292.213440	55.060798
 259	2.5900e-001	290.748596	54.815539
 260	2.6000e-001	289.558411	54.708237
 261	2.6100e-001	288.330078	54.590717
 262	2.6200e-001	287.040710	54.907511
 263	2.6300e-001	285.980225	54.856415
 264	2.6400e-001	285.705566	55.152771
 265	2.6500e-001	283.561707	54.687799
 266	2.6600e-001	282.356262	54.708237
 267	2.6700e-001	281.074524	54.493635
 268	2.6800e-001	279.571533	54.197280
 269	2.6900e-001	278.610229	54.646923
 270	2.7000e-001	277.526855	54.427211
 271	2.7100e-001	276.512146	54.549841
 272	2.7200e-001	275.161743	54.585608
 273	2.7300e-001	274.200439	54.779772
 274	2.7400e-001	272.880554	54.437430
 275	2.7500e-001	271.659851	54.529402
 276	2.7600e-001	270.240784	54.176842
 277	2.7700e-001	269.302368	54.340348
 278	2.7800e-001	268.112183	54.452759
 279	2.7900e-001	266.380310	54.319910
 280	2.8000e-001	265.678406	54.468087
 281	2.8100e-001	264.297485	54.432320
 282	2.8200e-001	262.641907	54.493635
 283	2.8300e-001	261.955261	54.294362
 284	2.8400e-001	260.833740	54.187061
 285	2.8500e-001	259.613037	54.207499
 286	2.8600e-001	258.544922	54.401663
 287	2.8700e-001	257.194519	53.870267
 288	2.8800e-001	256.126404	53.558583
 289	2.8900e-001	254.753113	54.187061
 290	2.9000e-001	253.593445	54.141074
 291	2.9100e-001	252.403259	54.095088
 292	2.9200e-001	251.152039	54.100198
 293	2.9300e-001	250.091553	54.120636
 294	2.9400e-001	248.847961	53.865157
 295	2.9500e-001	247.367859	53.865157
 296	2.9600e-001	246.551514	54.008225
 297	2.9700e-001	245.216370	53.798733
 298	2.9800e-001	244.132996	53.926472
 299	2.9900e-001	242.271423	53.435953
 300	3.0000e-001	240.364075	53.200912
 301	3.0100e-001	240.463257	53.911144
 302	3.0200e-001	239.288330	53.681213
 303	3.0300e-001	237.968445	53.579021
 304	3.0400e-001	236.557007	53.844719
 305	3.0500e-001	235.626221	53.589240
 306	3.0600e-001	234.436035	53.512597
 307	3.0700e-001	233.612061	53.793623
 308	3.0800e-001	231.948853	53.625007
 309	3.0900e-001	230.873108	53.379748
 310	3.1000e-001	229.545593	53.292885
 311	3.1100e-001	228.370667	53.405295
 312	3.1200e-001	227.241516	53.318433
 313	3.1300e-001	226.112366	53.328652
 314	3.1400e-001	224.761963	53.384857
 315	3.1500e-001	223.655701	53.124269
 316	3.1600e-001	222.373962	53.093611
 317	3.1700e-001	221.176147	53.252008
 318	3.1800e-001	221.260071	53.410405
 319	3.1900e-001	218.803406	53.543254
 320	3.2000e-001	217.582703	53.185584
 321	3.2100e-001	216.300964	52.955653
 322	3.2200e-001	215.354919	52.705283
 323	3.2300e-001	213.882446	53.022077
 324	3.2400e-001	212.837219	52.843242
 325	3.2500e-001	212.120056	53.200912
 326	3.2600e-001	210.357666	52.991420
 327	3.2700e-001	209.304810	52.761489
 328	3.2800e-001	208.030701	52.853461
 329	3.2900e-001	206.634521	52.843242
 330	3.3000e-001	205.169678	52.357832
 331	3.3100e-001	204.437256	52.787037
 332	3.3200e-001	203.361511	52.879009
 333	3.3300e-001	201.927185	52.904557
 334	3.3400e-001	200.767517	52.587763
 335	3.3500e-001	199.768066	53.027187
 336	3.3600e-001	197.204590	52.219874
 337	3.3700e-001	197.257996	51.918409
 338	3.3800e-001	195.907593	52.689955
 339	3.3900e-001	194.793701	52.357832
 340	3.4000e-001	193.649292	52.403818
 341	3.4100e-001	192.474365	52.495791
 342	3.4200e-001	191.307068	52.378271
 343	3.4300e-001	189.903259	52.306736
 344	3.4400e-001	188.644409	52.153449
 345	3.4500e-001	187.553406	52.184107
 346	3.4600e-001	186.271667	52.230093
 347	3.4700e-001	185.226440	52.235202
 348	3.4800e-001	183.967590	52.102353
 349	3.4900e-001	182.907104	52.158559
 350	3.5000e-001	180.809021	52.163668
 351	3.5100e-001	180.587769	51.933737
 352	3.5200e-001	179.130554	52.041038
 353	3.5300e-001	178.565979	52.148340
 354	3.5400e-001	176.521301	51.223506
 355	3.5500e-001	175.605774	51.989943
 356	3.5600e-001	174.453735	51.908189
 357	3.5700e-001	173.149109	51.693587
 358	3.5800e-001	172.134399	51.816217
 359	3.5900e-001	170.875549	51.724245
 360	3.6000e-001	169.609070	51.622053
 361	3.6100e-001	169.029236	51.954176
 362	3.6200e-001	167.098999	51.392122
 363	3.6300e-001	166.069031	51.458547
 364	3.6400e-001	164.901733	51.657820
 365	3.6500e-001	163.627625	51.565848
 366	3.6600e-001	161.933899	50.876055
 367	3.6700e-001	161.186218	51.315479
 368	3.6800e-001	159.927368	51.504533
 369	3.6900e-001	158.821106	51.192849
 370	3.7000e-001	157.722473	51.085548
 371	3.7100e-001	156.234741	51.187739
 372	3.7200e-001	156.227112	51.427889
 373	3.7300e-001	153.884888	51.049781
 374	3.7400e-001	152.847290	51.116205
 375	3.7500e-001	151.756287	50.916932
 376	3.7600e-001	150.352478	50.993575
 377	3.7700e-001	149.185181	51.116205
 378	3.7800e-001	147.895813	50.809630
 379	3.7900e-001	146.759033	50.850507
 380	3.8000e-001	145.713806	50.901603
 381	3.8100e-001	144.950867	50.354878
 382	3.8200e-001	142.959595	50.968027
 383	3.8300e-001	142.005920	50.559261
 384	3.8400e-001	140.907288	50.681891
 385	3.8500e-001	139.602661	50.625686
 386	3.8600e-001	138.351440	50.584809
 387	3.8700e-001	137.084961	50.359988
 388	3.8800e-001	135.963440	50.206700
 389	3.8900e-001	134.719849	50.421303
 390	3.9000e-001	133.842468	50.687001
 391	3.9100e-001	132.408142	50.252687
 392	3.9200e-001	131.034851	50.298673
 393	3.9300e-001	129.966736	50.104509
 394	3.9400e-001	128.692627	50.109618
 395	3.9500e-001	127.571106	49.992098
 396	3.9600e-001	126.686096	50.446851
 397	3.9700e-001	125.083923	50.354878
 398	3.9800e-001	123.863220	49.946112
 399	3.9900e-001	123.405457	50.334440
 400	4.0000e-001	121.650696	49.869468
 401	4.0100e-001	120.277405	49.782606
 402	4.0200e-001	119.186401	49.670195
 403	4.0300e-001	118.011475	49.757058
 404	4.0400e-001	116.798401	49.583332
 405	4.0500e-001	115.570068	49.537346
 406	4.0600e-001	114.196777	49.276757
 407	4.0700e-001	113.250732	49.583332
 408	4.0800e-001	110.725403	49.103032
 409	4.0900e-001	110.855103	49.297196
 410	4.1000e-001	109.497070	49.322744
 411	4.1100e-001	107.048035	48.229294
 412	4.1200e-001	107.276917	49.149018
 413	4.1300e-001	105.865479	49.046827
 414	4.1400e-001	104.812622	48.392801
 415	4.1500e-001	103.652954	49.225662
 416	4.1600e-001	102.317810	48.985512
 417	4.1700e-001	101.112366	48.883320
 418	4.1800e-001	99.945068	48.724923
 419	4.1900e-001	98.808289	48.791348
 420	4.2000e-001	97.694397	48.750471
 421	4.2100e-001	96.275330	48.760690
 422	4.2200e-001	95.252991	48.540978
 423	4.2300e-001	94.146729	48.530759
 424	4.2400e-001	92.666626	48.372362
 425	4.2500e-001	91.728210	48.607403
 426	4.2600e-001	91.606140	48.791348
 427	4.2700e-001	89.202881	48.116884
 428	4.2800e-001	87.989807	48.219075
 429	4.2900e-001	86.830139	48.295719
 430	4.3000e-001	85.601807	47.938048
 431	4.3100e-001	84.434509	48.050459
 432	4.3200e-001	83.122253	47.984035
 433	4.3300e-001	81.901550	47.973815
 434	4.3400e-001	80.780029	47.897172
 435	4.3500e-001	79.589844	47.835857
 436	4.3600e-001	77.423096	47.943158
 437	4.3700e-001	77.377319	47.779652
 438	4.3800e-001	76.110840	47.595707
 439	4.3900e-001	74.737549	47.559940
 440	4.4000e-001	73.448181	47.503734
 441	4.4100e-001	71.525574	47.028544
 442	4.4200e-001	71.205139	47.483296
 443	4.4300e-001	70.007324	47.324899
 444	4.4400e-001	68.923950	47.186941
 445	4.4500e-001	67.832947	47.350447
 446	4.4600e-001	66.390991	47.120516
 447	4.4700e-001	65.246582	47.130735
 448	4.4800e-001	63.896179	46.987667
 449	4.4900e-001	62.843323	46.987667
 450	4.5000e-001	61.767578	46.808832
 451	4.5100e-001	59.623718	46.359189
 452	4.5200e-001	59.013367	46.783284
 453	4.5300e-001	57.914734	46.665764
 454	4.5400e-001	56.755066	46.553353
 455	4.5500e-001	55.740356	46.573791
 456	4.5600e-001	54.145813	45.878889
 457	4.5700e-001	53.184509	46.425614
 458	4.5800e-001	52.116394	46.154806
 459	4.5900e-001	50.849915	46.297874
 460	4.6000e-001	49.591064	46.078162
 461	4.6100e-001	48.416138	45.868670
 462	4.6200e-001	47.134399	46.159916
 463	4.6300e-001	45.928955	45.904437
 464	4.6400e-001	44.509888	45.500780
 465	4.6500e-001	43.495178	45.556986
 466	4.6600e-001	42.541504	45.740930
 467	4.6700e-001	41.076660	45.429246
 468	4.6800e-001	39.863586	45.419027
 469	4.6900e-001	38.650513	45.265740
 470	4.7000e-001	37.445068	45.148220
 471	4.7100e-001	36.773682	45.127781
 472	4.7200e-001	35.339355	45.311726
 473	4.7300e-001	34.393311	44.984713
 474	4.7400e-001	32.768250	44.846755
 475	4.7500e-001	31.692505	44.729234
 476	4.7600e-001	30.212402	44.908069
 477	4.7700e-001	29.151917	44.519742
 478	4.7800e-001	28.144836	44.524851
 479	4.7900e-001	26.824951	44.202948
 480	4.8000e-001	25.550842	44.162071
 481	4.8100e-001	24.467468	44.202948
 482	4.8200e-001	23.315430	44.305139
 483	4.8300e-001	22.010803	43.778853
 484	4.8400e-001	20.828247	43.881045
 485	4.8500e-001	19.538879	43.686881
 486	4.8600e-001	18.287659	43.201471
 487	4.8700e-001	17.257690	43.022636
 488	4.8800e-001	15.884399	43.186142
 489	4.8900e-001	14.678955	43.099279
 490	4.9000e-001	13.671875	42.864239
 491	4.9100e-001	12.580872	42.721171
 492	4.9200e-001	10.917664	42.491240
 493	4.9300e-001	10.009766	42.481021
 494	4.9400e-001	8.834839	42.312404
 495	4.9500e-001	7.675171	42.108021
 496	4.9600e-001	6.591797	41.888310
 497	4.9700e-001	5.096436	41.872981
 498	4.9800e-001	4.272461	41.607283
 499	4.9900e-001	2.769470	41.402900
 500	5.0000e-001	1.670837	41.121873
 501	5.0100e-001	0.740051	41.137202
 502	5.0200e-001	-0.671387	40.580258
 503	5.0300e-001	-1.892090	40.237916
 504	5.0400e-001	-2.960205	40.007985
 505	5.0500e-001	-4.287720	39.696301
 506	5.0600e-001	-5.462646	39.292645
 507	5.0700e-001	-6.546021	39.113809
 508	5.0800e-001	-7.858276	38.531318
 509	5.0900e-001	-9.246826	37.877292
 510	5.1000e-001	-10.353088	37.238595
 511	5.1100e-001	-11.398315	37.146622
 512	5.1200e-001	-12.535095	36.329090
 513	5.1300e-001	-13.717651	35.680174
 514	5.1400e-001	-14.923096	35.158997
 515	5.1500e-001	-16.021729	34.198397
 516	5.1600e-001	-16.944885	33.380864
 517	5.1700e-001	-18.508911	32.450921
 518	5.1800e-001	-19.729614	31.096884
 519	5.1900e-001	-20.935059	30.080078
 520	5.2000e-001	-22.109985	29.175683
 521	5.2100e-001	-23.353577	27.811426
 522	5.2200e-001	-24.406433	26.447169
 523	5.2300e-001	-25.688171	25.185103
 524	5.2400e-001	-26.847839	23.677778
 525	5.2500e-001	-28.335571	22.001837
 526	5.2600e-001	-29.121399	20.479183
 527	5.2700e-001	-30.418396	18.583530
 528	5.2800e-001	-31.211853	17.117082
 529	5.2900e-001	-32.562256	15.109018
 530	5.3000e-001	-34.034729	13.157160
 531	5.3100e-001	-35.095215	11.067343
 532	5.3200e-001	-36.247253	9.345416
 533	5.3300e-001	-37.635803	7.674584
 534	5.3400e-001	-38.780212	4.961399
 535	5.3500e-001	-39.825439	2.989102
 536	5.3600e-001	-41.152954	0.735779
 537	5.3700e-001	-42.572021	-0.986148
 538	5.3800e-001	-43.518066	-3.259910
 539	5.3900e-001	-44.746399	-5.221987
 540	5.4000e-001	-45.921326	-7.066545
 541	5.4100e-001	-47.042847	-8.890663
 542	5.4200e-001	-48.477173	-10.571714
 543	5.4300e-001	-49.652100	-12.298751
 544	5.4400e-001	-50.590515	-13.780528
 545	5.4500e-001	-52.108765	-15.778373
 546	5.4600e-001	-53.390503	-16.606124
 547	5.4700e-001	-53.916931	-17.714902
 548	5.4800e-001	-55.725098	-19.227337
 549	5.4900e-001	-56.938171	-20.315677
 550	5.5000e-001	-58.113098	-21.204743
 551	5.5100e-001	-59.341431	-22.231768
 552	5.5200e-001	-60.661316	-23.217916
 553	5.5300e-001	-61.904907	-24.142750
 554	5.5400e-001	-62.950134	-24.898967
 555	5.5500e-001	-64.331055	-25.844239
 556	5.5600e-001	-64.781189	-26.053731
 557	5.5700e-001	-66.726685	-27.050099
 558	5.5800e-001	-67.756653	-27.775659
 559	5.5900e-001	-68.992615	-28.353041
 560	5.6000e-001	-69.061279	-28.337712
 561	5.6100e-001	-71.434021	-29.819489
 562	5.6200e-001	-72.311401	-29.901243
 563	5.6300e-001	-73.814392	-30.458187
 564	5.6400e-001	-75.180054	-31.020240
 565	5.6500e-001	-76.354980	-31.628280
 566	5.6600e-001	-77.621460	-32.031936
 567	5.6700e-001	-78.735352	-32.548003
 568	5.6800e-001	-79.711914	-32.783044
 569	5.6900e-001	-81.092834	-33.350207
 570	5.7000e-001	-82.183838	-33.707877
 571	5.7100e-001	-83.427429	-34.045109
 572	5.7200e-001	-84.991455	-34.499862
 573	5.7300e-001	-85.716248	-34.831984
 574	5.7400e-001	-87.036133	-35.256079
 575	5.7500e-001	-88.958740	-36.175803
 576	5.7600e-001	-89.340210	-35.777256
 577	5.7700e-001	-90.797424	-36.114488
 578	5.7800e-001	-91.934204	-36.318871
 579	5.7900e-001	-93.055725	-36.676541
 580	5.8000e-001	-94.375610	-37.008664
 581	5.8100e-001	-95.848083	-37.248814
 582	5.8200e-001	-96.664429	-37.519622
 583	5.8300e-001	-97.793579	-38.418907
 584	5.8400e-001	-99.273682	-37.831306
 585	5.8500e-001	-100.769043	-38.378030
 586	5.8600e-001	-101.516724	-38.424017
 587	5.8700e-001	-102.699280	-38.607961
 588	5.8800e-001	-103.912354	-38.883879
 589	5.8900e-001	-105.064392	-39.026947
 590	5.9000e-001	-106.155396	-39.124029
 591	5.9100e-001	-107.452393	-39.456151
 592	5.9200e-001	-108.787537	-39.956890
 593	5.9300e-001	-109.756470	-40.038643
 594	5.9400e-001	-111.145020	-39.972218
 595	5.9500e-001	-112.350464	-40.013095
 596	5.9600e-001	-113.494873	-40.212368
 597	5.9700e-001	-114.715576	-40.416752
 598	5.9800e-001	-115.974426	-40.646682
 599	5.9900e-001	-117.065430	-40.682450
 600	6.0000e-001	-118.713379	-40.958367
 601	6.0100e-001	-119.529724	-41.014572
 602	6.0200e-001	-120.666504	-40.943038
 603	6.0300e-001	-121.925354	-41.188298
 604	6.0400e-001	-123.077393	-41.224065
 605	6.0500e-001	-124.092102	-41.597064
 606	6.0600e-001	-125.534058	-41.510201
 607	6.0700e-001	-126.731873	-41.755461
 608	6.0800e-001	-127.769470	-41.530639
 609	6.0900e-001	-129.058838	-42.036487
 610	6.1000e-001	-130.233765	-42.051816
 611	6.1100e-001	-131.454468	-42.148898
 612	6.1200e-001	-133.110046	-42.389048
 613	6.1300e-001	-134.101868	-42.409486
 614	6.1400e-001	-135.124207	-42.465692
 615	6.1500e-001	-136.077881	-42.322624
 616	6.1600e-001	-137.390137	-42.910225
 617	6.1700e-001	-138.748169	-42.808033
 618	6.1800e-001	-139.785767	-42.848910
 619	6.1900e-001	-141.288757	-43.140156
 620	6.2000e-001	-142.295837	-42.634308
 621	6.2100e-001	-143.470764	-43.380306
 622	6.2200e-001	-144.958496	-43.303662
 623	6.2300e-001	-146.064758	-43.293443
 624	6.2400e-001	-147.186279	-43.548922
 625	6.2500e-001	-148.490906	-43.763524
 626	6.2600e-001	-149.551392	-43.835058
 627	6.2700e-001	-150.573730	-44.478865
 628	6.2800e-001	-152.206421	-43.937250
 629	6.2900e-001	-153.305054	-43.957688
 630	6.3000e-001	-154.640198	-44.412440
 631	6.3100e-001	-155.471802	-44.356235
 632	6.3200e-001	-156.661987	-44.453317
 633	6.3300e-001	-157.882690	-44.366454
 634	6.3400e-001	-159.416199	-44.514632
 635	6.3500e-001	-160.125732	-44.529961
 636	6.3600e-001	-161.285400	-44.724125
 637	6.3700e-001	-162.818909	-44.872302
 638	6.3800e-001	-163.894653	-44.928508
 639	6.3900e-001	-165.077209	-44.938727
 640	6.4000e-001	-166.473389	-45.214644
 641	6.4100e-001	-167.549133	-45.132891
 642	6.4200e-001	-168.579102	-45.608081
 643	6.4300e-001	-170.196533	-45.413918
 644	6.4400e-001	-171.134949	-45.439465
 645	6.4500e-001	-172.279358	-45.408808
 646	6.4600e-001	-173.645020	-45.648958
 647	6.4700e-001	-174.629211	-45.812465
 648	6.4800e-001	-175.765991	-45.393479
 649	6.4900e-001	-177.635193	-46.073053
 650	6.5000e-001	-178.245544	-45.914656
 651	6.5100e-001	-179.489136	-46.047505
 652	6.5200e-001	-180.778503	-46.149697
 653	6.5300e-001	-181.854248	-45.996409
 654	6.5400e-001	-182.998657	-46.231450
 655	6.5500e-001	-184.501648	-46.440942
 656	6.5600e-001	-185.485840	-46.343860
 657	6.5700e-001	-186.691284	-46.553353
 658	6.5800e-001	-188.171387	-46.962119
 659	6.5900e-001	-189.147949	-46.568682
 660	6.6000e-001	-190.307617	-46.553353
 661	6.6100e-001	-191.566467	-46.870147
 662	6.6200e-001	-192.726135	-46.854818
 663	6.6300e-001	-193.893433	-46.844599
 664	6.6400e-001	-195.693970	-47.667241
 665	6.6500e-001	-196.456909	-47.115407
 666	6.6600e-001	-197.494507	-47.166502
 667	6.6700e-001	-198.516846	-47.513954
 668	6.6800e-001	-200.080872	-47.437310
 669	6.6900e-001	-200.920105	-47.508844
 670	6.7000e-001	-202.445984	-47.416872
 671	6.7100e-001	-203.498840	-47.447529
 672	6.7200e-001	-204.589844	-47.738775
 673	6.7300e-001	-206.161499	-47.830747
 674	6.7400e-001	-207.138062	-47.846076
 675	6.7500e-001	-208.366394	-47.856295
 676	6.7600e-001	-209.526062	-48.357034
 677	6.7700e-001	-210.800171	-48.111774
 678	6.7800e-001	-211.997986	-47.938048
 679	6.7900e-001	-213.111877	-48.024911
 680	6.8000e-001	-214.302063	-48.259952
 681	6.8100e-001	-215.553284	-48.341705
 682	6.8200e-001	-216.674805	-48.423458
 683	6.8300e-001	-217.796326	-48.735142
 684	6.8400e-001	-219.039917	-48.494992
 685	6.8500e-001	-220.390320	-48.535869
 686	6.8600e-001	-221.321106	-48.888430
 687	6.8700e-001	-222.808838	-48.719814
 688	6.8800e-001	-223.999023	-48.806676
 689	6.8900e-001	-225.090027	-48.913978
 690	6.9000e-001	-226.310730	-48.740252
 691	6.9100e-001	-227.661133	-49.036607
 692	6.9200e-001	-228.614807	-48.965073
 693	6.9300e-001	-229.843140	-49.072374
 694	6.9400e-001	-231.094360	-48.954854
 695	6.9500e-001	-232.238770	-49.481141
 696	6.9600e-001	-233.467102	-49.358511
 697	6.9700e-001	-234.619141	-49.583332
 698	6.9800e-001	-235.954285	-49.450483
 699	6.9900e-001	-237.159729	-49.619099
 700	7.0000e-001	-238.372803	-49.583332
 701	7.0100e-001	-239.654541	-50.032975
 702	7.0200e-001	-240.753174	-49.803044
 703	7.0300e-001	-241.973877	-49.946112
 704	7.0400e-001	-243.034363	-50.160714
 705	7.0500e-001	-244.476318	-50.038084
 706	7.0600e-001	-245.864868	-49.895016
 707	7.0700e-001	-246.810913	-50.242467
 708	7.0800e-001	-247.871399	-50.140276
 709	7.0900e-001	-249.206543	-50.211810
 710	7.1000e-001	-250.244141	-50.278235
 711	7.1100e-001	-251.609802	-50.676781
 712	7.1200e-001	-252.822876	-50.687001
 713	7.1300e-001	-254.074097	-50.405974
 714	7.1400e-001	-255.241394	-50.559261
 715	7.1500e-001	-256.378174	-50.641014
 716	7.1600e-001	-257.614136	-50.732987
 717	7.1700e-001	-258.880615	-50.778973
 718	7.1800e-001	-259.803772	-50.876055
 719	7.1900e-001	-261.245728	-50.891384
 720	7.2000e-001	-262.474060	-51.080438
 721	7.2100e-001	-263.549805	-50.876055
 722	7.2200e-001	-264.755249	-50.876055
 723	7.2300e-001	-266.281128	-51.039561
 724	7.2400e-001	-267.028809	-51.172410
 725	7.2500e-001	-268.310547	-51.325698
 726	7.2600e-001	-268.486023	-51.014014
 727	7.2700e-001	-270.652771	-51.545410
 728	7.2800e-001	-272.003174	-51.458547
 729	7.2900e-001	-273.345947	-51.509642
 730	7.3000e-001	-274.276733	-51.085548
 731	7.3100e-001	-275.611877	-51.739573
 732	7.3200e-001	-276.855469	-51.683368
 733	7.3300e-001	-277.770996	-51.749793
 734	7.3400e-001	-279.197693	-51.862203
 735	7.3500e-001	-280.426025	-51.744683
 736	7.3600e-001	-281.402588	-51.754902
 737	7.3700e-001	-282.897949	-52.046148
 738	7.3800e-001	-284.141541	-52.209655
 739	7.3900e-001	-284.858704	-52.178997
 740	7.4000e-001	-286.376953	-52.209655
 741	7.4100e-001	-287.437439	-52.741050
 742	7.4200e-001	-288.101196	-51.729354
 743	7.4300e-001	-290.054321	-52.541777
 744	7.4400e-001	-291.084290	-52.475352
 745	7.4500e-001	-292.144775	-52.291408
 746	7.4600e-001	-293.640137	-52.582654
 747	7.4700e-001	-294.853210	-52.735941
 748	7.4800e-001	-295.875549	-52.536667
 749	7.4900e-001	-297.325134	-52.919886
 750	7.5000e-001	-298.461914	-52.940324
 751	7.5100e-001	-299.224854	-52.868790
 752	7.5200e-001	-298.614502	-53.093611
 753	7.5300e-001	-297.454834	-52.741050
 754	7.5400e-001	-296.127319	-52.827913
 755	7.5500e-001	-295.150757	-52.930105
 756	7.5600e-001	-293.815613	-53.001639
 757	7.5700e-001	-292.434692	-52.633749
 758	7.5800e-001	-291.542053	-53.052735
 759	7.5900e-001	-290.191650	-52.894338
 760	7.6000e-001	-288.925171	-52.368051
 761	7.6100e-001	-287.719727	-52.746160
 762	7.6200e-001	-286.659241	-52.715503
 763	7.6300e-001	-285.110474	-52.730831
 764	7.6400e-001	-284.179688	-52.735941
 765	7.6500e-001	-282.951355	-52.919886
 766	7.6600e-001	-281.494141	-51.872422
 767	7.6700e-001	-280.410767	-52.695064
 768	7.6800e-001	-279.426575	-52.684845
 769	7.6900e-001	-278.732300	-52.352723
 770	7.7000e-001	-276.824951	-52.557106
 771	7.7100e-001	-275.878906	-52.383380
 772	7.7200e-001	-274.551392	-52.495791
 773	7.7300e-001	-272.262573	-51.780450
 774	7.7400e-001	-272.155762	-52.511120
 775	7.7500e-001	-270.843506	-52.102353
 776	7.7600e-001	-269.767761	-52.388490
 777	7.7700e-001	-268.653870	-52.373161
 778	7.7800e-001	-267.425537	-52.219874
 779	7.7900e-001	-266.418457	-52.168778
 780	7.8000e-001	-264.991760	-52.138120
 781	7.8100e-001	-263.809204	-52.071696
 782	7.8200e-001	-262.504578	-52.296517
 783	7.8300e-001	-261.329651	-52.204545
 784	7.8400e-001	-260.307312	-52.184107
 785	7.8500e-001	-259.094238	-51.693587
 786	7.8600e-001	-257.873535	-52.112573
 787	7.8700e-001	-256.713867	-51.867313
 788	7.8800e-001	-255.302429	-51.862203
 789	7.8900e-001	-253.776550	-51.182630
 790	7.9000e-001	-253.181458	-51.979724
 791	7.9100e-001	-251.747131	-51.923518
 792	7.9200e-001	-250.511169	-51.846875
 793	7.9300e-001	-249.702454	-51.872422
 794	7.9400e-001	-248.214722	-51.622053
 795	7.9500e-001	-247.001648	-51.739573
 796	7.9600e-001	-245.986938	-51.714026
 797	7.9700e-001	-244.842529	-51.683368
 798	7.9800e-001	-243.309021	-51.867313
 799	7.9900e-001	-242.378235	-51.606724
 800	8.0000e-001	-240.760803	-51.478985
 801	8.0100e-001	-239.837646	-51.637382
 802	8.0200e-001	-238.853455	-52.005271
 803	8.0300e-001	-237.236023	-51.509642
 804	8.0400e-001	-236.213684	-51.249054
 805	8.0500e-001	-235.046387	-51.167301
 806	8.0600e-001	-233.558655	-51.182630
 807	8.0700e-001	-232.406616	-51.279712
 808	8.0800e-001	-231.613159	-51.458547
 809	8.0900e-001	-230.255127	-51.381903
 810	8.1000e-001	-228.912354	-51.371684
 811	8.1100e-001	-228.027344	-51.213287
 812	8.1200e-001	-226.524353	-51.279712
 813	8.1300e-001	-225.448608	-51.279712
 814	8.1400e-001	-224.632263	-51.146863
 815	8.1500e-001	-222.900391	-50.881165
 816	8.1600e-001	-221.954346	-51.330807
 817	8.1700e-001	-220.886230	-51.075328
 818	8.1800e-001	-219.543457	-51.039561
 819	8.1900e-001	-218.170166	-50.421303
 820	8.2000e-001	-217.849731	-51.111096
 821	8.2100e-001	-215.637207	-50.957808
 822	8.2200e-001	-214.378357	-50.717658
 823	8.2300e-001	-213.699341	-50.697220
 824	8.2400e-001	-212.142944	-50.809630
 825	8.2500e-001	-211.326599	-50.768754
 826	8.2600e-001	-210.083008	-50.738096
 827	8.2700e-001	-208.541870	-50.661453
 828	8.2800e-001	-207.206726	-50.671672
 829	8.2900e-001	-206.329346	-50.554152
 830	8.3000e-001	-204.925537	-50.451960
 831	8.3100e-001	-203.750610	-50.615467
 832	8.3200e-001	-202.926636	-50.390645
 833	8.3300e-001	-201.354980	-50.416193
 834	8.3400e-001	-200.462341	-50.671672
 835	8.3500e-001	-199.172974	-50.380426
 836	8.3600e-001	-197.692871	-49.767277
 837	8.3700e-001	-196.601868	-50.201591
 838	8.3800e-001	-195.487976	-50.135166
 839	8.3900e-001	-194.152832	-50.094290
 840	8.4000e-001	-192.977905	-50.283344
 841	8.4100e-001	-191.856384	-50.002317
 842	8.4200e-001	-190.597534	-49.905235
 843	8.4300e-001	-189.201355	-50.027865
 844	8.4400e-001	-188.262939	-49.946112
 845	8.4500e-001	-186.828613	-49.782606
 846	8.4600e-001	-185.699463	-49.889907
 847	8.4700e-001	-185.073853	-49.981879
 848	8.4800e-001	-183.532715	-48.867991
 849	8.4900e-001	-182.098389	-49.639537
 850	8.5000e-001	-181.030273	-49.731510
 851	8.5100e-001	-179.725647	-49.665085
 852	8.5200e-001	-178.237915	-49.399387
 853	8.5300e-001	-177.932739	-49.414716
 854	8.5400e-001	-176.124573	-49.338072
 855	8.5500e-001	-174.934387	-49.465812
 856	8.5600e-001	-174.026489	-48.893539
 857	8.5700e-001	-172.706604	-49.215443
 858	8.5800e-001	-171.386719	-49.348292
 859	8.5900e-001	-170.425415	-48.786238
 860	8.6000e-001	-168.899536	-49.108141
 861	8.6100e-001	-167.716980	-49.082594
 862	8.6200e-001	-167.053223	-49.297196
 863	8.6300e-001	-165.191650	-48.489883
 864	8.6400e-001	-164.169312	-48.949745
 865	8.6500e-001	-162.925720	-48.888430
 866	8.6600e-001	-161.880493	-48.857772
 867	8.6700e-001	-161.903381	-49.629318
 868	8.6800e-001	-159.461975	-48.811786
 869	8.6900e-001	-158.081055	-48.663608
 870	8.7000e-001	-157.096863	-48.816896
 871	8.7100e-001	-156.295776	-48.449006
 872	8.7200e-001	-154.533386	-48.484773
 873	8.7300e-001	-153.381348	-48.540978
 874	8.7400e-001	-152.130127	-48.479664
 875	8.7500e-001	-151.138306	-48.239513
 876	8.7600e-001	-149.848938	-48.290609
 877	8.7700e-001	-148.284912	-48.275280
 878	8.7800e-001	-147.491455	-48.147541
 879	8.7900e-001	-146.270752	-47.784761
 880	8.8000e-001	-145.034790	-48.096445
 881	8.8100e-001	-143.737793	-48.106664
 882	8.8200e-001	-142.646790	-47.984035
 883	8.8300e-001	-141.342163	-47.881843
 884	8.8400e-001	-140.083313	-47.892062
 885	8.8500e-001	-138.984680	-47.697898
 886	8.8600e-001	-137.893677	-47.738775
 887	8.8700e-001	-136.550903	-47.605926
 888	8.8800e-001	-135.414124	-47.764323
 889	8.8900e-001	-133.934021	-47.590597
 890	8.9000e-001	-133.087158	-47.672350
 891	8.9100e-001	-131.805420	-47.401543
 892	8.9200e-001	-130.401611	-47.570159
 893	8.9300e-001	-129.470825	-47.176721
 894	8.9400e-001	-128.044128	-47.437310
 895	8.9500e-001	-126.869202	-47.667241
 896	8.9600e-001	-125.732422	-47.161393
 897	8.9700e-001	-124.732971	-47.166502
 898	8.9800e-001	-123.146057	-47.100078
 899	8.9900e-001	-122.497559	-46.497148
 900	9.0000e-001	-120.895386	-46.844599
 901	9.0100e-001	-119.636536	-46.854818
 902	9.0200e-001	-118.713379	-46.696421
 903	9.0300e-001	-117.477417	-46.640216
 904	9.0400e-001	-116.012573	-46.691312
 905	9.0500e-001	-114.898682	-46.456271
 906	9.0600e-001	-113.937378	-46.543134
 907	9.0700e-001	-112.411499	-46.471600
 908	9.0800e-001	-111.618042	-46.640216
 909	9.0900e-001	-110.458374	-46.369408
 910	9.1000e-001	-108.825684	-45.894218
 911	9.1100e-001	-107.727051	-45.781807
 912	9.1200e-001	-106.735229	-46.124149
 913	9.1300e-001	-105.331421	-46.205902
 914	9.1400e-001	-104.354858	-46.394956
 915	9.1500e-001	-103.202820	-45.878889
 916	9.1600e-001	-101.676941	-45.996409
 917	9.1700e-001	-100.685120	-45.700054
 918	9.1800e-001	-99.586487	-45.633629
 919	9.1900e-001	-98.098755	-45.648958
 920	9.2000e-001	-97.030640	-45.465013
 921	9.2100e-001	-95.901489	-45.419027
 922	9.2200e-001	-94.558716	-45.367931
 923	9.2300e-001	-93.460083	-45.327055
 924	9.2400e-001	-92.285156	-45.219754
 925	9.2500e-001	-90.881348	-45.189096
 926	9.2600e-001	-89.744568	-45.097124
 927	9.2700e-001	-89.004517	-45.168658
 928	9.2800e-001	-87.295532	-44.744563
 929	9.2900e-001	-86.364746	-44.785440
 930	9.3000e-001	-85.220337	-45.061357
 931	9.3100e-001	-83.717346	-45.056247
 932	9.3200e-001	-82.733154	-44.555509
 933	9.3300e-001	-81.558228	-44.432879
 934	9.3400e-001	-80.123901	-44.519742
 935	9.3500e-001	-79.109192	-44.346016
 936	9.3600e-001	-78.269958	-44.667919
 937	9.3700e-001	-76.606750	-44.208057
 938	9.3800e-001	-75.408936	-44.233605
 939	9.3900e-001	-74.493408	-44.121195
 940	9.4000e-001	-72.982788	-43.947469
 941	9.4100e-001	-71.907043	-44.085428
 942	9.4200e-001	-70.449829	-43.814620
 943	9.4300e-001	-69.358826	-43.630675
 944	9.4400e-001	-68.161011	-43.671552
 945	9.4500e-001	-67.184448	-43.845277
 946	9.4600e-001	-65.742493	-43.298553
 947	9.4700e-001	-64.712524	-43.487607
 948	9.4800e-001	-63.468933	-43.227019
 949	9.4900e-001	-62.133789	-43.283224
 950	9.5000e-001	-61.012268	-43.186142
 951	9.5100e-001	-59.844971	-43.078841
 952	9.5200e-001	-58.563232	-43.078841
 953	9.5300e-001	-57.327271	-42.976649
 954	9.5400e-001	-56.152344	-42.930663
 955	9.5500e-001	-55.381775	-42.894896
 956	9.5600e-001	-53.825378	-42.542335
 957	9.5700e-001	-52.680969	-42.460582
 958	9.5800e-001	-51.498413	-42.215323
 959	9.5900e-001	-50.270081	-42.343062
 960	9.6000e-001	-49.049377	-42.302185
 961	9.6100e-001	-47.813416	-42.383939
 962	9.6200e-001	-46.592712	-41.898529
 963	9.6300e-001	-45.478821	-41.944515
 964	9.6400e-001	-44.563293	-42.097802
 965	9.6500e-001	-43.128967	-41.648160
 966	9.6600e-001	-41.854858	-41.556187
 967	9.6700e-001	-40.756226	-41.566406
 968	9.6800e-001	-39.428711	-41.453996
 969	9.6900e-001	-38.230896	-41.336475
 970	9.7000e-001	-37.170410	-41.259832
 971	9.7100e-001	-35.934448	-41.167859
 972	9.7200e-001	-34.683228	-41.045229
 973	9.7300e-001	-33.843994	-40.856175
 974	9.7400e-001	-32.371521	-41.433557
 975	9.7500e-001	-31.143188	-40.677340
 976	9.7600e-001	-29.792786	-40.631354
 977	9.7700e-001	-29.708862	-40.937928
 978	9.7800e-001	-27.374268	-40.212368
 979	9.7900e-001	-26.412964	-40.421861
 980	9.8000e-001	-24.932861	-40.110177
 981	9.8100e-001	-23.910522	-40.074410
 982	9.8200e-001	-22.743225	-40.033533
 983	9.8300e-001	-21.507263	-39.870027
 984	9.8400e-001	-20.225525	-39.737178
 985	9.8500e-001	-19.584656	-39.583891
 986	9.8600e-001	-17.814636	-39.246658
 987	9.8700e-001	-16.769409	-39.307973
 988	9.8800e-001	-15.342712	-39.118919
 989	9.8900e-001	-14.083862	-39.011618
 990	9.9000e-001	-13.069153	-38.710153
 991	9.9100e-001	-11.985779	-38.653948
 992	9.9200e-001	-10.231018	-38.270729
 993	9.9300e-001	-9.689331	-38.582414
 994	9.9400e-001	-8.193970	-38.321825
 995	9.9500e-001	-6.935120	-38.168538
 996	9.9600e-001	-5.828857	-38.051018
 997	9.9700e-001	-4.646301	-37.907949
 998	9.9800e-001	-3.425598	-37.678018
 999	9.9900e-001	-2.288818	-37.545169
1000	1.0000e+000	-1.083374	-37.325458
1001	1.0010e+000	0.228882	-36.921801
1002	1.0020e+000	1.365662	-37.023993
1003	1.0030e+000	2.769470	-36.615226
1004	1.0040e+000	3.738403	-36.635665
1005	1.0050e+000	4.920959	-36.507925
1006	1.0060e+000	6.301880	-36.788952
1007	1.0070e+000	7.278442	-36.094050
1008	1.0080e+000	8.430481	-35.843680
1009	1.0090e+000	9.742737	-35.726160
1010	1.0100e+000	10.955811	-35.700612
1011	1.0110e+000	12.008667	-35.404257
1012	1.0120e+000	13.397217	-35.056806
1013	1.0130e+000	14.389038	-34.740012
1014	1.0140e+000	15.686035	-34.596944
1015	1.0150e+000	16.876221	-34.290369
1016	1.0160e+000	18.043518	-34.162630
1017	1.0170e+000	19.447327	-33.968466
1018	1.0180e+000	20.721436	-34.080876
1019	1.0190e+000	21.705627	-33.217358
1020	1.0200e+000	23.200989	-33.053852
1021	1.0210e+000	24.711609	-32.639976
1022	1.0220e+000	25.238037	-32.527565
1023	1.0230e+000	26.412964	-32.650195
1024	1.0240e+000	27.519226	-32.037046
1025	1.0250e+000	28.884888	-31.669156
1026	1.0260e+000	29.960632	-31.490321
1027	1.0270e+000	31.318665	-31.168418
1028	1.0280e+000	32.386780	-30.545049
1029	1.0290e+000	34.011841	-30.095407
1030	1.0300e+000	34.919739	-30.028982
1031	1.0310e+000	36.117554	-29.558901
1032	1.0320e+000	37.246704	-29.191012
1033	1.0330e+000	37.910461	-28.741369
1034	1.0340e+000	39.703369	-28.194644
1035	1.0350e+000	40.847778	-27.888070
1036	1.0360e+000	42.213440	-27.280030
1037	1.0370e+000	43.128967	-26.999003
1038	1.0380e+000	43.830872	-26.999003
1039	1.0390e+000	46.249390	-25.455911
1040	1.0400e+000	46.791077	-25.353719
1041	1.0410e+000	47.912598	-24.653707
1042	1.0420e+000	49.331665	-23.933257
1043	1.0430e+000	50.315857	-23.171930
1044	1.0440e+000	51.338196	-22.640534
1045	1.0450e+000	52.925110	-21.950741
1046	1.0460e+000	54.061890	-21.128100
1047	1.0470e+000	55.099487	-20.075527
1048	1.0480e+000	56.053162	-19.799610
1049	1.0490e+000	57.632446	-17.919285
1050	1.0500e+000	58.784485	-17.459424
1051	1.0510e+000	60.203552	-16.350645
1052	1.0520e+000	61.279297	-15.349168
1053	1.0530e+000	61.485291	-14.812663
1054	1.0540e+000	63.652039	-12.860805
1055	1.0550e+000	64.689636	-11.818451
1056	1.0560e+000	65.887451	-10.776097
1057	1.0570e+000	66.574097	-9.181909
1058	1.0580e+000	68.321228	-7.664365
1059	1.0590e+000	69.412231	-6.172369
1060	1.0600e+000	70.861816	-4.583290
1061	1.0610e+000	71.929932	-2.876692
1062	1.0620e+000	73.005676	-1.256956
1063	1.0630e+000	75.363159	0.837971
1064	1.0640e+000	75.363159	2.513912
1065	1.0650e+000	76.606750	4.179634
1066	1.0660e+000	77.728271	5.998643
1067	1.0670e+000	79.032898	8.231528
1068	1.0680e+000	79.902649	9.728634
1069	1.0690e+000	81.619263	12.630874
1070	1.0700e+000	82.489014	14.347691
1071	1.0710e+000	83.717346	16.325097
1072	1.0720e+000	85.365295	18.614188
1073	1.0730e+000	86.120605	20.550717
1074	1.0740e+000	87.364197	22.466809
1075	1.0750e+000	88.157654	24.101873
1076	1.0760e+000	89.706421	26.549360
1077	1.0770e+000	91.148376	28.399027
1078	1.0780e+000	92.689514	30.662570
1079	1.0790e+000	93.391418	32.011498
1080	1.0800e+000	94.657898	33.600576
1081	1.0810e+000	95.962524	34.811546
1082	1.0820e+000	97.175598	36.262666
1083	1.0830e+000	98.411560	37.846634
1084	1.0840e+000	99.693298	38.705043
1085	1.0850e+000	100.799561	39.752507
1086	1.0860e+000	102.165222	40.181711
1087	1.0870e+000	103.248596	40.728436
1088	1.0880e+000	104.431152	41.499982
1089	1.0890e+000	105.659485	41.913857
1090	1.0900e+000	106.849670	42.297076
1091	1.0910e+000	108.146667	42.762047
1092	1.0920e+000	109.405518	42.976649
1093	1.0930e+000	110.923767	43.094170
1094	1.0940e+000	111.862183	43.405854
1095	1.0950e+000	112.915039	43.819730
1096	1.0960e+000	114.326477	43.814620
1097	1.0970e+000	115.486145	44.279591
1098	1.0980e+000	117.485046	44.938727
1099	1.0990e+000	117.874146	44.443098
1100	1.1000e+000	118.873596	44.621933
1101	1.1010e+000	120.048523	44.274482
1102	1.1020e+000	121.185303	44.918289
1103	1.1030e+000	122.245789	44.708796
1104	1.1040e+000	123.786926	45.071576
1105	1.1050e+000	124.855042	45.245301
1106	1.1060e+000	126.174927	45.337274
1107	1.1070e+000	127.342224	45.403698
1108	1.1080e+000	128.425598	45.618301
1109	1.1090e+000	129.501343	45.582534
1110	1.1100e+000	131.034851	45.761369
1111	1.1110e+000	131.484985	46.062834
1112	1.1120e+000	133.468628	46.144587
1113	1.1130e+000	133.903503	46.052615
1114	1.1140e+000	135.734558	46.073053
1115	1.1150e+000	137.077332	46.267217
1116	1.1160e+000	138.191223	46.251888
1117	1.1170e+000	139.198303	46.415395
1118	1.1180e+000	140.556335	46.497148
1119	1.1190e+000	141.876221	46.584011
1120	1.1200e+000	142.768860	46.696421
1121	1.1210e+000	144.126892	47.074530
1122	1.1220e+000	145.225525	46.957010
1123	1.1230e+000	146.308899	47.013215
1124	1.1240e+000	147.628784	47.013215
1125	1.1250e+000	148.979187	47.166502
1126	1.1260e+000	149.726868	47.258475
1127	1.1270e+000	151.397705	47.299351
1128	1.1280e+000	151.618958	46.548244
1129	1.1290e+000	153.060913	46.757736
1130	1.1300e+000	154.937744	47.886953
1131	1.1310e+000	156.600952	47.892062
1132	1.1320e+000	157.150269	47.626364
1133	1.1330e+000	158.599854	48.009582
1134	1.1340e+000	159.950256	47.892062
1135	1.1350e+000	160.720825	47.881843
1136	1.1360e+000	162.033081	48.132212
1137	1.1370e+000	163.200378	48.081117
1138	1.1380e+000	164.451599	48.127103
1139	1.1390e+000	165.657043	48.224185
1140	1.1400e+000	167.068481	48.571636
1141	1.1410e+000	168.151855	48.234404
1142	1.1420e+000	169.342041	48.464335
1143	1.1430e+000	170.783997	49.011060
1144	1.1440e+000	171.676636	48.213966
1145	1.1450e+000	173.027039	48.776019
1146	1.1460e+000	174.163818	48.663608
1147	1.1470e+000	176.658630	49.062155
1148	1.1480e+000	176.498413	48.188418
1149	1.1490e+000	177.841187	48.975292
1150	1.1500e+000	179.161072	49.031498
1151	1.1510e+000	180.107117	49.057046
1152	1.1520e+000	181.312561	49.179676
1153	1.1530e+000	182.289124	49.128580
1154	1.1540e+000	183.715820	49.368730
1155	1.1550e+000	185.081482	49.486250
1156	1.1560e+000	186.180115	49.332963
1157	1.1570e+000	187.362671	49.491360
1158	1.1580e+000	187.171936	48.770909
1159	1.1590e+000	190.147400	49.920564
1160	1.1600e+000	190.879822	49.787715
1161	1.1610e+000	192.001343	49.838811
1162	1.1620e+000	193.222046	49.859249
1163	1.1630e+000	194.602966	49.731510
1164	1.1640e+000	195.869446	49.736619
1165	1.1650e+000	196.304321	50.130057
1166	1.1660e+000	198.043823	50.043194
1167	1.1670e+000	199.348450	50.273125
1168	1.1680e+000	200.004578	50.130057
1169	1.1690e+000	201.805115	50.395755
1170	1.1700e+000	202.919006	50.319111
1171	1.1710e+000	203.948975	50.416193
1172	1.1720e+000	205.368042	50.508165
1173	1.1730e+000	205.413818	49.578223
1174	1.1740e+000	207.542419	50.451960
1175	1.1750e+000	208.824158	50.635905
1176	1.1760e+000	210.060120	50.876055
1177	1.1770e+000	211.593628	51.024233
1178	1.1780e+000	212.547302	50.763644
1179	1.1790e+000	213.668823	50.937370
1180	1.1800e+000	214.828491	50.773863
1181	1.1810e+000	216.125488	51.085548
1182	1.1820e+000	217.254639	51.080438
1183	1.1830e+000	217.811584	50.574590
1184	1.1840e+000	219.535828	51.167301
1185	1.1850e+000	220.924377	51.279712
1186	1.1860e+000	221.916199	51.289931
1187	1.1870e+000	223.251343	51.310369
1188	1.1880e+000	224.914551	51.100876
1189	1.1890e+000	225.334167	51.366574
1190	1.1900e+000	226.913452	51.341026
1191	1.1910e+000	228.019714	51.351246
1192	1.1920e+000	229.316711	51.535190
1193	1.1930e+000	230.422974	51.693587
1194	1.1940e+000	231.689453	51.785560
1195	1.1950e+000	232.872009	51.683368
1196	1.1960e+000	233.749390	51.484095
1197	1.1970e+000	235.229492	51.821327
1198	1.1980e+000	236.503601	51.703806
1199	1.1990e+000	237.602234	51.642491
1200	1.2000e+000	238.662720	51.918409
1201	1.2010e+000	241.134644	52.301627
1202	1.2020e+000	241.325378	52.127901
1203	1.2030e+000	242.645264	51.591396
1204	1.2040e+000	243.576050	52.092134
1205	1.2050e+000	245.307922	52.235202
1206	1.2060e+000	245.956421	52.260750
1207	1.2070e+000	247.322083	52.230093
1208	1.2080e+000	248.558044	52.148340
1209	1.2090e+000	249.794006	52.419147
1210	1.2100e+000	251.014709	52.853461
1211	1.2110e+000	251.838684	52.291408
1212	1.2120e+000	253.265381	52.592873
1213	1.2130e+000	254.493713	52.633749
1214	1.2140e+000	255.645752	52.506010
1215	1.2150e+000	256.797791	52.705283
1216	1.2160e+000	258.132935	52.715503
1217	1.2170e+000	259.300232	52.735941
1218	1.2180e+000	259.475708	51.918409
1219	1.2190e+000	262.138367	53.303104
1220	1.2200e+000	262.664795	52.730831
1221	1.2210e+000	263.885498	52.746160
1222	1.2220e+000	265.350342	52.965872
1223	1.2230e+000	266.410828	52.914776
1224	1.2240e+000	267.814636	53.318433
1225	1.2250e+000	269.035339	53.108940
1226	1.2260e+000	270.042419	53.180474
1227	1.2270e+000	271.232605	53.119159
1228	1.2280e+000	272.552490	53.185584
1229	1.2290e+000	273.712158	53.144707
1230	1.2300e+000	274.749756	53.379748
1231	1.2310e+000	276.161194	53.313323
1232	1.2320e+000	277.259827	53.257118
1233	1.2330e+000	277.069092	52.526448
1234	1.2340e+000	280.082703	53.543254
1235	1.2350e+000	280.975342	53.517706
1236	1.2360e+000	282.196045	53.757856
1237	1.2370e+000	282.630920	53.308213
1238	1.2380e+000	284.553528	53.619898
1239	1.2390e+000	285.736084	53.911144
1240	1.2400e+000	287.200928	53.803842
1241	1.2410e+000	287.879944	53.430843
1242	1.2420e+000	289.344788	53.972458
1243	1.2430e+000	290.611267	53.849829
1244	1.2440e+000	291.801453	53.803842
1245	1.2450e+000	292.839050	53.967349
1246	1.2460e+000	294.250488	54.043993
1247	1.2470e+000	295.372009	54.008225
1248	1.2480e+000	296.051025	53.379748
1249	1.2490e+000	297.721863	54.207499
1250	1.2500e+000	298.881531	54.028664
1251	1.2510e+000	300.163269	54.156403
1252	1.2520e+000	299.125671	54.238156
1253	1.2530e+000	297.904968	54.064431
1254	1.2540e+000	296.775818	54.207499
1255	1.2550e+000	295.799255	54.069540
1256	1.2560e+000	294.471741	54.110417
1257	1.2570e+000	293.098450	54.279033
1258	1.2580e+000	292.182922	54.141074
1259	1.2590e+000	290.733337	53.936691
1260	1.2600e+000	289.588928	53.972458
1261	1.2610e+000	288.078308	53.977568
1262	1.2620e+000	287.239075	53.992897
1263	1.2630e+000	285.125732	53.052735
1264	1.2640e+000	284.904480	53.936691
1265	1.2650e+000	283.546448	53.946911
1266	1.2660e+000	282.325745	53.998006
1267	1.2670e+000	281.257629	53.890705
1268	1.2680e+000	280.006409	53.982678
1269	1.2690e+000	278.739929	53.952020
1270	1.2700e+000	277.099609	53.722089
1271	1.2710e+000	276.405334	53.384857
1272	1.2720e+000	275.238037	53.696541
1273	1.2730e+000	274.139404	53.773185
1274	1.2740e+000	272.750854	53.747637
1275	1.2750e+000	271.537781	53.660774
1276	1.2760e+000	270.240784	53.757856
1277	1.2770e+000	269.325256	53.706760
1278	1.2780e+000	266.822815	52.495791
1279	1.2790e+000	266.708374	53.906034
1280	1.2800e+000	265.670776	53.614788
1281	1.2810e+000	264.312744	53.507487
1282	1.2820e+000	263.076782	53.481939
1283	1.2830e+000	261.993408	53.328652
1284	1.2840e+000	260.787964	53.527925
1285	1.2850e+000	259.407043	53.303104
1286	1.2860e+000	258.369446	53.737418
1287	1.2870e+000	257.110596	53.711870
1288	1.2880e+000	255.897522	53.395076
1289	1.2890e+000	254.730225	53.640336
1290	1.2900e+000	253.677368	53.154926
1291	1.2910e+000	252.403259	53.257118
1292	1.2920e+000	251.327515	53.236679
1293	1.2930e+000	248.603821	52.398709
1294	1.2940e+000	248.954773	53.277556
1295	1.2950e+000	247.596741	53.149817
1296	1.2960e+000	246.490479	53.052735
1297	1.2970e+000	244.941711	53.216241
1298	1.2980e+000	244.079590	52.909667
1299	1.2990e+000	242.774963	52.894338
1300	1.3000e+000	241.523743	52.970981
1301	1.3010e+000	240.310669	53.614788
1302	1.3020e+000	239.196777	52.751270
1303	1.3030e+000	237.739563	52.797256
1304	1.3040e+000	236.366272	52.434476
1305	1.3050e+000	235.687256	52.827913
1306	1.3060e+000	234.436035	52.705283
1307	1.3070e+000	232.681274	52.935214
1308	1.3080e+000	232.147217	52.618421
1309	1.3090e+000	231.079102	52.848352
1310	1.3100e+000	229.614258	52.822804
1311	1.3110e+000	228.538513	52.608201
1312	1.3120e+000	227.180481	52.301627
1313	1.3130e+000	225.997925	52.715503
1314	1.3140e+000	224.983215	52.557106
1315	1.3150e+000	223.609924	52.562215
1316	1.3160e+000	222.801208	52.010381
1317	1.3170e+000	221.221924	52.419147
1318	1.3180e+000	219.993591	52.327175
1319	1.3190e+000	218.864441	52.393599
1320	1.3200e+000	217.674255	52.107463
1321	1.3210e+000	216.445923	52.158559
1322	1.3220e+000	215.049744	52.327175
1323	1.3230e+000	214.179993	52.107463
1324	1.3240e+000	212.608337	52.439585
1325	1.3250e+000	211.669922	52.224983
1326	1.3260e+000	210.319519	52.163668
1327	1.3270e+000	209.175110	52.368051
1328	1.3280e+000	208.183289	52.265860
1329	1.3290e+000	206.817627	52.005271
1330	1.3300e+000	205.482483	52.102353
1331	1.3310e+000	204.582214	52.787037
1332	1.3320e+000	203.239441	51.892861
1333	1.3330e+000	201.957703	52.122792
1334	1.3340e+000	200.866699	51.923518
1335	1.3350e+000	199.600220	51.330807
1336	1.3360e+000	198.341370	51.826436
1337	1.3370e+000	197.235107	51.882642
1338	1.3380e+000	196.075439	51.632272
1339	1.3390e+000	195.991516	52.102353
1340	1.3400e+000	193.473816	51.857094
1341	1.3410e+000	192.550659	51.647601
1342	1.3420e+000	191.268921	52.056367
1343	1.3430e+000	190.124512	51.714026
1344	1.3440e+000	188.659668	51.060000
1345	1.3450e+000	187.553406	51.581177
1346	1.3460e+000	186.408997	51.550519
1347	1.3470e+000	185.340881	51.427889
1348	1.3480e+000	183.937073	51.453437
1349	1.3490e+000	182.762146	51.453437
1350	1.3500e+000	181.007385	50.784083
1351	1.3510e+000	180.404663	51.131534
1352	1.3520e+000	179.244995	51.177520
1353	1.3530e+000	178.016663	51.238835
1354	1.3540e+000	176.689148	50.927151
1355	1.3550e+000	175.628662	51.407451
1356	1.3560e+000	174.491882	51.019123
1357	1.3570e+000	173.194885	51.019123
1358	1.3580e+000	171.890259	50.789192
1359	1.3590e+000	170.562744	50.840288
1360	1.3600e+000	169.708252	50.916932
1361	1.3610e+000	168.495178	51.141753
1362	1.3620e+000	167.106628	50.462179
1363	1.3630e+000	166.084290	50.692110
1364	1.3640e+000	164.817810	50.860726
1365	1.3650e+000	163.475037	50.712549
1366	1.3660e+000	162.620544	50.615467
1367	1.3670e+000	161.239624	50.712549
1368	1.3680e+000	160.041809	50.508165
1369	1.3690e+000	158.805847	50.482618
1370	1.3700e+000	158.119202	50.349769
1371	1.3710e+000	156.272888	50.365097
1372	1.3720e+000	155.242920	50.191372
1373	1.3730e+000	154.022217	50.416193
1374	1.3740e+000	152.648926	50.181153
1375	1.3750e+000	151.710510	50.206700
1376	1.3760e+000	150.367737	50.257796
1377	1.3770e+000	148.956299	50.232248
1378	1.3780e+000	148.094177	50.181153
1379	1.3790e+000	146.713257	50.053413
1380	1.3800e+000	145.568848	50.017646
1381	1.3810e+000	144.790649	50.247577
1382	1.3820e+000	143.127441	49.946112
1383	1.3830e+000	142.051697	49.879688
1384	1.3840e+000	140.830994	49.787715
1385	1.3850e+000	139.541626	49.782606
1386	1.3860e+000	138.305664	49.762167
1387	1.3870e+000	137.489319	49.741729
1388	1.3880e+000	135.978699	49.286977
1389	1.3890e+000	134.712219	49.460702
1390	1.3900e+000	133.689880	49.568003
1391	1.3910e+000	132.156372	49.491360
1392	1.3920e+000	131.195068	48.903758
1393	1.3930e+000	130.126953	49.384059
1394	1.3940e+000	128.768921	49.455593
1395	1.3950e+000	127.449036	49.225662
1396	1.3960e+000	126.556396	49.286977
1397	1.3970e+000	125.160217	49.205223
1398	1.3980e+000	123.893738	49.230771
1399	1.3990e+000	122.985840	49.021279
1400	1.4000e+000	121.421814	48.949745
1401	1.4010e+000	120.452881	48.709594
1402	1.4020e+000	119.316101	48.903758
1403	1.4030e+000	118.118286	48.571636
1404	1.4040e+000	116.699219	48.908868
1405	1.4050e+000	115.722656	48.847553
1406	1.4060e+000	114.585876	48.806676
1407	1.4070e+000	112.991333	48.505211
1408	1.4080e+000	112.045288	48.561417
1409	1.4090e+000	111.236572	48.862882
1410	1.4100e+000	109.527588	48.520540
1411	1.4110e+000	108.406067	48.438787
1412	1.4120e+000	106.971741	48.397910
1413	1.4130e+000	105.957031	48.265061
1414	1.4140e+000	104.965210	48.152651
1415	1.4150e+000	103.591919	48.648280
1416	1.4160e+000	103.507996	48.653389
1417	1.4170e+000	101.249695	48.065788
1418	1.4180e+000	100.120544	48.801567
1419	1.4190e+000	98.701477	47.886953
1420	1.4200e+000	97.640991	47.973815
1421	1.4210e+000	96.382141	47.938048
1422	1.4220e+000	95.001221	47.416872
1423	1.4230e+000	94.146729	47.840966
1424	1.4240e+000	92.994690	47.784761
1425	1.4250e+000	91.552734	47.820528
1426	1.4260e+000	90.316772	47.488406
1427	1.4270e+000	88.951111	47.181831
1428	1.4280e+000	88.172913	47.713227
1429	1.4290e+000	86.845398	47.427091
1430	1.4300e+000	85.594177	47.452639
1431	1.4310e+000	84.472656	47.340228
1432	1.4320e+000	83.335876	47.166502
1433	1.4330e+000	81.687927	47.125626
1434	1.4340e+000	80.841064	47.243146
1435	1.4350e+000	79.544067	47.146064
1436	1.4360e+000	78.353882	47.105187
1437	1.4370e+000	77.140808	47.074530
1438	1.4380e+000	75.981140	46.819051
1439	1.4390e+000	74.554443	46.890585
1440	1.4400e+000	73.455811	46.742407
1441	1.4410e+000	72.303772	46.624887
1442	1.4420e+000	71.144104	46.645325
1443	1.4430e+000	69.801331	46.604449
1444	1.4440e+000	68.771362	46.267217
1445	1.4450e+000	67.626953	46.420504
1446	1.4460e+000	66.329956	46.139477
1447	1.4470e+000	65.017700	46.706640
1448	1.4480e+000	63.896179	46.216121
1449	1.4490e+000	62.812805	46.165025
1450	1.4500e+000	61.477661	46.093491
1451	1.4510e+000	60.371399	45.955533
1452	1.4520e+000	59.181213	45.771588
1453	1.4530e+000	57.983398	45.792026
1454	1.4540e+000	56.808472	45.725602
1455	1.4550e+000	55.625916	45.766478
1456	1.4560e+000	54.473877	45.735821
1457	1.4570e+000	53.123474	45.536547
1458	1.4580e+000	51.681519	45.255521
1459	1.4590e+000	50.811768	45.398589
1460	1.4600e+000	49.606323	45.204425
1461	1.4610e+000	48.141479	45.086905
1462	1.4620e+000	46.829224	44.208057
1463	1.4630e+000	45.890808	44.979604
1464	1.4640e+000	44.876099	45.209534
1465	1.4650e+000	43.258667	44.841645
1466	1.4660e+000	42.396545	44.872302
1467	1.4670e+000	41.252136	44.703686
1468	1.4680e+000	39.924622	44.494194
1469	1.4690e+000	38.864136	44.805878
1470	1.4700e+000	37.521362	44.392002
1471	1.4710e+000	36.430359	44.412440
1472	1.4720e+000	35.133362	44.105866
1473	1.4730e+000	33.958435	43.850387
1474	1.4740e+000	32.485962	43.932140
1475	1.4750e+000	31.745911	43.937250
1476	1.4760e+000	30.380249	43.901483
1477	1.4770e+000	29.136658	43.737976
1478	1.4780e+000	28.289795	43.783963
1479	1.4790e+000	26.832581	43.441621
1480	1.4800e+000	25.680542	43.303662
1481	1.4810e+000	24.406433	43.201471
1482	1.4820e+000	23.460388	43.247457
1483	1.4830e+000	21.568298	42.312404
1484	1.4840e+000	20.767212	42.971540
1485	1.4850e+000	19.691467	42.915335
1486	1.4860e+000	18.409729	42.802924
1487	1.4870e+000	17.356873	43.007307
1488	1.4880e+000	16.014099	42.481021
1489	1.4890e+000	14.564514	42.460582
1490	1.4900e+000	13.687134	41.949625
1491	1.4910e+000	12.405396	42.092693
1492	1.4920e+000	11.131287	41.934296
1493	1.4930e+000	9.353638	41.321147
1494	1.4940e+000	9.086609	41.949625
1495	1.4950e+000	7.499695	41.423338
1496	1.4960e+000	6.454468	41.244503
1497	1.4970e+000	5.126953	41.249613
1498	1.4980e+000	3.929138	40.738655
1499	1.4990e+000	2.784729	40.687559
1500	1.5000e+000	1.617432	40.508724
1501	1.5010e+000	0.411987	40.253245
1502	1.5020e+000	-0.198364	40.084629
1503	1.5030e+000	-1.899719	39.655425
1504	1.5040e+000	-2.723694	39.634986
1505	1.5050e+000	-4.249573	38.567085
1506	1.5060e+000	-5.523682	38.638619
1507	1.5070e+000	-6.477356	38.454674
1508	1.5080e+000	-7.766724	37.780210
1509	1.5090e+000	-9.025574	37.652471
1510	1.5100e+000	-10.147095	37.008664
1511	1.5110e+000	-11.337280	36.369967
1512	1.5120e+000	-12.664795	35.859009
1513	1.5130e+000	-13.847351	35.097682
1514	1.5140e+000	-15.151978	34.653149
1515	1.5150e+000	-16.021729	33.733425
1516	1.5160e+000	-17.250061	32.926112
1517	1.5170e+000	-18.524170	31.955293
1518	1.5180e+000	-19.821167	31.020240
1519	1.5190e+000	-20.881653	29.962558
1520	1.5200e+000	-21.797180	28.761807
1521	1.5210e+000	-23.406982	27.550837
1522	1.5220e+000	-24.513245	26.242786
1523	1.5230e+000	-25.718689	25.082912
1524	1.5240e+000	-27.526855	22.783602
1525	1.5250e+000	-27.915955	21.925194
1526	1.5260e+000	-29.174805	20.141951
1527	1.5270e+000	-30.670166	18.665284
1528	1.5280e+000	-31.555176	16.631672
1529	1.5290e+000	-32.875061	14.817772
1530	1.5300e+000	-34.355164	12.860805
1531	1.5310e+000	-35.125732	10.975371
1532	1.5320e+000	-36.293030	8.875335
1533	1.5330e+000	-37.696838	6.805956
1534	1.5340e+000	-38.665771	4.935851
1535	1.5350e+000	-39.802551	2.973774
1536	1.5360e+000	-41.305542	0.659135
1537	1.5370e+000	-42.297363	-1.251846
1538	1.5380e+000	-43.495178	-3.479622
1539	1.5390e+000	-44.105530	-5.130015
1540	1.5400e+000	-45.967102	-7.327133
1541	1.5410e+000	-47.248840	-8.384815
1542	1.5420e+000	-48.576355	-10.893617
1543	1.5430e+000	-49.415588	-12.554230
1544	1.5440e+000	-50.903320	-14.127980
1545	1.5450e+000	-52.261353	-15.267415
1546	1.5460e+000	-53.237915	-17.392999
1547	1.5470e+000	-54.473877	-18.276956
1548	1.5480e+000	-55.267334	-19.436830
1549	1.5490e+000	-57.006836	-20.627361
1550	1.5500e+000	-58.654785	-21.991618
1551	1.5510e+000	-59.402466	-22.614986
1552	1.5520e+000	-60.447693	-23.570477
1553	1.5530e+000	-61.622620	-24.541297
1554	1.5540e+000	-63.102722	-25.271966
1555	1.5550e+000	-63.819885	-25.772705
1556	1.5560e+000	-65.536499	-26.861045
1557	1.5570e+000	-66.703796	-27.663248
1558	1.5580e+000	-67.565918	-28.245740
1559	1.5590e+000	-69.091797	-28.807793
1560	1.5600e+000	-70.304871	-29.507805
1561	1.5610e+000	-71.395874	-30.080078
1562	1.5620e+000	-72.471619	-30.545049
1563	1.5630e+000	-73.829651	-31.158199
1564	1.5640e+000	-74.920654	-31.745800
1565	1.5650e+000	-76.187134	-32.307853
1566	1.5660e+000	-77.560425	-32.706400
1567	1.5670e+000	-78.613281	-32.921003
1568	1.5680e+000	-79.750061	-33.529042
1569	1.5690e+000	-81.184387	-33.953137
1570	1.5700e+000	-82.199097	-34.336355
1571	1.5710e+000	-83.427429	-34.678697
1572	1.5720e+000	-84.602356	-35.184545
1573	1.5730e+000	-85.700989	-35.434914
1574	1.5740e+000	-87.005615	-35.629078
1575	1.5750e+000	-88.226318	-36.186022
1576	1.5760e+000	-89.576721	-36.860486
1577	1.5770e+000	-90.583801	-37.013773
1578	1.5780e+000	-91.873169	-37.115965
1579	1.5790e+000	-93.070984	-37.269252
1580	1.5800e+000	-94.177246	-37.591156
1581	1.5810e+000	-95.443726	-37.974374
1582	1.5820e+000	-96.588135	-38.066346
1583	1.5830e+000	-97.869873	-38.250291
1584	1.5840e+000	-98.907471	-38.848111
1585	1.5850e+000	-98.739624	-38.209414
1586	1.5860e+000	-101.669312	-39.098481
1587	1.5870e+000	-102.676392	-39.216001
1588	1.5880e+000	-103.767395	-39.435713
1589	1.5890e+000	-105.049133	-39.721849
1590	1.5900e+000	-106.323242	-39.916013
1591	1.5910e+000	-107.307434	-40.089739
1592	1.5920e+000	-108.779907	-40.243026
1593	1.5930e+000	-109.817505	-40.442299
1594	1.5940e+000	-111.053467	-40.621135
1595	1.5950e+000	-112.510681	-40.467847
1596	1.5960e+000	-113.151550	-40.585368
1597	1.5970e+000	-114.562988	-41.142311
1598	1.5980e+000	-115.783691	-41.188298
1599	1.5990e+000	-117.149353	-41.254722
1600	1.6000e+000	-118.255615	-41.658379
1601	1.6010e+000	-119.354248	-41.438667
1602	1.6020e+000	-120.628357	-41.893419
1603	1.6030e+000	-121.955872	-42.302185
1604	1.6040e+000	-123.352051	-42.133569
1605	1.6050e+000	-124.465942	-42.128460
1606	1.6060e+000	-125.503540	-42.286857
1607	1.6070e+000	-126.686096	-42.756938
1608	1.6080e+000	-127.822876	-42.486130
1609	1.6090e+000	-129.272461	-42.608760
1610	1.6100e+000	-130.241394	-42.690513
1611	1.6110e+000	-131.294250	-42.997088
1612	1.6120e+000	-132.713318	-42.905115
1613	1.6130e+000	-133.682251	-42.736499
1614	1.6140e+000	-135.116577	-43.094170
1615	1.6150e+000	-136.398315	-43.410963
1616	1.6160e+000	-137.908936	-43.298553
1617	1.6170e+000	-138.694763	-43.528484
1618	1.6180e+000	-139.846802	-43.691990
1619	1.6190e+000	-141.174316	-43.691990
1620	1.6200e+000	-142.341614	-43.921921
1621	1.6210e+000	-143.638611	-44.167181
1622	1.6220e+000	-145.202637	-44.274482
1623	1.6230e+000	-145.919800	-44.131414
1624	1.6240e+000	-147.201538	-44.233605
1625	1.6250e+000	-148.422241	-44.473755
1626	1.6260e+000	-149.391174	-44.437988
1627	1.6270e+000	-150.695801	-44.632152
1628	1.6280e+000	-151.847839	-44.652591
1629	1.6290e+000	-153.137207	-44.821207
1630	1.6300e+000	-154.296875	-44.816097
1631	1.6310e+000	-155.395508	-44.872302
1632	1.6320e+000	-156.929016	-45.000042
1633	1.6330e+000	-157.997131	-45.332164
1634	1.6340e+000	-159.111023	-45.189096
1635	1.6350e+000	-160.263062	-45.434356
1636	1.6360e+000	-161.590576	-45.495671
1637	1.6370e+000	-162.857056	-45.393479
1638	1.6380e+000	-163.803101	-44.780330
1639	1.6390e+000	-165.275574	-45.756259
1640	1.6400e+000	-166.488647	-45.894218
1641	1.6410e+000	-167.953491	-46.011738
1642	1.6420e+000	-168.685913	-46.006628
1643	1.6430e+000	-169.967651	-46.067943
1644	1.6440e+000	-170.974731	-46.308093
1645	1.6450e+000	-171.142578	-45.705163
1646	1.6460e+000	-173.652649	-46.476709
1647	1.6470e+000	-174.667358	-46.481819
1648	1.6480e+000	-175.979614	-46.481819
1649	1.6490e+000	-177.093506	-46.706640
1650	1.6500e+000	-178.222656	-46.410285
1651	1.6510e+000	-179.687500	-46.803722
1652	1.6520e+000	-180.725098	-46.696421
1653	1.6530e+000	-181.869507	-47.105187
1654	1.6540e+000	-183.219910	-47.140954
1655	1.6550e+000	-185.165405	-47.299351
1656	1.6560e+000	-185.562134	-47.289132
1657	1.6570e+000	-186.737061	-47.314680
1658	1.6580e+000	-187.927246	-47.457748
1659	1.6590e+000	-188.781738	-47.513954
1660	1.6600e+000	-190.742493	-47.442419
1661	1.6610e+000	-191.452026	-47.636583
1662	1.6620e+000	-192.619324	-47.697898
1663	1.6630e+000	-194.114685	-47.728556
1664	1.6640e+000	-195.037842	-47.871624
1665	1.6650e+000	-196.189880	-47.570159
1666	1.6660e+000	-197.700500	-48.127103
1667	1.6670e+000	-198.669434	-47.907391
1668	1.6680e+000	-199.859619	-48.121993
1669	1.6690e+000	-201.309204	-49.031498
1670	1.6700e+000	-202.125549	-47.902281
1671	1.6710e+000	-203.590393	-48.423458
1672	1.6720e+000	-204.803467	-48.484773
1673	1.6730e+000	-205.894470	-48.581855
1674	1.6740e+000	-207.214355	-48.612513
1675	1.6750e+000	-208.168030	-48.576745
1676	1.6760e+000	-209.541321	-48.704485
1677	1.6770e+000	-210.769653	-48.760690
1678	1.6780e+000	-212.371826	-49.000840
1679	1.6790e+000	-213.188171	-48.919087
1680	1.6800e+000	-214.340210	-49.051936
1681	1.6810e+000	-215.492249	-48.908868
1682	1.6820e+000	-216.728210	-49.087703
1683	1.6830e+000	-217.941284	-49.276757
1684	1.6840e+000	-219.230652	-49.419826
1685	1.6850e+000	-220.352173	-49.935893
1686	1.6860e+000	-221.588135	-49.527127
1687	1.6870e+000	-222.770691	-49.726400
1688	1.6880e+000	-224.029541	-49.603770
1689	1.6890e+000	-225.219727	-49.557784
1690	1.6900e+000	-226.501465	-49.915455
1691	1.6910e+000	-227.554321	-49.884797
1692	1.6920e+000	-228.759766	-49.813263
1693	1.6930e+000	-230.056763	-49.961441
1694	1.6940e+000	-231.178284	-50.078961
1695	1.6950e+000	-232.398987	-50.252687
1696	1.6960e+000	-234.046936	-49.941002
1697	1.6970e+000	-234.779358	-50.135166
1698	1.6980e+000	-236.015320	-50.314002
1699	1.6990e+000	-237.190247	-50.339549
1700	1.7000e+000	-238.533020	-51.177520
1701	1.7010e+000	-239.555359	-50.610357
1702	1.7020e+000	-240.783691	-50.646124
1703	1.7030e+000	-241.966248	-50.748316
1704	1.7040e+000	-244.392395	-51.233725
1705	1.7050e+000	-244.277954	-50.865836
1706	1.7060e+000	-245.460510	-50.753425
1707	1.7070e+000	-246.742249	-50.896493
1708	1.7080e+000	-247.879028	-51.034452
1709	1.7090e+000	-249.153137	-51.136643
1710	1.7100e+000	-250.389099	-51.172410
1711	1.7110e+000	-251.762390	-51.203068
1712	1.7120e+000	-252.807617	-51.177520
1713	1.7130e+000	-254.043579	-51.356355
1714	1.7140e+000	-255.119324	-51.432999
1715	1.7150e+000	-256.774902	-51.509642
1716	1.7160e+000	-257.545471	-52.030819
1717	1.7170e+000	-258.682251	-51.540300
1718	1.7180e+000	-259.941101	-51.642491
1719	1.7190e+000	-261.428833	-51.785560
1720	1.7200e+000	-262.046814	-51.678259
1721	1.7210e+000	-263.526917	-51.872422
1722	1.7220e+000	-264.923096	-52.010381
1723	1.7230e+000	-265.861511	-51.857094
1724	1.7240e+000	-267.723083	-52.020600
1725	1.7250e+000	-268.455505	-52.178997
1726	1.7260e+000	-269.325256	-52.061477
1727	1.7270e+000	-270.935059	-52.603092
1728	1.7280e+000	-272.079468	-52.332284
1729	1.7290e+000	-273.612976	-52.695064
1730	1.7300e+000	-274.261475	-52.378271
1731	1.7310e+000	-275.558472	-52.546887
1732	1.7320e+000	-276.672363	-52.332284
1733	1.7330e+000	-278.282166	-52.434476
1734	1.7340e+000	-278.823853	-52.705283
1735	1.7350e+000	-280.197144	-52.771708
1736	1.7360e+000	-281.387329	-52.802365
1737	1.7370e+000	-282.821655	-52.827913
1738	1.7380e+000	-283.905029	-52.945434
1739	1.7390e+000	-285.209656	-53.083392
1740	1.7400e+000	-286.437988	-53.037406
1741	1.7410e+000	-287.414551	-53.487049
1742	1.7420e+000	-288.742065	-53.108940
1743	1.7430e+000	-289.833069	-53.323542
1744	1.7440e+000	-291.053772	-53.487049
1745	1.7450e+000	-292.327881	-53.323542
1746	1.7460e+000	-293.518066	-53.425734
1747	1.7470e+000	-294.593811	-53.538144
1748	1.7480e+000	-295.867920	-53.338871
1749	1.7490e+000	-297.294617	-53.860048
1750	1.7500e+000	-298.400879	-53.548364
1751	1.7510e+000	-299.491882	-53.788514
1752	1.7520e+000	-298.103333	-53.584131
1753	1.7530e+000	-297.508240	-53.696541
1754	1.7540e+000	-296.203613	-53.645446
1755	1.7550e+000	-294.906616	-53.660774
1756	1.7560e+000	-293.769836	-53.650555
1757	1.7570e+000	-292.816162	-53.732308
1758	1.7580e+000	-291.549683	-54.279033
1759	1.7590e+000	-290.069580	-53.563692
1760	1.7600e+000	-289.268494	-53.732308
1761	1.7610e+000	-287.902832	-53.395076
1762	1.7620e+000	-286.575317	-53.497268
1763	1.7630e+000	-286.537170	-53.527925
1764	1.7640e+000	-284.164429	-53.507487
1765	1.7650e+000	-282.966614	-53.389967
1766	1.7660e+000	-281.730652	-53.415515
1767	1.7670e+000	-280.555725	-53.425734
1768	1.7680e+000	-279.273987	-53.369528
1769	1.7690e+000	-278.251648	-53.277556
1770	1.7700e+000	-276.901245	-53.354200
1771	1.7710e+000	-275.787354	-53.057844
1772	1.7720e+000	-274.658203	-53.384857
1773	1.7730e+000	-273.338318	-53.231570
1774	1.7740e+000	-272.064209	-53.287775
1775	1.7750e+000	-271.057129	-53.149817
1776	1.7760e+000	-269.836426	-53.231570
1777	1.7770e+000	-268.676758	-53.134488
1778	1.7780e+000	-267.990112	-53.435953
1779	1.7790e+000	-266.281128	-52.981201
1780	1.7800e+000	-264.785767	-52.914776
1781	1.7810e+000	-263.778687	-53.042516
1782	1.7820e+000	-262.588501	-52.991420
1783	1.7830e+000	-261.398315	-53.006748
1784	1.7840e+000	-260.284424	-52.843242
1785	1.7850e+000	-258.827209	-52.930105
1786	1.7860e+000	-257.797241	-52.945434
1787	1.7870e+000	-256.698608	-52.914776
1788	1.7880e+000	-255.630493	-52.924995
1789	1.7890e+000	-254.173279	-53.676103
1790	1.7900e+000	-253.074646	-52.853461
1791	1.7910e+000	-251.815796	-52.710393
1792	1.7920e+000	-250.747681	-52.659297
1793	1.7930e+000	-249.176025	-52.659297
1794	1.7940e+000	-248.123169	-52.327175
1795	1.7950e+000	-247.100830	-52.613311
1796	1.7960e+000	-245.933533	-52.684845
1797	1.7970e+000	-244.583130	-52.797256
1798	1.7980e+000	-243.179321	-52.240312
1799	1.7990e+000	-242.263794	-52.429366
1800	1.8000e+000	-240.951538	-52.403818
1801	1.8010e+000	-239.852905	-52.434476
1802	1.8020e+000	-238.502502	-52.449805
1803	1.8030e+000	-237.525940	-52.332284
1804	1.8040e+000	-236.099243	-52.352723
1805	1.8050e+000	-235.137939	-52.250531
1806	1.8060e+000	-233.665466	-52.194326
1807	1.8070e+000	-233.192444	-52.495791
1808	1.8080e+000	-231.323242	-52.265860
1809	1.8090e+000	-230.171204	-52.158559
1810	1.8100e+000	-228.981018	-52.092134
1811	1.8110e+000	-227.745056	-52.081915
1812	1.8120e+000	-226.364136	-52.015491
1813	1.8130e+000	-225.524902	-52.071696
1814	1.8140e+000	-224.113464	-52.015491
1815	1.8150e+000	-222.831726	-51.836655
1816	1.8160e+000	-221.855164	-52.035929
1817	1.8170e+000	-220.787048	-51.954176
1818	1.8180e+000	-219.337463	-51.708916
1819	1.8190e+000	-218.200684	-51.943957
1820	1.8200e+000	-216.903687	-51.744683
1821	1.8210e+000	-215.789795	-51.749793
1822	1.8220e+000	-213.851929	-51.121315
1823	1.8230e+000	-213.432312	-52.081915
1824	1.8240e+000	-212.127686	-51.632272
1825	1.8250e+000	-211.227417	-51.438108
1826	1.8260e+000	-209.388733	-51.407451
1827	1.8270e+000	-208.412170	-51.519862
1828	1.8280e+000	-207.336426	-51.361465
1829	1.8290e+000	-206.245422	-51.346136
1830	1.8300e+000	-204.948425	-51.254164
1831	1.8310e+000	-203.865051	-51.177520
1832	1.8320e+000	-202.392578	-51.351246
1833	1.8330e+000	-201.393127	-51.136643
1834	1.8340e+000	-200.180054	-50.870945
1835	1.8350e+000	-198.524475	-50.906712
1836	1.8360e+000	-197.738647	-51.080438
1837	1.8370e+000	-196.990967	-50.727877
1838	1.8380e+000	-195.243835	-50.268015
1839	1.8390e+000	-194.381714	-50.988466
1840	1.8400e+000	-193.054199	-50.840288
1841	1.8410e+000	-191.688538	-50.758535
1842	1.8420e+000	-190.597534	-50.835178
1843	1.8430e+000	-189.346313	-50.589919
1844	1.8440e+000	-188.240051	-50.589919
1845	1.8450e+000	-187.202454	-50.671672
1846	1.8460e+000	-185.722351	-50.610357
1847	1.8470e+000	-184.494019	-50.579700
1848	1.8480e+000	-183.486938	-50.462179
1849	1.8490e+000	-182.174683	-50.467289
1850	1.8500e+000	-181.228638	-50.646124
1851	1.8510e+000	-179.832458	-50.314002
1852	1.8520e+000	-178.627014	-50.252687
1853	1.8530e+000	-177.375793	-50.687001
1854	1.8540e+000	-176.643372	-50.303782
1855	1.8550e+000	-175.140381	-50.170933
1856	1.8560e+000	-173.828125	-50.027865
1857	1.8570e+000	-172.714233	-50.063632
1858	1.8580e+000	-171.508789	-50.119838
1859	1.8590e+000	-170.280457	-49.746839
1860	1.8600e+000	-168.952942	-49.925674
1861	1.8610e+000	-167.861938	-49.828592
1862	1.8620e+000	-166.259766	-49.644647
1863	1.8630e+000	-165.458679	-49.925674
1864	1.8640e+000	-164.215088	-49.705962
1865	1.8650e+000	-163.017273	-49.603770
1866	1.8660e+000	-162.223816	-49.613990
1867	1.8670e+000	-160.415649	-49.353401
1868	1.8680e+000	-159.187317	-49.169456
1869	1.8690e+000	-158.416748	-49.404497
1870	1.8700e+000	-156.829834	-49.440264
1871	1.8710e+000	-155.906677	-49.399387
1872	1.8720e+000	-154.403687	-49.470921
1873	1.8730e+000	-153.388977	-49.286977
1874	1.8740e+000	-152.160645	-49.220552
1875	1.8750e+000	-151.023865	-49.225662
1876	1.8760e+000	-149.795532	-49.005950
1877	1.8770e+000	-148.521423	-48.990621
1878	1.8780e+000	-147.430420	-48.801567
1879	1.8790e+000	-146.095276	-48.760690
1880	1.8800e+000	-144.943237	-48.638060
1881	1.8810e+000	-143.920898	-49.240990
1882	1.8820e+000	-142.341614	-48.648280
1883	1.8830e+000	-141.479492	-49.159237
1884	1.8840e+000	-140.235901	-48.566526
1885	1.8850e+000	-138.885498	-48.643170
1886	1.8860e+000	-137.710571	-48.372362
1887	1.8870e+000	-136.779785	-48.505211
1888	1.8880e+000	-135.292053	-48.367253
1889	1.8890e+000	-134.185791	-48.265061
1890	1.8900e+000	-133.018494	-48.443896
1891	1.8910e+000	-131.690979	-48.275280
1892	1.8920e+000	-130.432129	-48.132212
1893	1.8930e+000	-129.623413	-48.091336
1894	1.8940e+000	-128.120422	-47.978925
1895	1.8950e+000	-127.059937	-48.004473
1896	1.8960e+000	-125.633240	-47.897172
1897	1.8970e+000	-124.511719	-47.851186
1898	1.8980e+000	-123.329163	-47.503734
1899	1.8990e+000	-122.222900	-47.580378
1900	1.9000e+000	-120.880127	-47.723446
1901	1.9010e+000	-119.880676	-47.544611
1902	1.9020e+000	-118.652344	-47.493515
1903	1.9030e+000	-117.347717	-47.503734
1904	1.9040e+000	-116.096497	-47.309570
1905	1.9050e+000	-115.081787	-47.411762
1906	1.9060e+000	-113.815308	-47.263584
1907	1.9070e+000	-112.724304	-47.284023
1908	1.9080e+000	-111.450195	-47.350447
1909	1.9090e+000	-110.473633	-47.140954
1910	1.9100e+000	-108.985901	-46.895695
1911	1.9110e+000	-107.818604	-46.890585
1912	1.9120e+000	-106.864929	-46.813942
1913	1.9130e+000	-105.346680	-47.074530
1914	1.9140e+000	-104.278564	-46.665764
1915	1.9150e+000	-102.958679	-46.675983
1916	1.9160e+000	-101.905823	-46.548244
1917	1.9170e+000	-100.723267	-46.665764
1918	1.9180e+000	-99.357605	-46.512477
1919	1.9190e+000	-98.320007	-46.384737
1920	1.9200e+000	-97.015381	-46.302984
1921	1.9210e+000	-95.802307	-46.272326
1922	1.9220e+000	-94.680786	-46.139477
1923	1.9230e+000	-93.505859	-46.159916
1924	1.9240e+000	-92.590332	-46.139477
1925	1.9250e+000	-91.049194	-46.011738
1926	1.9260e+000	-89.889526	-45.904437
1927	1.9270e+000	-88.661194	-45.873779
1928	1.9280e+000	-87.303162	-45.761369
1929	1.9290e+000	-86.280823	-45.786917
1930	1.9300e+000	-85.006714	-45.643848
1931	1.9310e+000	-83.900452	-45.470123
1932	1.9320e+000	-82.603455	-45.393479
1933	1.9330e+000	-81.199646	-45.250411
1934	1.9340e+000	-80.360413	-45.337274
1935	1.9350e+000	-79.010010	-45.112452
1936	1.9360e+000	-77.926636	-45.086905
1937	1.9370e+000	-76.583862	-44.887631
1938	1.9380e+000	-75.401306	-44.713906
1939	1.9390e+000	-73.356628	-44.162071
1940	1.9400e+000	-72.982788	-44.872302
1941	1.9410e+000	-71.823120	-44.678138
1942	1.9420e+000	-70.686340	-43.804401
1943	1.9430e+000	-69.534302	-44.407331
1944	1.9440e+000	-68.054199	-44.392002
1945	1.9450e+000	-67.062378	-44.673029
1946	1.9460e+000	-65.948486	-44.136523
1947	1.9470e+000	-64.598083	-44.131414
1948	1.9480e+000	-63.430786	-44.131414
1949	1.9490e+000	-62.240601	-43.947469
1950	1.9500e+000	-61.119080	-43.947469
1951	1.9510e+000	-59.799194	-43.845277
1952	1.9520e+000	-58.914185	-43.809510
1953	1.9530e+000	-57.373047	-43.758415
1954	1.9540e+000	-56.312561	-43.385416
1955	1.9550e+000	-54.672241	-43.232128
1956	1.9560e+000	-53.863525	-43.364977
1957	1.9570e+000	-52.665710	-43.732867
1958	1.9580e+000	-50.788879	-43.099279
1959	1.9590e+000	-49.057007	-42.276637
1960	1.9600e+000	-48.957825	-42.956211
1961	1.9610e+000	-48.019409	-42.772266
1962	1.9620e+000	-46.554565	-42.751828
1963	1.9630e+000	-45.387268	-42.721171
1964	1.9640e+000	-44.288635	-42.567883
1965	1.9650e+000	-43.029785	-42.343062
1966	1.9660e+000	-41.908264	-42.358391
1967	1.9670e+000	-40.428162	-42.266418
1968	1.9680e+000	-39.230347	-42.128460
1969	1.9690e+000	-38.230896	-42.031378
1970	1.9700e+000	-36.842346	-41.888310
1971	1.9710e+000	-35.820007	-42.016049
1972	1.9720e+000	-34.606934	-41.581735
1973	1.9730e+000	-33.432007	-41.597064
1974	1.9740e+000	-31.570435	-41.362023
1975	1.9750e+000	-30.494690	-41.045229
1976	1.9760e+000	-29.174805	-41.147421
1977	1.9770e+000	-28.411865	-41.188298
1978	1.9780e+000	-27.473450	-41.086106
1979	1.9790e+000	-26.161194	-40.994134
1980	1.9800e+000	-24.871826	-40.759093
1981	1.9810e+000	-23.780823	-40.707997
1982	1.9820e+000	-22.384644	-40.549601
1983	1.9830e+000	-21.446228	-41.014572
1984	1.9840e+000	-20.187378	-40.319670
1985	1.9850e+000	-18.875122	-40.171492
1986	1.9860e+000	-17.585754	-40.048862
1987	1.9870e+000	-16.685486	-39.951780
1988	1.9880e+000	-15.388489	-39.818931
1989	1.9890e+000	-14.244080	-39.594110
1990	1.9900e+000	-12.954712	-39.609438
1991	1.9910e+000	-11.535645	-39.532795
1992	1.9920e+000	-10.612488	-39.231330
1993	1.9930e+000	-9.277344	-39.180234
1994	1.9940e+000	-7.629395	-38.577304
1995	1.9950e+000	-6.904602	-38.934974
1996	1.9960e+000	-5.905151	-38.679495
1997	1.9970e+000	-4.951477	-38.311606
1998	1.9980e+000	-3.364563	-38.618181
1999	1.9990e+000	-2.212524	-38.188976
2000	2.0000e+000	-0.885010	-37.775100
2001	2.0010e+000	0.190735	-37.861963

Center data before PMax,±Pr and ±Vc Calc.

PMax (µC/cm2):	5.42e+001
Pr (µC/cm2):	4.01e+001
-Pr (µC/cm2):	-3.79e+001
Ec:	7.44e-003
-Ec:	-4.16e-003
C (Max-Eff) (nF):	1.42e+000
K (Eff):	2.04e+003
Vert. (±Pr) Shift (µC/cm2):	1.14e+000
Horiz. Shift (±Ec):	1.64e-003
Offset (µC/cm2):	3.37e+001

A (Loop Area - µC/cm2·Volts):	1.10e+004



Hysteresis Version: 5.16.2 - Radiant Technologies, Inc., 1999 - 3/20/18

