»»»»»»»»»»»»»»»»»»»»»»»»»»»»»»»»»»»» Hysteresis ««««««««««««««««««««««««««««««««««««
»»»  Executed Version:	5.12.0
»»»  Vision Version:	5.12.5 (R)
»»»  Vision Compiled:	2/24/17
»»»  Driver Version:	5.12.4
»»»  Windows Version:	Windows 7
»»»  Processor Information:	x86 (AMD or Intel) - 2 Processors
»»»  Tester Name:	PMF0910-256
»»»  Tester S/N:	PMF0910-256
»»»  Internal Amp Type:	 RTI 100V      
»»»  Internal Amp S/N:	 iAB1-0000     
»»»  Execution Count:	1
»»»»»»»»»»»»»»»»»»»»»»»»»»»»»»»»»»»»»»»»»»««««««««««««««««««««««««««««««««««««««««««

Stored:	8/3/2017 - 10:50:57
Configured:	08/03/17 10:04:09 AM
Executed:	08/03/17 10:50:39 AM

»»»»»»»»»»»»»»»»»»»»»»»»»»»»»»»»»»» Sample Info ««««««««««««««««««««««««««««««««««««
Sample Name:	
Lot Name:	
Wafer Name:	
Die Row/Column:	0/0
Capacitor Number:	0
Sample Area (cm2):	4.91e-006
Sample Thickness (µm):	1.00e-001

Mux Loop Adjustment:	Disabled

Amplifier:	Internal

»»»»»»»»»»»»»»»»»»»»»»»»»»»»»»»»»»» Tester Info «««««««««««««««««««««««««««««««««««
Tester Name:	PMF0910-256
Tester Serial Number:	PMF0910-256
Return Signal Amp. Level:	16.67 [Index: 1]

»»»»»»»»»»»»»»»»»»»»»»»»»»»»»»»» Hysteresis Info ««««««««««««««««««««««««««««««««««
Task Name:	Hyst-1
Volts:	3.00
Field:	300.00 (kV/cm)
Hysteresis Period (ms):	1.60e+001
Preset:	Enabled
Preset Delay (ms):	1.00e+003
Profile:	Double Bipolar

»»»»»»»»»»»»»»»»»»»»»»»»»»»»»»»»»»»»»» Data «««««««««««««««««««««««««««««««««««««««
Points:	2001

Valid Data

Point	Time (ms)	Drive Voltage	Measured Polarization
   1	8.0000e-003	-0.0019	-10.415504
   2	1.6000e-002	0.0096	-10.260706
   3	2.4000e-002	0.0217	-10.323738
   4	3.2000e-002	0.0353	-10.191186
   5	4.0000e-002	0.0461	-10.167086
   6	4.8000e-002	0.0589	-10.032680
   7	5.6000e-002	0.0696	-9.856562
   8	6.4000e-002	0.0853	-9.831535
   9	7.2000e-002	0.0932	-9.388460
  10	8.0000e-002	0.1061	-9.085353
  11	8.8000e-002	0.1194	-8.774829
  12	9.6000e-002	0.1291	-8.508799
  13	1.0400e-001	0.1417	-8.268723
  14	1.1200e-001	0.1556	-7.899803
  15	1.2000e-001	0.1680	-7.558691
  16	1.2800e-001	0.1801	-6.985845
  17	1.3600e-001	0.1900	-6.894078
  18	1.4400e-001	0.2015	-6.235028
  19	1.5200e-001	0.2147	-5.959728
  20	1.6000e-001	0.2270	-5.298823
  21	1.6800e-001	0.2382	-4.951223
  22	1.7600e-001	0.2493	-4.487755
  23	1.8400e-001	0.2619	-4.048388
  24	1.9200e-001	0.2731	-3.594190
  25	2.0000e-001	0.2843	-3.013002
  26	2.0800e-001	0.2983	-2.655205
  27	2.1600e-001	0.3093	-2.112948
  28	2.2400e-001	0.3210	-1.599426
  29	2.3200e-001	0.3349	-1.095174
  30	2.4000e-001	0.3461	-0.579798
  31	2.4800e-001	0.3560	-0.081107
  32	2.5600e-001	0.3701	0.566821
  33	2.6400e-001	0.3812	0.961695
  34	2.7200e-001	0.3933	1.622600
  35	2.8000e-001	0.4064	1.994300
  36	2.8800e-001	0.4177	2.640374
  37	2.9600e-001	0.4316	3.022271
  38	3.0400e-001	0.4412	3.558967
  39	3.1200e-001	0.4554	4.059511
  40	3.2000e-001	0.4674	4.611038
  41	3.2800e-001	0.4794	5.363709
  42	3.3600e-001	0.4907	5.800295
  43	3.4400e-001	0.5029	6.498277
  44	3.5200e-001	0.5138	6.864416
  45	3.6000e-001	0.5267	7.487317
  46	3.6800e-001	0.5393	7.739443
  47	3.7600e-001	0.5511	8.389224
  48	3.8400e-001	0.5626	8.743314
  49	3.9200e-001	0.5753	9.297621
  50	4.0000e-001	0.5886	9.974283
  51	4.0800e-001	0.5988	10.421066
  52	4.1600e-001	0.6111	10.942003
  53	4.2400e-001	0.6235	11.294238
  54	4.3200e-001	0.6358	11.820737
  55	4.4000e-001	0.6461	12.069156
  56	4.4800e-001	0.6598	12.636440
  57	4.5600e-001	0.6714	13.137912
  58	4.6400e-001	0.6826	13.659776
  59	4.7200e-001	0.6921	14.280823
  60	4.8000e-001	0.7056	14.647889
  61	4.8800e-001	0.7173	15.265228
  62	4.9600e-001	0.7305	15.393145
  63	5.0400e-001	0.7455	15.899251
  64	5.1200e-001	0.7535	16.044780
  65	5.2000e-001	0.7687	16.723296
  66	5.2800e-001	0.7780	17.133928
  67	5.3600e-001	0.7923	17.706774
  68	5.4400e-001	0.8031	18.238835
  69	5.5200e-001	0.8163	18.567897
  70	5.6000e-001	0.8260	19.068442
  71	5.6800e-001	0.8381	19.307591
  72	5.7600e-001	0.8497	19.745104
  73	5.8400e-001	0.8639	19.967568
  74	5.9200e-001	0.8764	20.425474
  75	6.0000e-001	0.8879	20.895430
  76	6.0800e-001	0.8987	21.448810
  77	6.1600e-001	0.9110	21.834415
  78	6.2400e-001	0.9223	22.180162
  79	6.3200e-001	0.9348	22.585233
  80	6.4000e-001	0.9460	22.948591
  81	6.4800e-001	0.9570	23.227599
  82	6.5600e-001	0.9707	23.591884
  83	6.6400e-001	0.9836	24.005297
  84	6.7200e-001	0.9964	24.580923
  85	6.8000e-001	1.0073	24.981359
  86	6.8800e-001	1.0194	25.424434
  87	6.9600e-001	1.0321	25.727542
  88	7.0400e-001	1.0427	26.110366
  89	7.1200e-001	1.0521	26.455186
  90	7.2000e-001	1.0696	26.826887
  91	7.2800e-001	1.0784	27.117944
  92	7.3600e-001	1.0902	27.726014
  93	7.4400e-001	1.1018	28.018925
  94	7.5200e-001	1.1136	28.608456
  95	7.6000e-001	1.1272	28.881901
  96	7.6800e-001	1.1392	29.226721
  97	7.7600e-001	1.1478	29.368542
  98	7.8400e-001	1.1612	29.932119
  99	7.9200e-001	1.1756	30.263961
 100	8.0000e-001	1.1874	30.713525
 101	8.0800e-001	1.1988	31.043514
 102	8.1600e-001	1.2113	31.281736
 103	8.2400e-001	1.2246	31.499566
 104	8.3200e-001	1.2357	31.684026
 105	8.4000e-001	1.2478	31.844385
 106	8.4800e-001	1.2598	31.941714
 107	8.5600e-001	1.2688	32.247602
 108	8.6400e-001	1.2807	32.335661
 109	8.7200e-001	1.2950	32.585006
 110	8.8000e-001	1.3078	32.710143
 111	8.8800e-001	1.3197	32.763905
 112	8.9600e-001	1.3326	33.014177
 113	9.0400e-001	1.3425	32.927045
 114	9.1200e-001	1.3528	32.982662
 115	9.2000e-001	1.3656	32.954853
 116	9.2800e-001	1.3771	33.122629
 117	9.3600e-001	1.3900	33.104090
 118	9.4400e-001	1.4017	33.349728
 119	9.5200e-001	1.4155	33.286696
 120	9.6000e-001	1.4294	33.425736
 121	9.6800e-001	1.4411	33.426663
 122	9.7600e-001	1.4478	33.352509
 123	9.8400e-001	1.4656	33.388659
 124	9.9200e-001	1.4742	33.384951
 125	1.0000e+000	1.4851	33.650982
 126	1.0080e+000	1.4983	33.588877
 127	1.0160e+000	1.5087	33.831734
 128	1.0240e+000	1.5212	33.568484
 129	1.0320e+000	1.5352	33.734406
 130	1.0400e+000	1.5476	33.648201
 131	1.0480e+000	1.5589	33.758506
 132	1.0560e+000	1.5702	33.757579
 133	1.0640e+000	1.5815	33.856761
 134	1.0720e+000	1.5953	33.961505
 135	1.0800e+000	1.6068	33.994874
 136	1.0880e+000	1.6205	34.117230
 137	1.0960e+000	1.6298	33.999509
 138	1.1040e+000	1.6418	34.015267
 139	1.1120e+000	1.6530	34.053271
 140	1.1200e+000	1.6652	34.085714
 141	1.1280e+000	1.6787	34.134842
 142	1.1360e+000	1.6893	34.059760
 143	1.1440e+000	1.7036	34.235878
 144	1.1520e+000	1.7142	34.247928
 145	1.1600e+000	1.7266	34.424972
 146	1.1680e+000	1.7366	34.321156
 147	1.1760e+000	1.7510	34.356379
 148	1.1840e+000	1.7623	34.183042
 149	1.1920e+000	1.7746	34.310032
 150	1.2000e+000	1.7855	34.386041
 151	1.2080e+000	1.7966	34.492639
 152	1.2160e+000	1.8121	34.532497
 153	1.2240e+000	1.8215	34.540839
 154	1.2320e+000	1.8346	34.603871
 155	1.2400e+000	1.8475	34.507469
 156	1.2480e+000	1.8585	34.584405
 157	1.2560e+000	1.8697	34.545474
 158	1.2640e+000	1.8826	34.619629
 159	1.2720e+000	1.8931	34.688222
 160	1.2800e+000	1.9070	34.799454
 161	1.2880e+000	1.9170	34.759596
 162	1.2960e+000	1.9296	34.771646
 163	1.3040e+000	1.9431	34.868047
 164	1.3120e+000	1.9546	34.684514
 165	1.3200e+000	1.9662	34.878243
 166	1.3280e+000	1.9802	34.855070
 167	1.3360e+000	1.9900	34.871755
 168	1.3440e+000	2.0026	34.870828
 169	1.3520e+000	2.0141	34.907905
 170	1.3600e+000	2.0264	35.012649
 171	1.3680e+000	2.0399	34.953325
 172	1.3760e+000	2.0522	35.235113
 173	1.3840e+000	2.0640	34.930152
 174	1.3920e+000	2.0741	35.060850
 175	1.4000e+000	2.0873	35.022845
 176	1.4080e+000	2.0987	35.160032
 177	1.4160e+000	2.1096	35.070119
 178	1.4240e+000	2.1220	35.185059
 179	1.4320e+000	2.1359	35.167447
 180	1.4400e+000	2.1450	35.195255
 181	1.4480e+000	2.1597	35.248090
 182	1.4560e+000	2.1720	35.215648
 183	1.4640e+000	2.1841	35.133151
 184	1.4720e+000	2.1923	35.331515
 185	1.4800e+000	2.2097	35.402889
 186	1.4880e+000	2.2187	35.307414
 187	1.4960e+000	2.2311	35.295364
 188	1.5040e+000	2.2419	35.317611
 189	1.5120e+000	2.2538	35.325953
 190	1.5200e+000	2.2651	35.445528
 191	1.5280e+000	2.2794	35.449235
 192	1.5360e+000	2.2911	35.320391
 193	1.5440e+000	2.3019	35.493728
 194	1.5520e+000	2.3144	35.564175
 195	1.5600e+000	2.3244	35.476116
 196	1.5680e+000	2.3389	35.386204
 197	1.5760e+000	2.3502	35.402889
 198	1.5840e+000	2.3612	35.432551
 199	1.5920e+000	2.3736	35.736585
 200	1.6000e+000	2.3889	35.597545
 201	1.6080e+000	2.3988	35.610522
 202	1.6160e+000	2.4114	35.695800
 203	1.6240e+000	2.4236	35.721754
 204	1.6320e+000	2.4343	35.667065
 205	1.6400e+000	2.4453	35.676334
 206	1.6480e+000	2.4599	35.640184
 207	1.6560e+000	2.4720	35.629988
 208	1.6640e+000	2.4819	35.811667
 209	1.6720e+000	2.4955	35.745855
 210	1.6800e+000	2.5073	35.801471
 211	1.6880e+000	2.5193	35.924753
 212	1.6960e+000	2.5312	35.860794
 213	1.7040e+000	2.5449	35.875625
 214	1.7120e+000	2.5559	35.808886
 215	1.7200e+000	2.5661	35.919191
 216	1.7280e+000	2.5808	35.835767
 217	1.7360e+000	2.5880	35.988711
 218	1.7440e+000	2.6006	35.953488
 219	1.7520e+000	2.6142	36.096236
 220	1.7600e+000	2.6290	36.007250
 221	1.7680e+000	2.6403	35.923826
 222	1.7760e+000	2.6519	35.925680
 223	1.7840e+000	2.6624	35.971100
 224	1.7920e+000	2.6760	35.999835
 225	1.8000e+000	2.6858	36.078624
 226	1.8080e+000	2.6986	36.093455
 227	1.8160e+000	2.7120	36.125898
 228	1.8240e+000	2.7225	36.161121
 229	1.8320e+000	2.7345	36.154633
 230	1.8400e+000	2.7457	36.177806
 231	1.8480e+000	2.7596	36.073063
 232	1.8560e+000	2.7714	36.145363
 233	1.8640e+000	2.7851	36.193564
 234	1.8720e+000	2.7959	36.158341
 235	1.8800e+000	2.8076	36.263084
 236	1.8880e+000	2.8202	36.397490
 237	1.8960e+000	2.8315	36.322408
 238	1.9040e+000	2.8424	36.288111
 239	1.9120e+000	2.8548	36.304796
 240	1.9200e+000	2.8667	36.213957
 241	1.9280e+000	2.8822	36.160194
 242	1.9360e+000	2.8896	36.331677
 243	1.9440e+000	2.9020	36.383586
 244	1.9520e+000	2.9163	36.492964
 245	1.9600e+000	2.9263	36.461448
 246	1.9680e+000	2.9411	36.517991
 247	1.9760e+000	2.9530	36.359485
 248	1.9840e+000	2.9639	36.465156
 249	1.9920e+000	2.9752	36.499453
 250	2.0000e+000	2.9873	36.496672
 251	2.0080e+000	3.0006	36.525407
 252	2.0160e+000	2.9880	36.489256
 253	2.0240e+000	2.9749	36.459594
 254	2.0320e+000	2.9633	36.462375
 255	2.0400e+000	2.9516	36.493891
 256	2.0480e+000	2.9372	36.573607
 257	2.0560e+000	2.9270	36.459594
 258	2.0640e+000	2.9153	36.406759
 259	2.0720e+000	2.9016	36.340947
 260	2.0800e+000	2.8909	36.461448
 261	2.0880e+000	2.8796	36.342801
 262	2.0960e+000	2.8680	36.507795
 263	2.1040e+000	2.8542	36.425298
 264	2.1120e+000	2.8443	36.402124
 265	2.1200e+000	2.8293	36.277915
 266	2.1280e+000	2.8190	36.350216
 267	2.1360e+000	2.8051	36.253815
 268	2.1440e+000	2.7946	36.271427
 269	2.1520e+000	2.7822	36.367828
 270	2.1600e+000	2.7703	36.327970
 271	2.1680e+000	2.7570	36.148144
 272	2.1760e+000	2.7463	36.222299
 273	2.1840e+000	2.7340	36.162975
 274	2.1920e+000	2.7247	36.188002
 275	2.2000e+000	2.7121	36.233422
 276	2.2080e+000	2.6996	36.355778
 277	2.2160e+000	2.6855	36.190783
 278	2.2240e+000	2.6748	36.032277
 279	2.2320e+000	2.6624	36.138875
 280	2.2400e+000	2.6524	36.054524
 281	2.2480e+000	2.6390	36.028570
 282	2.2560e+000	2.6273	36.145363
 283	2.2640e+000	2.6165	36.050816
 284	2.2720e+000	2.6006	36.122190
 285	2.2800e+000	2.5912	36.189856
 286	2.2880e+000	2.5776	36.105505
 287	2.2960e+000	2.5680	35.930315
 288	2.3040e+000	2.5553	36.064720
 289	2.3120e+000	2.5430	35.982223
 290	2.3200e+000	2.5323	35.974807
 291	2.3280e+000	2.5190	35.976661
 292	2.3360e+000	2.5092	35.840402
 293	2.3440e+000	2.4950	35.919191
 294	2.3520e+000	2.4825	35.955342
 295	2.3600e+000	2.4696	35.954415
 296	2.3680e+000	2.4598	35.998908
 297	2.3760e+000	2.4451	35.850598
 298	2.3840e+000	2.4339	35.787567
 299	2.3920e+000	2.4233	35.790347
 300	2.4000e+000	2.4097	35.910849
 301	2.4080e+000	2.3994	35.814448
 302	2.4160e+000	2.3853	35.880260
 303	2.4240e+000	2.3738	35.749562
 304	2.4320e+000	2.3653	35.763466
 305	2.4400e+000	2.3499	35.876552
 306	2.4480e+000	2.3363	35.750489
 307	2.4560e+000	2.3248	35.677261
 308	2.4640e+000	2.3177	35.680969
 309	2.4720e+000	2.3043	35.756978
 310	2.4800e+000	2.2888	35.680042
 311	2.4880e+000	2.2781	35.713412
 312	2.4960e+000	2.2659	35.444601
 313	2.5040e+000	2.2546	35.639257
 314	2.5120e+000	2.2434	35.516902
 315	2.5200e+000	2.2306	35.619791
 316	2.5280e+000	2.2198	35.536367
 317	2.5360e+000	2.2073	35.631842
 318	2.5440e+000	2.1960	35.636476
 319	2.5520e+000	2.1833	35.577152
 320	2.5600e+000	2.1717	35.490020
 321	2.5680e+000	2.1584	35.438112
 322	2.5760e+000	2.1488	35.472409
 323	2.5840e+000	2.1360	35.308341
 324	2.5920e+000	2.1226	35.399181
 325	2.6000e+000	2.1114	35.422354
 326	2.6080e+000	2.1002	35.454797
 327	2.6160e+000	2.0859	35.592910
 328	2.6240e+000	2.0736	35.375081
 329	2.6320e+000	2.0650	35.488167
 330	2.6400e+000	2.0509	35.265702
 331	2.6480e+000	2.0371	35.332442
 332	2.6560e+000	2.0258	35.145201
 333	2.6640e+000	2.0143	35.343565
 334	2.6720e+000	2.0054	35.398254
 335	2.6800e+000	1.9882	35.358396
 336	2.6880e+000	1.9794	35.398254
 337	2.6960e+000	1.9663	35.164666
 338	2.7040e+000	1.9549	35.110904
 339	2.7120e+000	1.9418	35.123881
 340	2.7200e+000	1.9305	35.132224
 341	2.7280e+000	1.9172	35.045092
 342	2.7360e+000	1.9093	35.162812
 343	2.7440e+000	1.8957	35.140566
 344	2.7520e+000	1.8844	35.122027
 345	2.7600e+000	1.8710	35.224917
 346	2.7680e+000	1.8584	35.055288
 347	2.7760e+000	1.8478	35.012649
 348	2.7840e+000	1.8370	35.012649
 349	2.7920e+000	1.8215	34.941275
 350	2.8000e+000	1.8131	35.264775
 351	2.8080e+000	1.7961	34.999672
 352	2.8160e+000	1.7850	34.910686
 353	2.8240e+000	1.7769	35.034895
 354	2.8320e+000	1.7626	34.901417
 355	2.8400e+000	1.7506	34.935713
 356	2.8480e+000	1.7385	34.858778
 357	2.8560e+000	1.7268	34.880097
 358	2.8640e+000	1.7169	34.799454
 359	2.8720e+000	1.7016	34.896782
 360	2.8800e+000	1.6897	35.014503
 361	2.8880e+000	1.6798	34.813358
 362	2.8960e+000	1.6651	34.898636
 363	2.9040e+000	1.6553	34.703053
 364	2.9120e+000	1.6421	34.636313
 365	2.9200e+000	1.6335	34.554743
 366	2.9280e+000	1.6199	34.674318
 367	2.9360e+000	1.6055	34.689149
 368	2.9440e+000	1.5958	34.755888
 369	2.9520e+000	1.5820	34.758669
 370	2.9600e+000	1.5692	34.646510
 371	2.9680e+000	1.5583	34.720664
 372	2.9760e+000	1.5473	34.650217
 373	2.9840e+000	1.5337	34.522300
 374	2.9920e+000	1.5227	34.648364
 375	3.0000e+000	1.5101	34.511177
 376	3.0080e+000	1.4984	34.559378
 377	3.0160e+000	1.4877	34.508396
 378	3.0240e+000	1.4749	34.517666
 379	3.0320e+000	1.4615	34.441657
 380	3.0400e+000	1.4519	34.519520
 381	3.0480e+000	1.4383	34.386968
 382	3.0560e+000	1.4268	34.442584
 383	3.0640e+000	1.4148	34.322082
 384	3.0720e+000	1.4017	34.443511
 385	3.0800e+000	1.3888	34.393456
 386	3.0880e+000	1.3778	34.580697
 387	3.0960e+000	1.3669	34.392530
 388	3.1040e+000	1.3575	34.348037
 389	3.1120e+000	1.3417	34.303544
 390	3.1200e+000	1.3311	34.201581
 391	3.1280e+000	1.3182	34.262759
 392	3.1360e+000	1.3050	34.210850
 393	3.1440e+000	1.2946	34.310959
 394	3.1520e+000	1.2817	34.179335
 395	3.1600e+000	1.2714	34.312813
 396	3.1680e+000	1.2585	34.097764
 397	3.1760e+000	1.2476	34.053271
 398	3.1840e+000	1.2341	34.122791
 399	3.1920e+000	1.2240	34.036587
 400	3.2000e+000	1.2115	34.150600
 401	3.2080e+000	1.1977	34.132061
 402	3.2160e+000	1.1888	34.090349
 403	3.2240e+000	1.1739	34.052344
 404	3.2320e+000	1.1636	33.949455
 405	3.2400e+000	1.1505	33.994874
 406	3.2480e+000	1.1387	33.898473
 407	3.2560e+000	1.1266	34.033806
 408	3.2640e+000	1.1146	33.831734
 409	3.2720e+000	1.1030	33.926281
 410	3.2800e+000	1.0917	33.834515
 411	3.2880e+000	1.0809	33.939258
 412	3.2960e+000	1.0661	33.816903
 413	3.3040e+000	1.0551	33.858615
 414	3.3120e+000	1.0429	33.737187
 415	3.3200e+000	1.0302	33.715867
 416	3.3280e+000	1.0201	33.676009
 417	3.3360e+000	1.0058	33.663032
 418	3.3440e+000	0.9918	33.586096
 419	3.3520e+000	0.9830	33.777972
 420	3.3600e+000	0.9708	33.753871
 421	3.3680e+000	0.9581	33.612977
 422	3.3760e+000	0.9490	33.540676
 423	3.3840e+000	0.9351	33.479499
 424	3.3920e+000	0.9214	33.386805
 425	3.4000e+000	0.9109	33.552727
 426	3.4080e+000	0.8972	33.442421
 427	3.4160e+000	0.8861	33.530480
 428	3.4240e+000	0.8755	33.534188
 429	3.4320e+000	0.8626	33.424809
 430	3.4400e+000	0.8532	33.299673
 431	3.4480e+000	0.8378	33.410905
 432	3.4560e+000	0.8256	33.262596
 433	3.4640e+000	0.8126	33.307089
 434	3.4720e+000	0.8040	33.390513
 435	3.4800e+000	0.7895	33.308016
 436	3.4880e+000	0.7784	33.239423
 437	3.4960e+000	0.7694	33.054036
 438	3.5040e+000	0.7571	33.199564
 439	3.5120e+000	0.7423	33.030862
 440	3.5200e+000	0.7327	33.108725
 441	3.5280e+000	0.7204	33.108725
 442	3.5360e+000	0.7070	33.079990
 443	3.5440e+000	0.6957	33.044766
 444	3.5520e+000	0.6847	33.170829
 445	3.5600e+000	0.6700	33.029008
 446	3.5680e+000	0.6579	32.970611
 447	3.5760e+000	0.6480	32.860306
 448	3.5840e+000	0.6352	32.834352
 449	3.5920e+000	0.6223	32.673065
 450	3.6000e+000	0.6106	32.854745
 451	3.6080e+000	0.5969	32.736097
 452	3.6160e+000	0.5896	32.858452
 453	3.6240e+000	0.5740	32.723120
 454	3.6320e+000	0.5653	32.635988
 455	3.6400e+000	0.5502	32.662869
 456	3.6480e+000	0.5386	32.469140
 457	3.6560e+000	0.5241	32.525683
 458	3.6640e+000	0.5165	32.471920
 459	3.6720e+000	0.4998	32.582226
 460	3.6800e+000	0.4931	32.578518
 461	3.6880e+000	0.4771	32.499728
 462	3.6960e+000	0.4668	32.373665
 463	3.7040e+000	0.4527	32.179009
 464	3.7120e+000	0.4416	32.287460
 465	3.7200e+000	0.4298	32.094658
 466	3.7280e+000	0.4176	32.179009
 467	3.7360e+000	0.4102	32.072411
 468	3.7440e+000	0.3954	32.016795
 469	3.7520e+000	0.3828	32.075192
 470	3.7600e+000	0.3716	31.984353
 471	3.7680e+000	0.3573	31.897221
 472	3.7760e+000	0.3452	31.765596
 473	3.7840e+000	0.3322	31.574647
 474	3.7920e+000	0.3205	31.588551
 475	3.8000e+000	0.3110	31.519031
 476	3.8080e+000	0.2951	31.540351
 477	3.8160e+000	0.2882	31.377210
 478	3.8240e+000	0.2740	31.345694
 479	3.8320e+000	0.2627	31.179773
 480	3.8400e+000	0.2501	30.981409
 481	3.8480e+000	0.2377	30.798803
 482	3.8560e+000	0.2256	30.519795
 483	3.8640e+000	0.2163	30.347386
 484	3.8720e+000	0.2037	30.362217
 485	3.8800e+000	0.1901	30.241715
 486	3.8880e+000	0.1762	29.938607
 487	3.8960e+000	0.1641	29.649404
 488	3.9040e+000	0.1566	29.286972
 489	3.9120e+000	0.1402	28.911563
 490	3.9200e+000	0.1308	28.520397
 491	3.9280e+000	0.1185	28.147769
 492	3.9360e+000	0.1046	27.703767
 493	3.9440e+000	0.0932	27.370998
 494	3.9520e+000	0.0831	26.713801
 495	3.9600e+000	0.0709	26.221598
 496	3.9680e+000	0.0586	25.475416
 497	3.9760e+000	0.0465	24.889593
 498	3.9840e+000	0.0346	24.022909
 499	3.9920e+000	0.0233	23.341612
 500	4.0000e+000	0.0095	22.626945
 501	4.0080e+000	-0.0018	21.853881
 502	4.0160e+000	-0.0116	21.095648
 503	4.0240e+000	-0.0254	20.101974
 504	4.0320e+000	-0.0365	19.321495
 505	4.0400e+000	-0.0476	18.448322
 506	4.0480e+000	-0.0613	17.387909
 507	4.0560e+000	-0.0704	16.558302
 508	4.0640e+000	-0.0830	15.606340
 509	4.0720e+000	-0.0989	14.907431
 510	4.0800e+000	-0.1072	13.946199
 511	4.0880e+000	-0.1218	13.115666
 512	4.0960e+000	-0.1328	12.152580
 513	4.1040e+000	-0.1462	11.203399
 514	4.1120e+000	-0.1573	10.289441
 515	4.1200e+000	-0.1674	9.371775
 516	4.1280e+000	-0.1821	8.568123
 517	4.1360e+000	-0.1928	7.763543
 518	4.1440e+000	-0.2039	6.890371
 519	4.1520e+000	-0.2177	6.144188
 520	4.1600e+000	-0.2293	5.330339
 521	4.1680e+000	-0.2405	4.500732
 522	4.1760e+000	-0.2534	3.728596
 523	4.1840e+000	-0.2647	2.899916
 524	4.1920e+000	-0.2778	2.261258
 525	4.2000e+000	-0.2880	1.504879
 526	4.2080e+000	-0.2998	0.924618
 527	4.2160e+000	-0.3126	0.130234
 528	4.2240e+000	-0.3240	-0.436123
 529	4.2320e+000	-0.3384	-1.262022
 530	4.2400e+000	-0.3500	-1.935904
 531	4.2480e+000	-0.3610	-2.551388
 532	4.2560e+000	-0.3737	-3.178923
 533	4.2640e+000	-0.3859	-3.845389
 534	4.2720e+000	-0.3979	-4.324615
 535	4.2800e+000	-0.4102	-4.856675
 536	4.2880e+000	-0.4215	-5.361855
 537	4.2960e+000	-0.4356	-6.097841
 538	4.3040e+000	-0.4460	-6.492716
 539	4.3120e+000	-0.4567	-7.177720
 540	4.3200e+000	-0.4694	-7.571668
 541	4.3280e+000	-0.4803	-8.134317
 542	4.3360e+000	-0.4948	-8.499530
 543	4.3440e+000	-0.5083	-9.052910
 544	4.3520e+000	-0.5167	-9.416268
 545	4.3600e+000	-0.5323	-9.936279
 546	4.3680e+000	-0.5424	-10.486878
 547	4.3760e+000	-0.5544	-10.921611
 548	4.3840e+000	-0.5657	-11.392494
 549	4.3920e+000	-0.5774	-11.854107
 550	4.4000e+000	-0.5894	-12.055252
 551	4.4080e+000	-0.5997	-12.565993
 552	4.4160e+000	-0.6126	-12.918228
 553	4.4240e+000	-0.6245	-13.352961
 554	4.4320e+000	-0.6383	-13.757105
 555	4.4400e+000	-0.6502	-14.217791
 556	4.4480e+000	-0.6612	-14.657158
 557	4.4560e+000	-0.6741	-15.032567
 558	4.4640e+000	-0.6854	-15.444126
 559	4.4720e+000	-0.6953	-15.632294
 560	4.4800e+000	-0.7095	-16.052195
 561	4.4880e+000	-0.7211	-16.317299
 562	4.4960e+000	-0.7332	-16.714954
 563	4.5040e+000	-0.7444	-17.103340
 564	4.5120e+000	-0.7583	-17.478748
 565	4.5200e+000	-0.7700	-17.851376
 566	4.5280e+000	-0.7821	-18.221223
 567	4.5360e+000	-0.7948	-18.520623
 568	4.5440e+000	-0.8034	-18.942378
 569	4.5520e+000	-0.8195	-18.953502
 570	4.5600e+000	-0.8295	-19.306664
 571	4.5680e+000	-0.8430	-19.570840
 572	4.5760e+000	-0.8527	-20.115878
 573	4.5840e+000	-0.8670	-20.275311
 574	4.5920e+000	-0.8775	-20.646085
 575	4.6000e+000	-0.8900	-20.662770
 576	4.6080e+000	-0.8995	-21.088233
 577	4.6160e+000	-0.9122	-21.357971
 578	4.6240e+000	-0.9259	-21.677763
 579	4.6320e+000	-0.9370	-21.875200
 580	4.6400e+000	-0.9496	-22.326618
 581	4.6480e+000	-0.9609	-22.445265
 582	4.6560e+000	-0.9702	-22.805843
 583	4.6640e+000	-0.9853	-23.006988
 584	4.6720e+000	-0.9972	-23.258187
 585	4.6800e+000	-1.0094	-23.352735
 586	4.6880e+000	-1.0213	-23.768928
 587	4.6960e+000	-1.0337	-23.852353
 588	4.7040e+000	-1.0458	-24.160095
 589	4.7120e+000	-1.0581	-24.444664
 590	4.7200e+000	-1.0698	-24.626343
 591	4.7280e+000	-1.0829	-24.902570
 592	4.7360e+000	-1.0909	-25.014729
 593	4.7440e+000	-1.1051	-25.272417
 594	4.7520e+000	-1.1174	-25.418873
 595	4.7600e+000	-1.1308	-25.599625
 596	4.7680e+000	-1.1421	-25.858240
 597	4.7760e+000	-1.1548	-26.116855
 598	4.7840e+000	-1.1656	-26.171544
 599	4.7920e+000	-1.1777	-26.447770
 600	4.8000e+000	-1.1882	-26.589591
 601	4.8080e+000	-1.2037	-26.750878
 602	4.8160e+000	-1.2149	-26.950169
 603	4.8240e+000	-1.2270	-27.202295
 604	4.8320e+000	-1.2366	-27.169853
 605	4.8400e+000	-1.2497	-27.520234
 606	4.8480e+000	-1.2624	-27.732502
 607	4.8560e+000	-1.2739	-27.835392
 608	4.8640e+000	-1.2852	-27.886373
 609	4.8720e+000	-1.2972	-28.082884
 610	4.8800e+000	-1.3085	-28.176504
 611	4.8880e+000	-1.3216	-28.276613
 612	4.8960e+000	-1.3329	-28.469415
 613	4.9040e+000	-1.3484	-28.550986
 614	4.9120e+000	-1.3592	-28.766035
 615	4.9200e+000	-1.3705	-29.119197
 616	4.9280e+000	-1.3809	-29.007038
 617	4.9360e+000	-1.3924	-29.225794
 618	4.9440e+000	-1.4054	-29.343515
 619	4.9520e+000	-1.4176	-29.388008
 620	4.9600e+000	-1.4307	-29.453820
 621	4.9680e+000	-1.4397	-29.654965
 622	4.9760e+000	-1.4542	-29.723558
 623	4.9840e+000	-1.4680	-29.987735
 624	4.9920e+000	-1.4751	-30.126775
 625	5.0000e+000	-1.4888	-30.229665
 626	5.0080e+000	-1.4998	-30.161072
 627	5.0160e+000	-1.5129	-30.411344
 628	5.0240e+000	-1.5244	-30.486426
 629	5.0320e+000	-1.5372	-30.618978
 630	5.0400e+000	-1.5486	-30.666251
 631	5.0480e+000	-1.5618	-30.784899
 632	5.0560e+000	-1.5745	-30.889642
 633	5.0640e+000	-1.5829	-31.067614
 634	5.0720e+000	-1.5970	-31.139915
 635	5.0800e+000	-1.6103	-31.022194
 636	5.0880e+000	-1.6208	-31.265978
 637	5.0960e+000	-1.6357	-31.373503
 638	5.1040e+000	-1.6449	-31.465269
 639	5.1120e+000	-1.6565	-31.639533
 640	5.1200e+000	-1.6698	-31.565378
 641	5.1280e+000	-1.6824	-31.731299
 642	5.1360e+000	-1.6921	-31.772085
 643	5.1440e+000	-1.7054	-31.814724
 644	5.1520e+000	-1.7166	-31.939860
 645	5.1600e+000	-1.7282	-32.060361
 646	5.1680e+000	-1.7417	-32.191059
 647	5.1760e+000	-1.7528	-32.241114
 648	5.1840e+000	-1.7656	-32.462651
 649	5.1920e+000	-1.7754	-32.236479
 650	5.2000e+000	-1.7880	-32.440405
 651	5.2080e+000	-1.8025	-32.381081
 652	5.2160e+000	-1.8123	-32.287460
 653	5.2240e+000	-1.8248	-32.496021
 654	5.2320e+000	-1.8369	-32.674919
 655	5.2400e+000	-1.8491	-32.765759
 656	5.2480e+000	-1.8595	-32.864014
 657	5.2560e+000	-1.8735	-32.883479
 658	5.2640e+000	-1.8858	-32.895530
 659	5.2720e+000	-1.8991	-32.874210
 660	5.2800e+000	-1.9093	-33.001200
 661	5.2880e+000	-1.9211	-33.017885
 662	5.2960e+000	-1.9319	-33.215322
 663	5.3040e+000	-1.9468	-33.115213
 664	5.3120e+000	-1.9552	-33.410905
 665	5.3200e+000	-1.9695	-33.400709
 666	5.3280e+000	-1.9831	-33.430371
 667	5.3360e+000	-1.9910	-33.453544
 668	5.3440e+000	-2.0054	-33.519357
 669	5.3520e+000	-2.0177	-33.384024
 670	5.3600e+000	-2.0284	-33.655616
 671	5.3680e+000	-2.0445	-33.575900
 672	5.3760e+000	-2.0522	-33.798364
 673	5.3840e+000	-2.0635	-33.807634
 674	5.3920e+000	-2.0789	-33.914231
 675	5.4000e+000	-2.0908	-33.843784
 676	5.4080e+000	-2.0998	-33.875300
 677	5.4160e+000	-2.1120	-33.964286
 678	5.4240e+000	-2.1281	-33.868811
 679	5.4320e+000	-2.1382	-34.124645
 680	5.4400e+000	-2.1492	-34.082006
 681	5.4480e+000	-2.1646	-34.260905
 682	5.4560e+000	-2.1732	-34.112595
 683	5.4640e+000	-2.1868	-34.196946
 684	5.4720e+000	-2.1976	-34.177481
 685	5.4800e+000	-2.2096	-34.285005
 686	5.4880e+000	-2.2246	-34.336913
 687	5.4960e+000	-2.2330	-34.457415
 688	5.5040e+000	-2.2470	-34.469465
 689	5.5120e+000	-2.2587	-34.646510
 690	5.5200e+000	-2.2709	-34.635386
 691	5.5280e+000	-2.2815	-34.677099
 692	5.5360e+000	-2.2938	-34.529716
 693	5.5440e+000	-2.3071	-34.712322
 694	5.5520e+000	-2.3164	-34.633533
 695	5.5600e+000	-2.3318	-34.688222
 696	5.5680e+000	-2.3403	-34.929225
 697	5.5760e+000	-2.3537	-34.856924
 698	5.5840e+000	-2.3648	-34.951471
 699	5.5920e+000	-2.3805	-34.990403
 700	5.6000e+000	-2.3886	-34.939421
 701	5.6080e+000	-2.4023	-34.944983
 702	5.6160e+000	-2.4139	-34.911613
 703	5.6240e+000	-2.4269	-35.046019
 704	5.6320e+000	-2.4382	-35.013576
 705	5.6400e+000	-2.4517	-35.211013
 706	5.6480e+000	-2.4654	-35.119247
 707	5.6560e+000	-2.4748	-35.290729
 708	5.6640e+000	-2.4864	-35.183205
 709	5.6720e+000	-2.4986	-35.257360
 710	5.6800e+000	-2.5078	-35.173009
 711	5.6880e+000	-2.5207	-35.268483
 712	5.6960e+000	-2.5344	-35.347272
 713	5.7040e+000	-2.5455	-35.417720
 714	5.7120e+000	-2.5586	-35.426062
 715	5.7200e+000	-2.5687	-35.544710
 716	5.7280e+000	-2.5818	-35.449235
 717	5.7360e+000	-2.5944	-35.502998
 718	5.7440e+000	-2.6048	-35.488167
 719	5.7520e+000	-2.6195	-35.499290
 720	5.7600e+000	-2.6295	-35.515975
 721	5.7680e+000	-2.6426	-35.634622
 722	5.7760e+000	-2.6545	-35.711558
 723	5.7840e+000	-2.6649	-35.710631
 724	5.7920e+000	-2.6768	-35.848744
 725	5.8000e+000	-2.6917	-35.691165
 726	5.8080e+000	-2.7013	-35.718973
 727	5.8160e+000	-2.7144	-35.777370
 728	5.8240e+000	-2.7260	-35.837621
 729	5.8320e+000	-2.7390	-35.906214
 730	5.8400e+000	-2.7498	-35.978515
 731	5.8480e+000	-2.7623	-35.970173
 732	5.8560e+000	-2.7740	-36.034131
 733	5.8640e+000	-2.7887	-36.048035
 734	5.8720e+000	-2.7993	-36.002615
 735	5.8800e+000	-2.8111	-35.958123
 736	5.8880e+000	-2.8224	-36.074916
 737	5.8960e+000	-2.8343	-35.958123
 738	5.9040e+000	-2.8465	-36.250107
 739	5.9120e+000	-2.8559	-36.141656
 740	5.9200e+000	-2.8681	-36.274207
 741	5.9280e+000	-2.8834	-36.188929
 742	5.9360e+000	-2.8938	-36.210249
 743	5.9440e+000	-2.9063	-36.226934
 744	5.9520e+000	-2.9177	-36.203760
 745	5.9600e+000	-2.9283	-36.283477
 746	5.9680e+000	-2.9405	-36.246399
 747	5.9760e+000	-2.9539	-36.327970
 748	5.9840e+000	-2.9666	-36.525407
 749	5.9920e+000	-2.9772	-36.387293
 750	6.0000e+000	-2.9903	-36.503160
 751	6.0080e+000	-3.0015	-36.359485
 752	6.0160e+000	-2.9904	-36.474425
 753	6.0240e+000	-2.9787	-36.403051
 754	6.0320e+000	-2.9649	-36.469791
 755	6.0400e+000	-2.9562	-36.404905
 756	6.0480e+000	-2.9430	-36.492964
 757	6.0560e+000	-2.9306	-36.420663
 758	6.0640e+000	-2.9188	-36.451252
 759	6.0720e+000	-2.9044	-36.297381
 760	6.0800e+000	-2.8938	-36.386367
 761	6.0880e+000	-2.8806	-36.189856
 762	6.0960e+000	-2.8667	-36.375243
 763	6.1040e+000	-2.8577	-36.243619
 764	6.1120e+000	-2.8481	-36.476279
 765	6.1200e+000	-2.8352	-36.227861
 766	6.1280e+000	-2.8220	-36.226934
 767	6.1360e+000	-2.8102	-36.257523
 768	6.1440e+000	-2.7972	-36.124971
 769	6.1520e+000	-2.7839	-36.301089
 770	6.1600e+000	-2.7723	-36.144437
 771	6.1680e+000	-2.7608	-36.304796
 772	6.1760e+000	-2.7486	-36.213957
 773	6.1840e+000	-2.7374	-36.264011
 774	6.1920e+000	-2.7254	-36.203760
 775	6.2000e+000	-2.7121	-36.163902
 776	6.2080e+000	-2.7012	-36.057305
 777	6.2160e+000	-2.6918	-36.011885
 778	6.2240e+000	-2.6775	-36.021154
 779	6.2320e+000	-2.6657	-36.044328
 780	6.2400e+000	-2.6549	-35.986858
 781	6.2480e+000	-2.6411	-36.093455
 782	6.2560e+000	-2.6309	-35.735658
 783	6.2640e+000	-2.6181	-36.082332
 784	6.2720e+000	-2.6036	-35.880260
 785	6.2800e+000	-2.5941	-35.947926
 786	6.2880e+000	-2.5815	-35.794055
 787	6.2960e+000	-2.5670	-35.951634
 788	6.3040e+000	-2.5596	-35.832059
 789	6.3120e+000	-2.5466	-35.916411
 790	6.3200e+000	-2.5335	-35.826498
 791	6.3280e+000	-2.5219	-35.858014
 792	6.3360e+000	-2.5093	-35.725462
 793	6.3440e+000	-2.4998	-35.779224
 794	6.3520e+000	-2.4867	-35.613303
 795	6.3600e+000	-2.4741	-35.793128
 796	6.3680e+000	-2.4608	-35.678188
 797	6.3760e+000	-2.4511	-35.836694
 798	6.3840e+000	-2.4376	-35.804251
 799	6.3920e+000	-2.4258	-35.736585
 800	6.4000e+000	-2.4134	-35.615157
 801	6.4080e+000	-2.4037	-35.564175
 802	6.4160e+000	-2.3886	-35.472409
 803	6.4240e+000	-2.3785	-35.567883
 804	6.4320e+000	-2.3647	-35.552125
 805	6.4400e+000	-2.3531	-35.632768
 806	6.4480e+000	-2.3422	-35.570664
 807	6.4560e+000	-2.3299	-35.575298
 808	6.4640e+000	-2.3163	-35.502071
 809	6.4720e+000	-2.3048	-35.469628
 810	6.4800e+000	-2.2930	-35.334295
 811	6.4880e+000	-2.2807	-35.542856
 812	6.4960e+000	-2.2705	-35.430697
 813	6.5040e+000	-2.2569	-35.381569
 814	6.5120e+000	-2.2475	-35.492801
 815	6.5200e+000	-2.2327	-35.303707
 816	6.5280e+000	-2.2235	-35.357469
 817	6.5360e+000	-2.2086	-35.281460
 818	6.5440e+000	-2.2007	-35.250871
 819	6.5520e+000	-2.1825	-35.107196
 820	6.5600e+000	-2.1729	-35.261068
 821	6.5680e+000	-2.1631	-35.206378
 822	6.5760e+000	-2.1510	-35.260141
 823	6.5840e+000	-2.1392	-35.163739
 824	6.5920e+000	-2.1260	-35.249017
 825	6.6000e+000	-2.1130	-34.962595
 826	6.6080e+000	-2.1013	-35.129443
 827	6.6160e+000	-2.0910	-34.919955
 828	6.6240e+000	-2.0771	-35.103489
 829	6.6320e+000	-2.0661	-35.055288
 830	6.6400e+000	-2.0518	-35.069192
 831	6.6480e+000	-2.0403	-34.959814
 832	6.6560e+000	-2.0285	-35.015430
 833	6.6640e+000	-2.0181	-34.943129
 834	6.6720e+000	-2.0029	-34.831897
 835	6.6800e+000	-1.9930	-34.722518
 836	6.6880e+000	-1.9821	-34.788331
 837	6.6960e+000	-1.9678	-34.742911
 838	6.7040e+000	-1.9560	-34.889367
 839	6.7120e+000	-1.9473	-34.683587
 840	6.7200e+000	-1.9336	-34.878243
 841	6.7280e+000	-1.9218	-34.741984
 842	6.7360e+000	-1.9087	-34.701199
 843	6.7440e+000	-1.8973	-34.692856
 844	6.7520e+000	-1.8844	-34.561232
 845	6.7600e+000	-1.8732	-34.576063
 846	6.7680e+000	-1.8612	-34.500054
 847	6.7760e+000	-1.8474	-34.575136
 848	6.7840e+000	-1.8369	-34.629825
 849	6.7920e+000	-1.8275	-34.596455
 850	6.8000e+000	-1.8148	-34.420338
 851	6.8080e+000	-1.8048	-34.469465
 852	6.8160e+000	-1.7902	-34.361941
 853	6.8240e+000	-1.7795	-34.350817
 854	6.8320e+000	-1.7636	-34.306325
 855	6.8400e+000	-1.7505	-34.399945
 856	6.8480e+000	-1.7417	-34.321156
 857	6.8560e+000	-1.7302	-34.520447
 858	6.8640e+000	-1.7155	-34.299836
 859	6.8720e+000	-1.7049	-34.204362
 860	6.8800e+000	-1.6899	-34.071810
 861	6.8880e+000	-1.6797	-34.107961
 862	6.8960e+000	-1.6698	-34.064395
 863	6.9040e+000	-1.6559	-34.120011
 864	6.9120e+000	-1.6439	-34.101472
 865	6.9200e+000	-1.6344	-34.049564
 866	6.9280e+000	-1.6225	-34.005071
 867	6.9360e+000	-1.6086	-34.022683
 868	6.9440e+000	-1.5979	-33.967066
 869	6.9520e+000	-1.5838	-33.981897
 870	6.9600e+000	-1.5758	-33.615758
 871	6.9680e+000	-1.5622	-33.914231
 872	6.9760e+000	-1.5472	-33.728844
 873	6.9840e+000	-1.5359	-33.867884
 874	6.9920e+000	-1.5248	-33.726990
 875	7.0000e+000	-1.5153	-33.715867
 876	7.0080e+000	-1.5038	-33.630589
 877	7.0160e+000	-1.4894	-33.662105
 878	7.0240e+000	-1.4751	-33.622247
 879	7.0320e+000	-1.4642	-33.397928
 880	7.0400e+000	-1.4529	-33.552727
 881	7.0480e+000	-1.4442	-33.527699
 882	7.0560e+000	-1.4281	-33.521211
 883	7.0640e+000	-1.4173	-33.472083
 884	7.0720e+000	-1.4054	-33.363632
 885	7.0800e+000	-1.3938	-33.270938
 886	7.0880e+000	-1.3818	-33.029935
 887	7.0960e+000	-1.3710	-33.198637
 888	7.1040e+000	-1.3582	-33.192149
 889	7.1120e+000	-1.3453	-33.133752
 890	7.1200e+000	-1.3334	-33.192149
 891	7.1280e+000	-1.3203	-33.106871
 892	7.1360e+000	-1.3103	-33.057743
 893	7.1440e+000	-1.3004	-32.996566
 894	7.1520e+000	-1.2863	-33.023447
 895	7.1600e+000	-1.2706	-32.831571
 896	7.1680e+000	-1.2617	-32.866795
 897	7.1760e+000	-1.2505	-32.954853
 898	7.1840e+000	-1.2374	-32.816740
 899	7.1920e+000	-1.2257	-32.592422
 900	7.2000e+000	-1.2145	-32.678627
 901	7.2080e+000	-1.2002	-32.498802
 902	7.2160e+000	-1.1898	-32.673065
 903	7.2240e+000	-1.1766	-32.473774
 904	7.2320e+000	-1.1633	-32.525683
 905	7.2400e+000	-1.1519	-32.415377
 906	7.2480e+000	-1.1393	-32.503436
 907	7.2560e+000	-1.1316	-32.359761
 908	7.2640e+000	-1.1165	-32.290241
 909	7.2720e+000	-1.1057	-32.248529
 910	7.2800e+000	-1.0931	-32.101146
 911	7.2880e+000	-1.0830	-32.026992
 912	7.2960e+000	-1.0698	-32.023284
 913	7.3040e+000	-1.0589	-31.972302
 914	7.3120e+000	-1.0458	-32.003818
 915	7.3200e+000	-1.0329	-31.936152
 916	7.3280e+000	-1.0209	-31.873120
 917	7.3360e+000	-1.0093	-31.753546
 918	7.3440e+000	-0.9993	-31.673829
 919	7.3520e+000	-0.9850	-31.524593
 920	7.3600e+000	-0.9718	-31.468050
 921	7.3680e+000	-0.9635	-31.492150
 922	7.3760e+000	-0.9495	-31.352183
 923	7.3840e+000	-0.9348	-31.372576
 924	7.3920e+000	-0.9231	-31.279882
 925	7.4000e+000	-0.9132	-31.063906
 926	7.4080e+000	-0.9023	-31.188116
 927	7.4160e+000	-0.8891	-31.036098
 928	7.4240e+000	-0.8772	-30.950820
 929	7.4320e+000	-0.8652	-30.855346
 930	7.4400e+000	-0.8522	-30.823830
 931	7.4480e+000	-0.8430	-30.742260
 932	7.4560e+000	-0.8286	-30.495695
 933	7.4640e+000	-0.8167	-30.484572
 934	7.4720e+000	-0.8056	-30.310308
 935	7.4800e+000	-0.7935	-30.358509
 936	7.4880e+000	-0.7829	-30.087844
 937	7.4960e+000	-0.7706	-30.187953
 938	7.5040e+000	-0.7594	-30.040570
 939	7.5120e+000	-0.7439	-30.038716
 940	7.5200e+000	-0.7333	-29.931192
 941	7.5280e+000	-0.7217	-29.726339
 942	7.5360e+000	-0.7078	-29.508509
 943	7.5440e+000	-0.6982	-29.485336
 944	7.5520e+000	-0.6841	-29.206329
 945	7.5600e+000	-0.6726	-29.264726
 946	7.5680e+000	-0.6614	-29.150713
 947	7.5760e+000	-0.6503	-29.145151
 948	7.5840e+000	-0.6355	-28.922687
 949	7.5920e+000	-0.6242	-28.795697
 950	7.6000e+000	-0.6153	-28.547278
 951	7.6080e+000	-0.6007	-28.354476
 952	7.6160e+000	-0.5907	-28.271051
 953	7.6240e+000	-0.5791	-28.120888
 954	7.6320e+000	-0.5653	-28.066199
 955	7.6400e+000	-0.5532	-27.932720
 956	7.6480e+000	-0.5439	-27.689863
 957	7.6560e+000	-0.5274	-27.625905
 958	7.6640e+000	-0.5187	-27.402513
 959	7.6720e+000	-0.5025	-27.264400
 960	7.6800e+000	-0.4926	-26.865818
 961	7.6880e+000	-0.4830	-26.810202
 962	7.6960e+000	-0.4700	-26.508021
 963	7.7040e+000	-0.4583	-26.444990
 964	7.7120e+000	-0.4461	-26.356004
 965	7.7200e+000	-0.4340	-26.206767
 966	7.7280e+000	-0.4195	-25.968545
 967	7.7360e+000	-0.4079	-25.625579
 968	7.7440e+000	-0.3972	-25.468000
 969	7.7520e+000	-0.3851	-25.232559
 970	7.7600e+000	-0.3731	-24.951697
 971	7.7680e+000	-0.3596	-24.631905
 972	7.7760e+000	-0.3484	-24.488230
 973	7.7840e+000	-0.3382	-24.404806
 974	7.7920e+000	-0.3232	-24.112821
 975	7.8000e+000	-0.3114	-23.730924
 976	7.8080e+000	-0.3017	-23.423182
 977	7.8160e+000	-0.2890	-23.071873
 978	7.8240e+000	-0.2768	-22.940249
 979	7.8320e+000	-0.2647	-22.633433
 980	7.8400e+000	-0.2534	-22.376672
 981	7.8480e+000	-0.2408	-22.181089
 982	7.8560e+000	-0.2296	-21.864077
 983	7.8640e+000	-0.2176	-21.443249
 984	7.8720e+000	-0.2049	-21.163314
 985	7.8800e+000	-0.1958	-20.762879
 986	7.8880e+000	-0.1820	-20.495921
 987	7.8960e+000	-0.1695	-20.153882
 988	7.9040e+000	-0.1583	-19.859117
 989	7.9120e+000	-0.1452	-19.492051
 990	7.9200e+000	-0.1321	-19.296468
 991	7.9280e+000	-0.1197	-18.756991
 992	7.9360e+000	-0.1089	-18.435345
 993	7.9440e+000	-0.0998	-18.001539
 994	7.9520e+000	-0.0854	-17.602031
 995	7.9600e+000	-0.0732	-17.220133
 996	7.9680e+000	-0.0605	-16.860483
 997	7.9760e+000	-0.0481	-16.584256
 998	7.9840e+000	-0.0349	-16.173624
 999	7.9920e+000	-0.0246	-15.848270
1000	8.0000e+000	-0.0111	-15.281912
1001	8.0080e+000	-0.0023	-14.898161
1002	8.0160e+000	0.0108	-14.441182
1003	8.0240e+000	0.0243	-13.953615
1004	8.0320e+000	0.0337	-13.632895
1005	8.0400e+000	0.0460	-13.108250
1006	8.0480e+000	0.0599	-12.867247
1007	8.0560e+000	0.0700	-12.514085
1008	8.0640e+000	0.0812	-11.958851
1009	8.0720e+000	0.0956	-11.380443
1010	8.0800e+000	0.1054	-10.946638
1011	8.0880e+000	0.1172	-10.474828
1012	8.0960e+000	0.1309	-9.974283
1013	8.1040e+000	0.1421	-9.615559
1014	8.1120e+000	0.1556	-9.192877
1015	8.1200e+000	0.1665	-8.736825
1016	8.1280e+000	0.1783	-8.370686
1017	8.1360e+000	0.1911	-7.731101
1018	8.1440e+000	0.2017	-7.307491
1019	8.1520e+000	0.2147	-6.939498
1020	8.1600e+000	0.2275	-6.289717
1021	8.1680e+000	0.2377	-5.824396
1022	8.1760e+000	0.2511	-5.195934
1023	8.1840e+000	0.2643	-4.919707
1024	8.1920e+000	0.2751	-4.296807
1025	8.2000e+000	0.2857	-3.964964
1026	8.2080e+000	0.2993	-3.076034
1027	8.2160e+000	0.3120	-2.604224
1028	8.2240e+000	0.3216	-1.938684
1029	8.2320e+000	0.3336	-1.533614
1030	8.2400e+000	0.3460	-0.966330
1031	8.2480e+000	0.3584	-0.478762
1032	8.2560e+000	0.3704	0.121892
1033	8.2640e+000	0.3832	0.611314
1034	8.2720e+000	0.3942	1.159132
1035	8.2800e+000	0.4044	1.874726
1036	8.2880e+000	0.4191	2.570854
1037	8.2960e+000	0.4292	3.143700
1038	8.3040e+000	0.4411	3.553405
1039	8.3120e+000	0.4539	4.073415
1040	8.3200e+000	0.4662	4.623088
1041	8.3280e+000	0.4776	5.210765
1042	8.3360e+000	0.4896	5.753948
1043	8.3440e+000	0.5035	6.137700
1044	8.3520e+000	0.5141	6.903348
1045	8.3600e+000	0.5256	7.459509
1046	8.3680e+000	0.5377	7.936880
1047	8.3760e+000	0.5500	8.361416
1048	8.3840e+000	0.5625	9.011198
1049	8.3920e+000	0.5746	9.434807
1050	8.4000e+000	0.5866	10.040096
1051	8.4080e+000	0.6017	10.575864
1052	8.4160e+000	0.6113	10.802036
1053	8.4240e+000	0.6223	11.588077
1054	8.4320e+000	0.6321	11.931970
1055	8.4400e+000	0.6469	12.458469
1056	8.4480e+000	0.6612	12.892274
1057	8.4560e+000	0.6704	13.417846
1058	8.4640e+000	0.6819	13.875752
1059	8.4720e+000	0.6956	14.423571
1060	8.4800e+000	0.7076	14.961193
1061	8.4880e+000	0.7179	15.186438
1062	8.4960e+000	0.7304	15.802850
1063	8.5040e+000	0.7414	16.222751
1064	8.5120e+000	0.7551	16.481366
1065	8.5200e+000	0.7654	17.010646
1066	8.5280e+000	0.7767	17.427767
1067	8.5360e+000	0.7902	18.032128
1068	8.5440e+000	0.8006	18.324113
1069	8.5520e+000	0.8155	18.851539
1070	8.5600e+000	0.8270	19.006337
1071	8.5680e+000	0.8376	19.640360
1072	8.5760e+000	0.8495	19.932345
1073	8.5840e+000	0.8618	20.358735
1074	8.5920e+000	0.8720	20.872257
1075	8.6000e+000	0.8878	21.345921
1076	8.6080e+000	0.9000	21.685179
1077	8.6160e+000	0.9133	22.198701
1078	8.6240e+000	0.9200	22.411896
1079	8.6320e+000	0.9328	22.723346
1080	8.6400e+000	0.9475	23.162713
1081	8.6480e+000	0.9564	23.615984
1082	8.6560e+000	0.9706	23.919092
1083	8.6640e+000	0.9845	24.374217
1084	8.6720e+000	0.9959	24.906278
1085	8.6800e+000	1.0062	25.321544
1086	8.6880e+000	1.0188	25.810966
1087	8.6960e+000	1.0289	26.076069
1088	8.7040e+000	1.0428	26.224379
1089	8.7120e+000	1.0523	26.748097
1090	8.7200e+000	1.0670	27.178195
1091	8.7280e+000	1.0792	27.558238
1092	8.7360e+000	1.0915	28.013363
1093	8.7440e+000	1.1043	28.504639
1094	8.7520e+000	1.1141	28.875413
1095	8.7600e+000	1.1265	29.264726
1096	8.7680e+000	1.1391	29.552075
1097	8.7760e+000	1.1510	29.611399
1098	8.7840e+000	1.1622	30.165706
1099	8.7920e+000	1.1732	30.505891
1100	8.8000e+000	1.1868	30.910035
1101	8.8080e+000	1.2012	31.175138
1102	8.8160e+000	1.2130	31.494004
1103	8.8240e+000	1.2241	31.713688
1104	8.8320e+000	1.2344	31.759107
1105	8.8400e+000	1.2469	32.036261
1106	8.8480e+000	1.2579	31.950983
1107	8.8560e+000	1.2711	32.264287
1108	8.8640e+000	1.2818	32.457089
1109	8.8720e+000	1.2931	32.538660
1110	8.8800e+000	1.3079	32.790786
1111	8.8880e+000	1.3180	32.833425
1112	8.8960e+000	1.3318	32.993785
1113	8.9040e+000	1.3418	32.922411
1114	8.9120e+000	1.3557	32.947438
1115	8.9200e+000	1.3685	32.788932
1116	8.9280e+000	1.3771	33.037351
1117	8.9360e+000	1.3883	33.197710
1118	8.9440e+000	1.4008	33.275573
1119	8.9520e+000	1.4149	33.325627
1120	8.9600e+000	1.4256	33.449837
1121	8.9680e+000	1.4388	33.396075
1122	8.9760e+000	1.4515	33.423883
1123	8.9840e+000	1.4627	33.368266
1124	8.9920e+000	1.4758	33.355289
1125	9.0000e+000	1.4866	33.532334
1126	9.0080e+000	1.4969	33.683424
1127	9.0160e+000	1.5089	33.717721
1128	9.0240e+000	1.5208	33.675082
1129	9.0320e+000	1.5344	33.781679
1130	9.0400e+000	1.5474	33.706598
1131	9.0480e+000	1.5577	33.802072
1132	9.0560e+000	1.5710	33.766848
1133	9.0640e+000	1.5821	33.676936
1134	9.0720e+000	1.5939	33.963359
1135	9.0800e+000	1.6074	34.008778
1136	9.0880e+000	1.6186	33.949455
1137	9.0960e+000	1.6319	33.919793
1138	9.1040e+000	1.6424	34.050491
1139	9.1120e+000	1.6544	34.047710
1140	9.1200e+000	1.6678	34.109814
1141	9.1280e+000	1.6782	34.150600
1142	9.1360e+000	1.6891	34.030098
1143	9.1440e+000	1.7007	34.212704
1144	9.1520e+000	1.7157	34.213631
1145	9.1600e+000	1.7278	34.268320
1146	9.1680e+000	1.7391	34.221974
1147	9.1760e+000	1.7492	34.398091
1148	9.1840e+000	1.7631	34.240512
1149	9.1920e+000	1.7729	34.332279
1150	9.2000e+000	1.7871	34.416630
1151	9.2080e+000	1.7963	34.422191
1152	9.2160e+000	1.8133	34.517666
1153	9.2240e+000	1.8224	34.651144
1154	9.2320e+000	1.8350	34.476881
1155	9.2400e+000	1.8455	34.615921
1156	9.2480e+000	1.8583	34.556597
1157	9.2560e+000	1.8712	34.602944
1158	9.2640e+000	1.8815	34.592747
1159	9.2720e+000	1.8941	34.742911
1160	9.2800e+000	1.9074	34.682660
1161	9.2880e+000	1.9167	34.809650
1162	9.2960e+000	1.9300	34.757742
1163	9.3040e+000	1.9418	34.731788
1164	9.3120e+000	1.9543	34.726226
1165	9.3200e+000	1.9660	34.812431
1166	9.3280e+000	1.9769	34.819847
1167	9.3360e+000	1.9923	34.970010
1168	9.3440e+000	2.0015	34.842093
1169	9.3520e+000	2.0131	34.940348
1170	9.3600e+000	2.0243	34.963521
1171	9.3680e+000	2.0400	35.009868
1172	9.3760e+000	2.0496	34.985768
1173	9.3840e+000	2.0623	34.955179
1174	9.3920e+000	2.0743	35.005234
1175	9.4000e+000	2.0852	34.980206
1176	9.4080e+000	2.1000	35.119247
1177	9.4160e+000	2.1114	35.124808
1178	9.4240e+000	2.1230	35.120173
1179	9.4320e+000	2.1336	35.165593
1180	9.4400e+000	2.1474	35.179497
1181	9.4480e+000	2.1589	35.136858
1182	9.4560e+000	2.1709	35.170228
1183	9.4640e+000	2.1829	35.208232
1184	9.4720e+000	2.1969	35.312976
1185	9.4800e+000	2.2056	35.408450
1186	9.4880e+000	2.2182	35.433477
1187	9.4960e+000	2.2301	35.246237
1188	9.5040e+000	2.2436	35.335222
1189	9.5120e+000	2.2538	35.256433
1190	9.5200e+000	2.2700	35.355615
1191	9.5280e+000	2.2803	35.399181
1192	9.5360e+000	2.2898	35.494655
1193	9.5440e+000	2.2998	35.413085
1194	9.5520e+000	2.3132	35.568810
1195	9.5600e+000	2.3286	35.543783
1196	9.5680e+000	2.3410	35.572518
1197	9.5760e+000	2.3518	35.468701
1198	9.5840e+000	2.3630	35.551198
1199	9.5920e+000	2.3743	35.454797
1200	9.6000e+000	2.3878	35.651307
1201	9.6080e+000	2.3992	35.562321
1202	9.6160e+000	2.4110	35.724535
1203	9.6240e+000	2.4215	35.841329
1204	9.6320e+000	2.4348	35.793128
1205	9.6400e+000	2.4475	35.798690
1206	9.6480e+000	2.4583	35.762539
1207	9.6560e+000	2.4691	35.779224
1208	9.6640e+000	2.4851	35.604033
1209	9.6720e+000	2.4942	35.822790
1210	9.6800e+000	2.5076	35.862648
1211	9.6880e+000	2.5190	35.898799
1212	9.6960e+000	2.5320	35.963684
1213	9.7040e+000	2.5443	35.885822
1214	9.7120e+000	2.5546	35.852452
1215	9.7200e+000	2.5650	35.843183
1216	9.7280e+000	2.5803	35.811667
1217	9.7360e+000	2.5915	35.943292
1218	9.7440e+000	2.6017	36.005396
1219	9.7520e+000	2.6154	36.089747
1220	9.7600e+000	2.6290	36.016519
1221	9.7680e+000	2.6382	36.078624
1222	9.7760e+000	2.6524	36.050816
1223	9.7840e+000	2.6638	36.033204
1224	9.7920e+000	2.6751	36.061939
1225	9.8000e+000	2.6865	36.086040
1226	9.8080e+000	2.6997	36.083259
1227	9.8160e+000	2.7088	36.153706
1228	9.8240e+000	2.7271	36.187076
1229	9.8320e+000	2.7355	36.170391
1230	9.8400e+000	2.7479	36.091601
1231	9.8480e+000	2.7612	36.149071
1232	9.8560e+000	2.7683	36.156487
1233	9.8640e+000	2.7836	36.089747
1234	9.8720e+000	2.7966	36.212103
1235	9.8800e+000	2.8065	36.279769
1236	9.8880e+000	2.8191	36.392855
1237	9.8960e+000	2.8313	36.314066
1238	9.9040e+000	2.8428	36.421590
1239	9.9120e+000	2.8552	36.224153
1240	9.9200e+000	2.8655	36.308504
1241	9.9280e+000	2.8766	36.131459
1242	9.9360e+000	2.8919	36.343728
1243	9.9440e+000	2.9024	36.304796
1244	9.9520e+000	2.9150	36.416028
1245	9.9600e+000	2.9285	36.521699
1246	9.9680e+000	2.9386	36.413248
1247	9.9760e+000	2.9523	36.448471
1248	9.9840e+000	2.9641	36.467010
1249	9.9920e+000	2.9749	36.470718
1250	1.0000e+001	2.9877	36.416955
1251	1.0008e+001	2.9993	36.541165
1252	1.0016e+001	2.9849	36.523553
1253	1.0024e+001	2.9762	36.380805
1254	1.0032e+001	2.9635	36.536530
1255	1.0040e+001	2.9498	36.461448
1256	1.0048e+001	2.9383	36.461448
1257	1.0056e+001	2.9263	36.443836
1258	1.0064e+001	2.9176	36.422517
1259	1.0072e+001	2.9010	36.365974
1260	1.0080e+001	2.8919	36.513357
1261	1.0088e+001	2.8783	36.417882
1262	1.0096e+001	2.8692	36.489256
1263	1.0104e+001	2.8542	36.366901
1264	1.0112e+001	2.8437	36.357632
1265	1.0120e+001	2.8297	36.287184
1266	1.0128e+001	2.8204	36.294600
1267	1.0136e+001	2.8083	36.300162
1268	1.0144e+001	2.7956	36.289038
1269	1.0152e+001	2.7844	36.327970
1270	1.0160e+001	2.7711	36.335385
1271	1.0168e+001	2.7586	36.280696
1272	1.0176e+001	2.7483	36.220445
1273	1.0184e+001	2.7374	36.222299
1274	1.0192e+001	2.7229	36.212103
1275	1.0200e+001	2.7105	36.187076
1276	1.0208e+001	2.6979	36.319627
1277	1.0216e+001	2.6877	36.192637
1278	1.0224e+001	2.6736	36.157414
1279	1.0232e+001	2.6636	36.198199
1280	1.0240e+001	2.6514	36.114775
1281	1.0248e+001	2.6363	36.124971
1282	1.0256e+001	2.6270	36.093455
1283	1.0264e+001	2.6147	36.124971
1284	1.0272e+001	2.6040	36.082332
1285	1.0280e+001	2.5910	36.127752
1286	1.0288e+001	2.5785	36.055451
1287	1.0296e+001	2.5663	36.031350
1288	1.0304e+001	2.5588	36.007250
1289	1.0312e+001	2.5449	35.934022
1290	1.0320e+001	2.5327	36.000762
1291	1.0328e+001	2.5182	35.944219
1292	1.0336e+001	2.5043	35.930315
1293	1.0344e+001	2.4957	36.009104
1294	1.0352e+001	2.4850	36.035985
1295	1.0360e+001	2.4700	36.001689
1296	1.0368e+001	2.4604	35.935876
1297	1.0376e+001	2.4468	35.858941
1298	1.0384e+001	2.4330	35.825571
1299	1.0392e+001	2.4230	35.745855
1300	1.0400e+001	2.4108	35.969246
1301	1.0408e+001	2.3986	35.916411
1302	1.0416e+001	2.3875	35.883968
1303	1.0424e+001	2.3753	35.822790
1304	1.0432e+001	2.3624	35.645746
1305	1.0440e+001	2.3508	35.681896
1306	1.0448e+001	2.3376	35.655015
1307	1.0456e+001	2.3266	35.717120
1308	1.0464e+001	2.3154	35.688385
1309	1.0472e+001	2.3029	35.787567
1310	1.0480e+001	2.2897	35.739366
1311	1.0488e+001	2.2787	35.719900
1312	1.0496e+001	2.2637	35.715266
1313	1.0504e+001	2.2555	35.602180
1314	1.0512e+001	2.2445	35.567883
1315	1.0520e+001	2.2319	35.556760
1316	1.0528e+001	2.2172	35.547490
1317	1.0536e+001	2.2058	35.560468
1318	1.0544e+001	2.1944	35.544710
1319	1.0552e+001	2.1819	35.618864
1320	1.0560e+001	2.1704	35.548417
1321	1.0568e+001	2.1574	35.507632
1322	1.0576e+001	2.1470	35.371373
1323	1.0584e+001	2.1346	35.416793
1324	1.0592e+001	2.1225	35.413085
1325	1.0600e+001	2.1104	35.381569
1326	1.0608e+001	2.0993	35.494655
1327	1.0616e+001	2.0844	35.474263
1328	1.0624e+001	2.0759	35.502071
1329	1.0632e+001	2.0616	35.500217
1330	1.0640e+001	2.0490	35.423281
1331	1.0648e+001	2.0400	35.299072
1332	1.0656e+001	2.0262	35.230479
1333	1.0664e+001	2.0135	35.307414
1334	1.0672e+001	2.0066	35.342638
1335	1.0680e+001	1.9921	35.350053
1336	1.0688e+001	1.9798	35.342638
1337	1.0696e+001	1.9685	35.268483
1338	1.0704e+001	1.9556	35.271264
1339	1.0712e+001	1.9405	35.135004
1340	1.0720e+001	1.9308	35.252725
1341	1.0728e+001	1.9172	35.149835
1342	1.0736e+001	1.9082	35.183205
1343	1.0744e+001	1.8948	35.135004
1344	1.0752e+001	1.8806	35.181351
1345	1.0760e+001	1.8711	35.068265
1346	1.0768e+001	1.8583	35.123881
1347	1.0776e+001	1.8472	35.149835
1348	1.0784e+001	1.8342	34.986695
1349	1.0792e+001	1.8234	34.981133
1350	1.0800e+001	1.8105	35.088658
1351	1.0808e+001	1.7982	35.023772
1352	1.0816e+001	1.7861	35.038603
1353	1.0824e+001	1.7765	35.072900
1354	1.0832e+001	1.7625	34.911613
1355	1.0840e+001	1.7489	34.854143
1356	1.0848e+001	1.7377	34.771646
1357	1.0856e+001	1.7243	34.860632
1358	1.0864e+001	1.7152	34.754961
1359	1.0872e+001	1.7042	34.900490
1360	1.0880e+001	1.6918	34.953325
1361	1.0888e+001	1.6769	34.945910
1362	1.0896e+001	1.6669	34.855070
1363	1.0904e+001	1.6538	34.850435
1364	1.0912e+001	1.6432	34.751253
1365	1.0920e+001	1.6329	34.577917
1366	1.0928e+001	1.6201	34.754034
1367	1.0936e+001	1.6054	34.759596
1368	1.0944e+001	1.5961	34.718811
1369	1.0952e+001	1.5838	34.719738
1370	1.0960e+001	1.5696	34.679879
1371	1.0968e+001	1.5589	34.680806
1372	1.0976e+001	1.5453	34.769792
1373	1.0984e+001	1.5357	34.621482
1374	1.0992e+001	1.5227	34.545474
1375	1.1000e+001	1.5108	34.516739
1376	1.1008e+001	1.4978	34.564012
1377	1.1016e+001	1.4852	34.522300
1378	1.1024e+001	1.4735	34.531570
1379	1.1032e+001	1.4642	34.545474
1380	1.1040e+001	1.4498	34.560305
1381	1.1048e+001	1.4390	34.512104
1382	1.1056e+001	1.4268	34.423118
1383	1.1064e+001	1.4138	34.415703
1384	1.1072e+001	1.4030	34.394383
1385	1.1080e+001	1.3889	34.463904
1386	1.1088e+001	1.3798	34.462977
1387	1.1096e+001	1.3680	34.404580
1388	1.1104e+001	1.3550	34.397164
1389	1.1112e+001	1.3418	34.284078
1390	1.1120e+001	1.3329	34.251635
1391	1.1128e+001	1.3194	34.273882
1392	1.1136e+001	1.3043	34.345256
1393	1.1144e+001	1.2958	34.335060
1394	1.1152e+001	1.2823	34.179335
1395	1.1160e+001	1.2714	34.151526
1396	1.1168e+001	1.2596	34.122791
1397	1.1176e+001	1.2490	34.066248
1398	1.1184e+001	1.2336	34.050491
1399	1.1192e+001	1.2234	34.061614
1400	1.1200e+001	1.2112	34.125572
1401	1.1208e+001	1.1985	34.127426
1402	1.1216e+001	1.1857	34.211777
1403	1.1224e+001	1.1759	33.967066
1404	1.1232e+001	1.1622	34.199727
1405	1.1240e+001	1.1523	34.019902
1406	1.1248e+001	1.1362	34.032879
1407	1.1256e+001	1.1274	33.924427
1408	1.1264e+001	1.1131	33.946674
1409	1.1272e+001	1.1005	33.898473
1410	1.1280e+001	1.0893	33.952235
1411	1.1288e+001	1.0810	33.786314
1412	1.1296e+001	1.0680	33.834515
1413	1.1304e+001	1.0529	33.790949
1414	1.1312e+001	1.0425	33.694548
1415	1.1320e+001	1.0303	33.662105
1416	1.1328e+001	1.0203	33.645420
1417	1.1336e+001	1.0052	33.687132
1418	1.1344e+001	0.9939	33.594439
1419	1.1352e+001	0.9838	33.764995
1420	1.1360e+001	0.9690	33.647274
1421	1.1368e+001	0.9603	33.692694
1422	1.1376e+001	0.9473	33.361778
1423	1.1384e+001	0.9316	33.537896
1424	1.1392e+001	0.9213	33.492476
1425	1.1400e+001	0.9100	33.594439
1426	1.1408e+001	0.8959	33.565704
1427	1.1416e+001	0.8863	33.530480
1428	1.1424e+001	0.8747	33.435933
1429	1.1432e+001	0.8630	33.422029
1430	1.1440e+001	0.8533	33.335824
1431	1.1448e+001	0.8395	33.321920
1432	1.1456e+001	0.8266	33.325627
1433	1.1464e+001	0.8138	33.381244
1434	1.1472e+001	0.8026	33.232934
1435	1.1480e+001	0.7896	33.359924
1436	1.1488e+001	0.7791	33.270938
1437	1.1496e+001	0.7663	33.259815
1438	1.1504e+001	0.7538	33.208834
1439	1.1512e+001	0.7447	33.103163
1440	1.1520e+001	0.7316	33.119848
1441	1.1528e+001	0.7159	33.023447
1442	1.1536e+001	0.7076	33.053109
1443	1.1544e+001	0.6960	32.988223
1444	1.1552e+001	0.6819	33.080917
1445	1.1560e+001	0.6702	33.054036
1446	1.1568e+001	0.6570	33.033643
1447	1.1576e+001	0.6457	32.998419
1448	1.1584e+001	0.6341	32.750928
1449	1.1592e+001	0.6210	32.913141
1450	1.1600e+001	0.6109	32.684188
1451	1.1608e+001	0.5993	32.854745
1452	1.1616e+001	0.5868	32.803763
1453	1.1624e+001	0.5756	32.783371
1454	1.1632e+001	0.5633	32.681408
1455	1.1640e+001	0.5511	32.598910
1456	1.1648e+001	0.5396	32.593349
1457	1.1656e+001	0.5239	32.605399
1458	1.1664e+001	0.5138	32.725901
1459	1.1672e+001	0.5029	32.486751
1460	1.1680e+001	0.4925	32.504363
1461	1.1688e+001	0.4788	32.412597
1462	1.1696e+001	0.4677	32.382008
1463	1.1704e+001	0.4528	32.279118
1464	1.1712e+001	0.4417	32.240187
1465	1.1720e+001	0.4301	32.231844
1466	1.1728e+001	0.4184	32.117831
1467	1.1736e+001	0.4052	32.190132
1468	1.1744e+001	0.3936	32.070558
1469	1.1752e+001	0.3841	32.030699
1470	1.1760e+001	0.3727	32.066850
1471	1.1768e+001	0.3581	31.963033
1472	1.1776e+001	0.3497	31.826774
1473	1.1784e+001	0.3358	31.673829
1474	1.1792e+001	0.3215	31.628410
1475	1.1800e+001	0.3108	31.646021
1476	1.1808e+001	0.2969	31.697003
1477	1.1816e+001	0.2860	31.381845
1478	1.1824e+001	0.2740	31.400384
1479	1.1832e+001	0.2633	31.173285
1480	1.1840e+001	0.2484	31.151965
1481	1.1848e+001	0.2379	30.803438
1482	1.1856e+001	0.2286	30.710744
1483	1.1864e+001	0.2145	30.527211
1484	1.1872e+001	0.2014	30.383536
1485	1.1880e+001	0.1900	30.249130
1486	1.1888e+001	0.1800	30.008127
1487	1.1896e+001	0.1655	29.701312
1488	1.1904e+001	0.1540	29.365762
1489	1.1912e+001	0.1428	29.007965
1490	1.1920e+001	0.1315	28.583428
1491	1.1928e+001	0.1165	28.174650
1492	1.1936e+001	0.1076	27.790899
1493	1.1944e+001	0.0945	27.285720
1494	1.1952e+001	0.0822	26.876941
1495	1.1960e+001	0.0699	26.356931
1496	1.1968e+001	0.0581	25.680268
1497	1.1976e+001	0.0444	24.967455
1498	1.1984e+001	0.0322	24.184195
1499	1.1992e+001	0.0199	23.431524
1500	1.2000e+001	0.0118	22.655680
1501	1.2008e+001	-0.0024	21.967894
1502	1.2016e+001	-0.0108	21.170730
1503	1.2024e+001	-0.0279	20.318877
1504	1.2032e+001	-0.0377	19.545813
1505	1.2040e+001	-0.0495	18.606828
1506	1.2048e+001	-0.0620	17.639108
1507	1.2056e+001	-0.0724	16.840090
1508	1.2064e+001	-0.0840	15.800996
1509	1.2072e+001	-0.0986	15.060375
1510	1.2080e+001	-0.1093	14.091728
1511	1.2088e+001	-0.1220	13.350180
1512	1.2096e+001	-0.1321	12.246201
1513	1.2104e+001	-0.1459	11.453671
1514	1.2112e+001	-0.1581	10.352473
1515	1.2120e+001	-0.1688	9.665614
1516	1.2128e+001	-0.1805	8.727556
1517	1.2136e+001	-0.1965	7.938734
1518	1.2144e+001	-0.2047	7.089662
1519	1.2152e+001	-0.2168	6.321233
1520	1.2160e+001	-0.2289	5.557438
1521	1.2168e+001	-0.2411	4.769544
1522	1.2176e+001	-0.2522	3.844463
1523	1.2184e+001	-0.2653	3.136284
1524	1.2192e+001	-0.2738	2.322435
1525	1.2200e+001	-0.2878	1.697681
1526	1.2208e+001	-0.3004	0.936668
1527	1.2216e+001	-0.3117	0.313767
1528	1.2224e+001	-0.3249	-0.376799
1529	1.2232e+001	-0.3361	-1.085904
1530	1.2240e+001	-0.3468	-1.754224
1531	1.2248e+001	-0.3632	-2.358586
1532	1.2256e+001	-0.3719	-3.063983
1533	1.2264e+001	-0.3868	-3.696153
1534	1.2272e+001	-0.3947	-4.245825
1535	1.2280e+001	-0.4082	-4.731539
1536	1.2288e+001	-0.4202	-5.275650
1537	1.2296e+001	-0.4343	-5.796587
1538	1.2304e+001	-0.4452	-6.460273
1539	1.2312e+001	-0.4563	-7.007164
1540	1.2320e+001	-0.4701	-7.492878
1541	1.2328e+001	-0.4829	-8.088898
1542	1.2336e+001	-0.4923	-8.364197
1543	1.2344e+001	-0.5041	-9.023248
1544	1.2352e+001	-0.5201	-9.361579
1545	1.2360e+001	-0.5297	-9.835243
1546	1.2368e+001	-0.5416	-10.277391
1547	1.2376e+001	-0.5527	-10.728808
1548	1.2384e+001	-0.5669	-11.262723
1549	1.2392e+001	-0.5779	-11.685405
1550	1.2400e+001	-0.5894	-12.064521
1551	1.2408e+001	-0.6004	-12.414903
1552	1.2416e+001	-0.6140	-12.888566
1553	1.2424e+001	-0.6244	-13.352034
1554	1.2432e+001	-0.6372	-13.645872
1555	1.2440e+001	-0.6494	-14.125098
1556	1.2448e+001	-0.6613	-14.433767
1557	1.2456e+001	-0.6730	-14.864792
1558	1.2464e+001	-0.6869	-15.233712
1559	1.2472e+001	-0.6989	-15.647125
1560	1.2480e+001	-0.7108	-15.850124
1561	1.2488e+001	-0.7208	-16.264463
1562	1.2496e+001	-0.7314	-16.637091
1563	1.2504e+001	-0.7450	-16.985619
1564	1.2512e+001	-0.7568	-17.371224
1565	1.2520e+001	-0.7698	-17.790198
1566	1.2528e+001	-0.7816	-18.099795
1567	1.2536e+001	-0.7896	-18.400121
1568	1.2544e+001	-0.8067	-18.668006
1569	1.2552e+001	-0.8173	-18.951648
1570	1.2560e+001	-0.8295	-19.332618
1571	1.2568e+001	-0.8404	-19.602356
1572	1.2576e+001	-0.8552	-19.867459
1573	1.2584e+001	-0.8662	-20.266968
1574	1.2592e+001	-0.8786	-20.574711
1575	1.2600e+001	-0.8870	-20.646085
1576	1.2608e+001	-0.9010	-21.046521
1577	1.2616e+001	-0.9123	-21.335724
1578	1.2624e+001	-0.9265	-21.531308
1579	1.2632e+001	-0.9373	-21.956771
1580	1.2640e+001	-0.9448	-22.099519
1581	1.2648e+001	-0.9621	-22.551863
1582	1.2656e+001	-0.9712	-22.678853
1583	1.2664e+001	-0.9857	-23.000499
1584	1.2672e+001	-0.9956	-23.138613
1585	1.2680e+001	-1.0108	-23.340685
1586	1.2688e+001	-1.0239	-23.612276
1587	1.2696e+001	-1.0347	-23.807860
1588	1.2704e+001	-1.0474	-24.053498
1589	1.2712e+001	-1.0579	-24.328797
1590	1.2720e+001	-1.0702	-24.676398
1591	1.2728e+001	-1.0828	-24.782995
1592	1.2736e+001	-1.0951	-24.983213
1593	1.2744e+001	-1.1054	-25.247390
1594	1.2752e+001	-1.1150	-25.357695
1595	1.2760e+001	-1.1276	-25.540301
1596	1.2768e+001	-1.1411	-25.765546
1597	1.2776e+001	-1.1539	-25.971326
1598	1.2784e+001	-1.1660	-26.279995
1599	1.2792e+001	-1.1781	-26.294826
1600	1.2800e+001	-1.1879	-26.631304
1601	1.2808e+001	-1.2022	-26.656331
1602	1.2816e+001	-1.2126	-26.946461
1603	1.2824e+001	-1.2267	-27.045643
1604	1.2832e+001	-1.2385	-27.191172
1605	1.2840e+001	-1.2492	-27.396952
1606	1.2848e+001	-1.2631	-27.598097
1607	1.2856e+001	-1.2736	-27.784411
1608	1.2864e+001	-1.2856	-27.836319
1609	1.2872e+001	-1.2968	-28.057856
1610	1.2880e+001	-1.3073	-28.162600
1611	1.2888e+001	-1.3215	-28.329448
1612	1.2896e+001	-1.3328	-28.511128
1613	1.2904e+001	-1.3439	-28.565817
1614	1.2912e+001	-1.3577	-28.859655
1615	1.2920e+001	-1.3687	-28.910636
1616	1.2928e+001	-1.3795	-29.131247
1617	1.2936e+001	-1.3943	-29.248968
1618	1.2944e+001	-1.4049	-29.374104
1619	1.2952e+001	-1.4194	-29.444551
1620	1.2960e+001	-1.4298	-29.478848
1621	1.2968e+001	-1.4418	-29.655892
1622	1.2976e+001	-1.4543	-29.756928
1623	1.2984e+001	-1.4640	-30.001639
1624	1.2992e+001	-1.4774	-30.076721
1625	1.3000e+001	-1.4917	-30.222249
1626	1.3008e+001	-1.5006	-30.346459
1627	1.3016e+001	-1.5149	-30.359436
1628	1.3024e+001	-1.5263	-30.407636
1629	1.3032e+001	-1.5361	-30.622685
1630	1.3040e+001	-1.5479	-30.669959
1631	1.3048e+001	-1.5630	-30.798803
1632	1.3056e+001	-1.5738	-30.868323
1633	1.3064e+001	-1.5855	-31.088007
1634	1.3072e+001	-1.5964	-31.037025
1635	1.3080e+001	-1.6113	-31.126011
1636	1.3088e+001	-1.6203	-31.231681
1637	1.3096e+001	-1.6334	-31.301202
1638	1.3104e+001	-1.6453	-31.453219
1639	1.3112e+001	-1.6550	-31.607090
1640	1.3120e+001	-1.6692	-31.618213
1641	1.3128e+001	-1.6823	-31.776719
1642	1.3136e+001	-1.6955	-31.773011
1643	1.3144e+001	-1.7046	-31.890732
1644	1.3152e+001	-1.7183	-31.944494
1645	1.3160e+001	-1.7297	-32.251310
1646	1.3168e+001	-1.7393	-32.043676
1647	1.3176e+001	-1.7532	-32.280045
1648	1.3184e+001	-1.7665	-32.340296
1649	1.3192e+001	-1.7770	-32.388496
1650	1.3200e+001	-1.7890	-32.433916
1651	1.3208e+001	-1.8008	-32.469140
1652	1.3216e+001	-1.8158	-32.590568
1653	1.3224e+001	-1.8269	-32.518267
1654	1.3232e+001	-1.8381	-32.730535
1655	1.3240e+001	-1.8488	-32.744439
1656	1.3248e+001	-1.8597	-32.801909
1657	1.3256e+001	-1.8732	-32.939096
1658	1.3264e+001	-1.8843	-32.982662
1659	1.3272e+001	-1.8998	-32.984515
1660	1.3280e+001	-1.9084	-32.995639
1661	1.3288e+001	-1.9224	-33.059597
1662	1.3296e+001	-1.9345	-33.177318
1663	1.3304e+001	-1.9460	-33.352509
1664	1.3312e+001	-1.9559	-33.474864
1665	1.3320e+001	-1.9710	-33.359924
1666	1.3328e+001	-1.9825	-33.475791
1667	1.3336e+001	-1.9910	-33.455398
1668	1.3344e+001	-2.0058	-33.559215
1669	1.3352e+001	-2.0190	-33.511941
1670	1.3360e+001	-2.0308	-33.536969
1671	1.3368e+001	-2.0425	-33.643566
1672	1.3376e+001	-2.0540	-33.805780
1673	1.3384e+001	-2.0648	-33.790949
1674	1.3392e+001	-2.0773	-34.015267
1675	1.3400e+001	-2.0878	-33.824318
1676	1.3408e+001	-2.1026	-34.004144
1677	1.3416e+001	-2.1152	-33.873446
1678	1.3424e+001	-2.1252	-34.013413
1679	1.3432e+001	-2.1390	-34.069956
1680	1.3440e+001	-2.1498	-34.113522
1681	1.3448e+001	-2.1596	-34.167284
1682	1.3456e+001	-2.1738	-34.298909
1683	1.3464e+001	-2.1834	-34.469465
1684	1.3472e+001	-2.1986	-34.309105
1685	1.3480e+001	-2.2121	-34.266466
1686	1.3488e+001	-2.2236	-34.227535
1687	1.3496e+001	-2.2353	-34.389749
1688	1.3504e+001	-2.2472	-34.419411
1689	1.3512e+001	-2.2576	-34.550108
1690	1.3520e+001	-2.2696	-34.636313
1691	1.3528e+001	-2.2811	-34.590894
1692	1.3536e+001	-2.2940	-34.488004
1693	1.3544e+001	-2.3061	-34.653925
1694	1.3552e+001	-2.3186	-34.568647
1695	1.3560e+001	-2.3318	-34.677099
1696	1.3568e+001	-2.3403	-34.810577
1697	1.3576e+001	-2.3509	-34.887513
1698	1.3584e+001	-2.3658	-34.884732
1699	1.3592e+001	-2.3792	-34.989476
1700	1.3600e+001	-2.3904	-34.938494
1701	1.3608e+001	-2.4019	-34.932933
1702	1.3616e+001	-2.4142	-34.956106
1703	1.3624e+001	-2.4253	-34.948690
1704	1.3632e+001	-2.4388	-35.033968
1705	1.3640e+001	-2.4502	-35.114612
1706	1.3648e+001	-2.4630	-35.180424
1707	1.3656e+001	-2.4763	-35.245310
1708	1.3664e+001	-2.4849	-35.280533
1709	1.3672e+001	-2.5010	-35.277752
1710	1.3680e+001	-2.5098	-35.206378
1711	1.3688e+001	-2.5233	-35.245310
1712	1.3696e+001	-2.5331	-35.250871
1713	1.3704e+001	-2.5462	-35.338003
1714	1.3712e+001	-2.5580	-35.431624
1715	1.3720e+001	-2.5672	-35.544710
1716	1.3728e+001	-2.5833	-35.541002
1717	1.3736e+001	-2.5945	-35.528025
1718	1.3744e+001	-2.6063	-35.527098
1719	1.3752e+001	-2.6186	-35.473336
1720	1.3760e+001	-2.6307	-35.477043
1721	1.3768e+001	-2.6445	-35.665211
1722	1.3776e+001	-2.6503	-35.578079
1723	1.3784e+001	-2.6657	-35.810740
1724	1.3792e+001	-2.6756	-35.769955
1725	1.3800e+001	-2.6894	-35.807959
1726	1.3808e+001	-2.7031	-35.780151
1727	1.3816e+001	-2.7139	-35.749562
1728	1.3824e+001	-2.7276	-35.848744
1729	1.3832e+001	-2.7379	-35.814448
1730	1.3840e+001	-2.7493	-36.016519
1731	1.3848e+001	-2.7609	-35.925680
1732	1.3856e+001	-2.7736	-36.021154
1733	1.3864e+001	-2.7855	-36.037839
1734	1.3872e+001	-2.7988	-36.013739
1735	1.3880e+001	-2.8117	-35.998908
1736	1.3888e+001	-2.8218	-35.981296
1737	1.3896e+001	-2.8336	-36.000762
1738	1.3904e+001	-2.8474	-36.104578
1739	1.3912e+001	-2.8575	-36.282550
1740	1.3920e+001	-2.8692	-36.217664
1741	1.3928e+001	-2.8808	-36.222299
1742	1.3936e+001	-2.8922	-36.293673
1743	1.3944e+001	-2.9045	-36.255669
1744	1.3952e+001	-2.9160	-36.224153
1745	1.3960e+001	-2.9277	-36.264938
1746	1.3968e+001	-2.9411	-36.260303
1747	1.3976e+001	-2.9549	-36.407686
1748	1.3984e+001	-2.9662	-36.481841
1749	1.3992e+001	-2.9767	-36.492037
1750	1.4000e+001	-2.9902	-36.537457
1751	1.4008e+001	-3.0032	-36.470718
1752	1.4016e+001	-2.9898	-36.541165
1753	1.4024e+001	-2.9788	-36.336312
1754	1.4032e+001	-2.9668	-36.478133
1755	1.4040e+001	-2.9536	-36.360412
1756	1.4048e+001	-2.9407	-36.535603
1757	1.4056e+001	-2.9295	-36.456814
1758	1.4064e+001	-2.9179	-36.481841
1759	1.4072e+001	-2.9042	-36.416028
1760	1.4080e+001	-2.8905	-36.268646
1761	1.4088e+001	-2.8824	-36.233422
1762	1.4096e+001	-2.8716	-36.342801
1763	1.4104e+001	-2.8574	-36.315919
1764	1.4112e+001	-2.8477	-36.397490
1765	1.4120e+001	-2.8322	-36.286258
1766	1.4128e+001	-2.8215	-36.395636
1767	1.4136e+001	-2.8094	-36.176879
1768	1.4144e+001	-2.7973	-36.327970
1769	1.4152e+001	-2.7855	-36.099017
1770	1.4160e+001	-2.7729	-36.108286
1771	1.4168e+001	-2.7628	-36.208395
1772	1.4176e+001	-2.7493	-36.222299
1773	1.4184e+001	-2.7381	-36.194491
1774	1.4192e+001	-2.7240	-36.185222
1775	1.4200e+001	-2.7127	-36.010958
1776	1.4208e+001	-2.7016	-36.088820
1777	1.4216e+001	-2.6877	-36.078624
1778	1.4224e+001	-2.6783	-36.015593
1779	1.4232e+001	-2.6649	-36.026716
1780	1.4240e+001	-2.6520	-36.094382
1781	1.4248e+001	-2.6436	-36.045254
1782	1.4256e+001	-2.6312	-35.954415
1783	1.4264e+001	-2.6164	-36.050816
1784	1.4272e+001	-2.6075	-35.793128
1785	1.4280e+001	-2.5938	-35.877479
1786	1.4288e+001	-2.5819	-35.752343
1787	1.4296e+001	-2.5702	-35.928461
1788	1.4304e+001	-2.5580	-35.825571
1789	1.4312e+001	-2.5454	-35.898799
1790	1.4320e+001	-2.5337	-35.947926
1791	1.4328e+001	-2.5226	-35.908068
1792	1.4336e+001	-2.5094	-35.840402
1793	1.4344e+001	-2.4980	-35.758832
1794	1.4352e+001	-2.4832	-35.686531
1795	1.4360e+001	-2.4751	-35.573445
1796	1.4368e+001	-2.4619	-35.767174
1797	1.4376e+001	-2.4493	-35.731950
1798	1.4384e+001	-2.4394	-35.713412
1799	1.4392e+001	-2.4271	-35.750489
1800	1.4400e+001	-2.4117	-35.586422
1801	1.4408e+001	-2.4041	-35.651307
1802	1.4416e+001	-2.3915	-35.546563
1803	1.4424e+001	-2.3782	-35.642965
1804	1.4432e+001	-2.3639	-35.423281
1805	1.4440e+001	-2.3536	-35.681896
1806	1.4448e+001	-2.3402	-35.505778
1807	1.4456e+001	-2.3288	-35.653161
1808	1.4464e+001	-2.3167	-35.496509
1809	1.4472e+001	-2.3064	-35.449235
1810	1.4480e+001	-2.2932	-35.311122
1811	1.4488e+001	-2.2812	-35.373227
1812	1.4496e+001	-2.2684	-35.377861
1813	1.4504e+001	-2.2593	-35.515975
1814	1.4512e+001	-2.2447	-35.395473
1815	1.4520e+001	-2.2360	-35.434404
1816	1.4528e+001	-2.2243	-35.433477
1817	1.4536e+001	-2.2104	-35.336149
1818	1.4544e+001	-2.1946	-35.296291
1819	1.4552e+001	-2.1873	-35.151689
1820	1.4560e+001	-2.1729	-35.102562
1821	1.4568e+001	-2.1614	-35.165593
1822	1.4576e+001	-2.1498	-35.282387
1823	1.4584e+001	-2.1368	-35.340784
1824	1.4592e+001	-2.1253	-35.249017
1825	1.4600e+001	-2.1146	-35.144274
1826	1.4608e+001	-2.1017	-35.075681
1827	1.4616e+001	-2.0903	-34.984841
1828	1.4624e+001	-2.0766	-34.986695
1829	1.4632e+001	-2.0681	-34.953325
1830	1.4640e+001	-2.0552	-34.996891
1831	1.4648e+001	-2.0425	-34.975572
1832	1.4656e+001	-2.0320	-35.045092
1833	1.4664e+001	-2.0194	-34.908832
1834	1.4672e+001	-2.0048	-34.911613
1835	1.4680e+001	-1.9942	-34.699345
1836	1.4688e+001	-1.9823	-34.800381
1837	1.4696e+001	-1.9695	-34.724372
1838	1.4704e+001	-1.9578	-34.869901
1839	1.4712e+001	-1.9443	-34.650217
1840	1.4720e+001	-1.9338	-34.825408
1841	1.4728e+001	-1.9209	-34.735495
1842	1.4736e+001	-1.9112	-34.698418
1843	1.4744e+001	-1.8969	-34.494492
1844	1.4752e+001	-1.8844	-34.564012
1845	1.4760e+001	-1.8732	-34.466684
1846	1.4768e+001	-1.8611	-34.535278
1847	1.4776e+001	-1.8497	-34.527862
1848	1.4784e+001	-1.8373	-34.614067
1849	1.4792e+001	-1.8250	-34.521373
1850	1.4800e+001	-1.8138	-34.544547
1851	1.4808e+001	-1.8018	-34.422191
1852	1.4816e+001	-1.7889	-34.334133
1853	1.4824e+001	-1.7787	-34.309105
1854	1.4832e+001	-1.7661	-34.399018
1855	1.4840e+001	-1.7516	-34.325790
1856	1.4848e+001	-1.7387	-34.351744
1857	1.4856e+001	-1.7302	-34.258124
1858	1.4864e+001	-1.7175	-34.333206
1859	1.4872e+001	-1.7061	-34.161723
1860	1.4880e+001	-1.6938	-34.141330
1861	1.4888e+001	-1.6811	-34.042148
1862	1.4896e+001	-1.6694	-34.143184
1863	1.4904e+001	-1.6589	-34.025463
1864	1.4912e+001	-1.6457	-34.082933
1865	1.4920e+001	-1.6332	-34.172846
1866	1.4928e+001	-1.6206	-34.092203
1867	1.4936e+001	-1.6112	-34.063468
1868	1.4944e+001	-1.5958	-33.906816
1869	1.4952e+001	-1.5842	-33.899400
1870	1.4960e+001	-1.5739	-33.779826
1871	1.4968e+001	-1.5619	-33.773337
1872	1.4976e+001	-1.5473	-33.715867
1873	1.4984e+001	-1.5370	-33.814122
1874	1.4992e+001	-1.5221	-33.788168
1875	1.5000e+001	-1.5146	-33.693621
1876	1.5008e+001	-1.5012	-33.574046
1877	1.5016e+001	-1.4888	-33.613904
1878	1.5024e+001	-1.4779	-33.522138
1879	1.5032e+001	-1.4649	-33.523065
1880	1.5040e+001	-1.4542	-33.504526
1881	1.5048e+001	-1.4431	-33.638005
1882	1.5056e+001	-1.4285	-33.379390
1883	1.5064e+001	-1.4173	-33.515649
1884	1.5072e+001	-1.4053	-33.290404
1885	1.5080e+001	-1.3912	-33.266304
1886	1.5088e+001	-1.3815	-33.023447
1887	1.5096e+001	-1.3696	-33.204199
1888	1.5104e+001	-1.3559	-33.087405
1889	1.5112e+001	-1.3454	-33.266304
1890	1.5120e+001	-1.3327	-33.203272
1891	1.5128e+001	-1.3205	-33.217176
1892	1.5136e+001	-1.3080	-32.941876
1893	1.5144e+001	-1.2967	-33.004908
1894	1.5152e+001	-1.2849	-32.889041
1895	1.5160e+001	-1.2719	-32.860306
1896	1.5168e+001	-1.2605	-32.805617
1897	1.5176e+001	-1.2502	-32.820448
1898	1.5184e+001	-1.2358	-32.777809
1899	1.5192e+001	-1.2255	-32.711070
1900	1.5200e+001	-1.2128	-32.686042
1901	1.5208e+001	-1.2012	-32.662869
1902	1.5216e+001	-1.1885	-32.563687
1903	1.5224e+001	-1.1779	-32.509925
1904	1.5232e+001	-1.1643	-32.423720
1905	1.5240e+001	-1.1546	-32.425574
1906	1.5248e+001	-1.1433	-32.331026
1907	1.5256e+001	-1.1299	-32.381081
1908	1.5264e+001	-1.1182	-32.153982
1909	1.5272e+001	-1.1054	-32.154909
1910	1.5280e+001	-1.0928	-32.173447
1911	1.5288e+001	-1.0810	-32.083535
1912	1.5296e+001	-1.0698	-32.041823
1913	1.5304e+001	-1.0577	-32.028846
1914	1.5312e+001	-1.0456	-32.044603
1915	1.5320e+001	-1.0336	-31.806381
1916	1.5328e+001	-1.0240	-31.946348
1917	1.5336e+001	-1.0090	-31.583917
1918	1.5344e+001	-0.9959	-31.686807
1919	1.5352e+001	-0.9867	-31.421703
1920	1.5360e+001	-0.9729	-31.532935
1921	1.5368e+001	-0.9626	-31.336425
1922	1.5376e+001	-0.9483	-31.504200
1923	1.5384e+001	-0.9382	-31.274320
1924	1.5392e+001	-0.9255	-31.314179
1925	1.5400e+001	-0.9116	-31.115815
1926	1.5408e+001	-0.9004	-31.151038
1927	1.5416e+001	-0.8900	-31.013852
1928	1.5424e+001	-0.8781	-30.983263
1929	1.5432e+001	-0.8656	-30.823830
1930	1.5440e+001	-0.8528	-30.779337
1931	1.5448e+001	-0.8432	-30.684790
1932	1.5456e+001	-0.8302	-30.669959
1933	1.5464e+001	-0.8170	-30.504965
1934	1.5472e+001	-0.8041	-30.389098
1935	1.5480e+001	-0.7918	-30.282500
1936	1.5488e+001	-0.7825	-30.148095
1937	1.5496e+001	-0.7691	-30.103602
1938	1.5504e+001	-0.7583	-30.112871
1939	1.5512e+001	-0.7444	-30.009054
1940	1.5520e+001	-0.7331	-29.882991
1941	1.5528e+001	-0.7204	-29.747659
1942	1.5536e+001	-0.7086	-29.666088
1943	1.5544e+001	-0.6962	-29.322196
1944	1.5552e+001	-0.6874	-29.256383
1945	1.5560e+001	-0.6720	-29.173886
1946	1.5568e+001	-0.6586	-29.391716
1947	1.5576e+001	-0.6507	-29.155347
1948	1.5584e+001	-0.6375	-29.030211
1949	1.5592e+001	-0.6243	-28.809601
1950	1.5600e+001	-0.6131	-28.580648
1951	1.5608e+001	-0.6014	-28.471269
1952	1.5616e+001	-0.5908	-28.203385
1953	1.5624e+001	-0.5766	-28.171869
1954	1.5632e+001	-0.5635	-27.891935
1955	1.5640e+001	-0.5516	-27.896570
1956	1.5648e+001	-0.5400	-27.630539
1957	1.5656e+001	-0.5322	-27.593462
1958	1.5664e+001	-0.5170	-27.439591
1959	1.5672e+001	-0.5054	-27.192099
1960	1.5680e+001	-0.4942	-26.947388
1961	1.5688e+001	-0.4819	-26.775905
1962	1.5696e+001	-0.4682	-26.595153
1963	1.5704e+001	-0.4552	-26.457967
1964	1.5712e+001	-0.4442	-26.287411
1965	1.5720e+001	-0.4341	-26.203987
1966	1.5728e+001	-0.4208	-25.892536
1967	1.5736e+001	-0.4107	-25.623725
1968	1.5744e+001	-0.3976	-25.399407
1969	1.5752e+001	-0.3841	-25.205678
1970	1.5760e+001	-0.3714	-24.841392
1971	1.5768e+001	-0.3616	-24.771872
1972	1.5776e+001	-0.3477	-24.524380
1973	1.5784e+001	-0.3389	-24.346409
1974	1.5792e+001	-0.3253	-24.158241
1975	1.5800e+001	-0.3134	-23.840302
1976	1.5808e+001	-0.3021	-23.461186
1977	1.5816e+001	-0.2911	-23.180325
1978	1.5824e+001	-0.2745	-22.884633
1979	1.5832e+001	-0.2675	-22.638995
1980	1.5840e+001	-0.2542	-22.434142
1981	1.5848e+001	-0.2415	-22.117130
1982	1.5856e+001	-0.2323	-21.910424
1983	1.5864e+001	-0.2163	-21.662932
1984	1.5872e+001	-0.2068	-21.276401
1985	1.5880e+001	-0.1940	-20.878745
1986	1.5888e+001	-0.1821	-20.468113
1987	1.5896e+001	-0.1694	-20.137198
1988	1.5904e+001	-0.1571	-19.695976
1989	1.5912e+001	-0.1454	-19.556009
1990	1.5920e+001	-0.1331	-19.144450
1991	1.5928e+001	-0.1213	-18.817242
1992	1.5936e+001	-0.1103	-18.398268
1993	1.5944e+001	-0.0963	-18.118333
1994	1.5952e+001	-0.0843	-17.660427
1995	1.5960e+001	-0.0734	-17.208083
1996	1.5968e+001	-0.0613	-16.877167
1997	1.5976e+001	-0.0513	-16.422969
1998	1.5984e+001	-0.0365	-16.152304
1999	1.5992e+001	-0.0248	-15.762065
2000	1.6000e+001	-0.0143	-15.306013
2001	1.6008e+001	-0.0025	-14.817518

Center data before PMax,±Pr and ±Vc Calc.

PMax (µC/cm2):	3.65e+001
Pr (µC/cm2):	2.21e+001
-Pr (µC/cm2):	-1.48e+001
Vc:	3.68e-001
-Vc:	-3.18e-001
C (Max-Eff) (nF):	5.98e-002
Vert. (±Pr) Shift (µC/cm2):	3.63e+000
Horiz. Shift (±Vc):	2.51e-002
Offset (µC/cm2):	1.04e+001

A (Loop Area - µC/cm2·Volts):	5.24e+001



Hysteresis Version: 5.12.0 - Radiant Technologies, Inc., 1999 - 11/30/16

