»»»»»»»»»»»»»»»»»»»»»»»»»»»»»»»»»»»» Hysteresis ««««««««««««««««««««««««««««««««««««
»»»  Executed Version:	5.9.3
»»»  Vision Version:	5.9.8 (R)
»»»  Vision Compiled:	3/30/16
»»»  Driver Version:	5.9.8
»»»  Windows Version:	Windows 7
»»»  Processor Information:	x86 (AMD or Intel) - 2 Processors
»»»  Tester Name:	PMF0910-256
»»»  Tester S/N:	PMF0910-256
»»»  Internal Amp Type:	 RTI 100V      
»»»  Internal Amp S/N:	 iAB1-0000     
»»»  Execution Count:	1
»»»»»»»»»»»»»»»»»»»»»»»»»»»»»»»»»»»»»»»»»»««««««««««««««««««««««««««««««««««««««««««

Stored:	11/15/2016 - 8:29:59
Configured:	11/15/16 08:18:26 AM
Executed:	11/15/16 08:29:07 AM

»»»»»»»»»»»»»»»»»»»»»»»»»»»»»»»»»»» Sample Info ««««««««««««««««««««««««««««««««««««
Sample Name:	ba018b
Lot Name:	
Wafer Name:	
Die Row/Column:	1/1
Capacitor Number:	1
Sample Area (cm2):	1.23e-006
Sample Thickness (µm):	1.75e-001

Mux Loop Adjustment:	Disabled

Amplifier:	Internal

»»»»»»»»»»»»»»»»»»»»»»»»»»»»»»»»»»» Tester Info «««««««««««««««««««««««««««««««««««
Tester Name:	PMF0910-256
Tester Serial Number:	PMF0910-256
Return Signal Amp. Level:	20.0 [Index: 0]

»»»»»»»»»»»»»»»»»»»»»»»»»»»»»»»» Hysteresis Info ««««««««««««««««««««««««««««««««««
Task Name:	Hyst-1
Volts:	3.00
Field:	171.43 (kV/cm)
Hysteresis Period (ms):	1.30e-001
Preset:	Enabled
Preset Delay (ms):	1.00e+003
Profile:	Double Bipolar

»»»»»»»»»»»»»»»»»»»»»»»»»»»»»»»»»»»»»» Data «««««««««««««««««««««««««««««««««««««««
Points:	261

Valid Data

Point	Time (ms)	Drive Voltage	Measured Polarization
   1	5.0000e-004	-0.0018	-41.577074
   2	1.0000e-003	0.0914	-41.351078
   3	1.5000e-003	0.1848	-40.979577
   4	2.0000e-003	0.2788	-40.416135
   5	2.5000e-003	0.3709	-39.546205
   6	3.0000e-003	0.4613	-38.354309
   7	3.5000e-003	0.5534	-36.716612
   8	4.0000e-003	0.6454	-34.654785
   9	4.5000e-003	0.7398	-32.128583
  10	5.0000e-003	0.8328	-29.107047
  11	5.5000e-003	0.9251	-25.469440
  12	6.0000e-003	1.0153	-21.608933
  13	6.5000e-003	1.1080	-17.389309
  14	7.0000e-003	1.1974	-13.346148
  15	7.5000e-003	1.2931	-9.188440
  16	8.0000e-003	1.3860	-4.959529
  17	8.5000e-003	1.4758	-0.476759
  18	9.0000e-003	1.5704	4.343458
  19	9.5000e-003	1.6630	9.405149
  20	1.0000e-002	1.7545	14.875491
  21	1.0500e-002	1.8479	20.869029
  22	1.1000e-002	1.9392	27.939917
  23	1.1500e-002	2.0297	36.580395
  24	1.2000e-002	2.1250	46.685203
  25	1.2500e-002	2.2139	53.393879
  26	1.3000e-002	2.3093	55.238997
  27	1.3500e-002	2.4017	56.093447
  28	1.4000e-002	2.4947	56.799298
  29	1.4500e-002	2.5864	57.279152
  30	1.5000e-002	2.6772	57.743528
  31	1.5500e-002	2.7703	58.195520
  32	1.6000e-002	2.8629	58.563924
  33	1.6500e-002	3.0075	59.022108
  34	1.7000e-002	2.9044	59.093312
  35	1.7500e-002	2.8110	59.087121
  36	1.8000e-002	2.7170	59.028300
  37	1.8500e-002	2.6273	58.975670
  38	1.9000e-002	2.5306	58.697045
  39	1.9500e-002	2.4425	58.638224
  40	2.0000e-002	2.3508	58.418420
  41	2.0500e-002	2.2562	58.251245
  42	2.1000e-002	2.1645	57.947853
  43	2.1500e-002	2.0741	57.783774
  44	2.2000e-002	1.9802	57.452519
  45	2.2500e-002	1.8861	57.183182
  46	2.3000e-002	1.7953	57.003623
  47	2.3500e-002	1.7030	56.749765
  48	2.4000e-002	1.6093	56.570206
  49	2.4500e-002	1.5195	56.341114
  50	2.5000e-002	1.4278	55.954135
  51	2.5500e-002	1.3331	55.669318
  52	2.6000e-002	1.2408	55.347351
  53	2.6500e-002	1.1507	55.022288
  54	2.7000e-002	1.0571	54.675555
  55	2.7500e-002	0.9622	54.229754
  56	2.8000e-002	0.8698	53.852062
  57	2.8500e-002	0.7802	53.446508
  58	2.9000e-002	0.6863	52.926407
  59	2.9500e-002	0.5939	52.310336
  60	3.0000e-002	0.5015	51.709744
  61	3.0500e-002	0.4079	50.867677
  62	3.1000e-002	0.3181	49.858434
  63	3.1500e-002	0.2285	48.598429
  64	3.2000e-002	0.1325	46.929774
  65	3.2500e-002	0.0394	44.657430
  66	3.3000e-002	-0.0519	41.753536
  67	3.3500e-002	-0.1425	38.016863
  68	3.4000e-002	-0.2328	32.846817
  69	3.4500e-002	-0.3278	26.704679
  70	3.5000e-002	-0.4199	19.807157
  71	3.5500e-002	-0.5141	12.761035
  72	3.6000e-002	-0.6043	5.993538
  73	3.6500e-002	-0.6953	-0.538675
  74	3.7000e-002	-0.7906	-6.204055
  75	3.7500e-002	-0.8818	-11.426730
  76	3.8000e-002	-0.9743	-15.915691
  77	3.8500e-002	-1.0680	-20.138411
  78	3.9000e-002	-1.1607	-24.104177
  79	3.9500e-002	-1.2521	-27.788221
  80	4.0000e-002	-1.3436	-31.301995
  81	4.0500e-002	-1.4365	-34.732181
  82	4.1000e-002	-1.5311	-38.304775
  83	4.1500e-002	-1.6174	-42.326266
  84	4.2000e-002	-1.7130	-46.322990
  85	4.2500e-002	-1.8058	-49.307376
  86	4.3000e-002	-1.8980	-51.341340
  87	4.3500e-002	-1.9915	-52.647782
  88	4.4000e-002	-2.0836	-53.675600
  89	4.4500e-002	-2.1759	-54.421696
  90	4.5000e-002	-2.2680	-55.189463
  91	4.5500e-002	-2.3580	-55.765289
  92	4.6000e-002	-2.4550	-56.353498
  93	4.6500e-002	-2.5446	-56.864310
  94	4.7000e-002	-2.6373	-57.440136
  95	4.7500e-002	-2.7311	-57.972620
  96	4.8000e-002	-2.8210	-58.474145
  97	4.8500e-002	-2.9131	-58.879700
  98	4.9000e-002	-3.0031	-59.362650
  99	4.9500e-002	-2.9081	-59.396704
 100	5.0000e-002	-2.8162	-59.241912
 101	5.0500e-002	-2.7226	-59.142846
 102	5.1000e-002	-2.6295	-59.093312
 103	5.1500e-002	-2.5383	-58.842550
 104	5.2000e-002	-2.4473	-58.539158
 105	5.2500e-002	-2.3534	-58.362695
 106	5.3000e-002	-2.2593	-58.201712
 107	5.3500e-002	-2.1683	-57.991195
 108	5.4000e-002	-2.0751	-57.721857
 109	5.4500e-002	-1.9861	-57.396794
 110	5.5000e-002	-1.8919	-57.062444
 111	5.5500e-002	-1.7985	-56.867406
 112	5.6000e-002	-1.7102	-56.452564
 113	5.6500e-002	-1.6132	-56.164652
 114	5.7000e-002	-1.5209	-55.882931
 115	5.7500e-002	-1.4294	-55.557868
 116	5.8000e-002	-1.3368	-55.016097
 117	5.8500e-002	-1.2456	-54.749855
 118	5.9000e-002	-1.1538	-54.393834
 119	5.9500e-002	-1.0619	-53.839679
 120	6.0000e-002	-0.9688	-53.449604
 121	6.0500e-002	-0.8771	-53.037858
 122	6.1000e-002	-0.7854	-52.610632
 123	6.1500e-002	-0.6909	-51.954315
 124	6.2000e-002	-0.6001	-51.288710
 125	6.2500e-002	-0.5052	-50.607627
 126	6.3000e-002	-0.4145	-49.719122
 127	6.3500e-002	-0.3230	-48.774892
 128	6.4000e-002	-0.2293	-47.753266
 129	6.4500e-002	-0.1376	-46.586136
 130	6.5000e-002	-0.0471	-45.295172
 131	6.5500e-002	0.0450	-44.143522
 132	6.6000e-002	0.1394	-42.840175
 133	6.6500e-002	0.2332	-41.505869
 134	6.7000e-002	0.3215	-40.317069
 135	6.7500e-002	0.4156	-38.868217
 136	6.8000e-002	0.5096	-37.094304
 137	6.8500e-002	0.5990	-34.852919
 138	6.9000e-002	0.6917	-32.001654
 139	6.9500e-002	0.7867	-28.732451
 140	7.0000e-002	0.8756	-24.946244
 141	7.0500e-002	0.9689	-20.621362
 142	7.1000e-002	1.0622	-16.336725
 143	7.1500e-002	1.1540	-11.980884
 144	7.2000e-002	1.2477	-7.776739
 145	7.2500e-002	1.3383	-3.049398
 146	7.3000e-002	1.4288	1.170226
 147	7.3500e-002	1.5222	5.786117
 148	7.4000e-002	1.6164	10.773508
 149	7.4500e-002	1.7071	15.853775
 150	7.5000e-002	1.7994	21.296254
 151	7.5500e-002	1.8933	27.500309
 152	7.6000e-002	1.9830	35.407073
 153	7.6500e-002	2.0786	44.422147
 154	7.7000e-002	2.1702	52.201982
 155	7.7500e-002	2.2629	55.003713
 156	7.8000e-002	2.3562	56.043914
 157	7.8500e-002	2.4463	56.598069
 158	7.9000e-002	2.5391	57.242002
 159	7.9500e-002	2.6339	57.728049
 160	8.0000e-002	2.7241	58.229574
 161	8.0500e-002	2.8149	58.567020
 162	8.1000e-002	2.9082	58.966383
 163	8.1500e-002	3.0016	59.331692
 164	8.2000e-002	2.9046	59.337883
 165	8.2500e-002	2.8099	59.340979
 166	8.3000e-002	2.7164	59.161421
 167	8.3500e-002	2.6291	59.152133
 168	8.4000e-002	2.5309	58.845645
 169	8.4500e-002	2.4419	58.774441
 170	8.5000e-002	2.3499	58.570116
 171	8.5500e-002	2.2567	58.331737
 172	8.6000e-002	2.1635	58.164561
 173	8.6500e-002	2.0752	57.991195
 174	8.7000e-002	1.9778	57.783774
 175	8.7500e-002	1.8876	57.523724
 176	8.8000e-002	1.7963	56.672369
 177	8.8500e-002	1.7016	56.879790
 178	8.9000e-002	1.6109	56.656889
 179	8.9500e-002	1.5160	56.446373
 180	9.0000e-002	1.4258	56.139885
 181	9.0500e-002	1.3328	56.019147
 182	9.1000e-002	1.2417	55.641455
 183	9.1500e-002	1.1502	55.282338
 184	9.2000e-002	1.0569	54.997522
 185	9.2500e-002	0.9657	54.576488
 186	9.3000e-002	0.8720	54.130688
 187	9.3500e-002	0.7800	53.638450
 188	9.4000e-002	0.6867	53.483658
 189	9.4500e-002	0.5931	52.496086
 190	9.5000e-002	0.5029	51.870727
 191	9.5500e-002	0.4098	50.923402
 192	9.6000e-002	0.3185	49.994651
 193	9.6500e-002	0.2248	48.728454
 194	9.7000e-002	0.1318	47.152674
 195	9.7500e-002	0.0408	44.889618
 196	9.8000e-002	-0.0484	42.001203
 197	9.8500e-002	-0.1428	38.369788
 198	9.9000e-002	-0.2383	33.462888
 199	9.9500e-002	-0.3262	27.299079
 200	1.0000e-001	-0.4177	20.417037
 201	1.0050e-001	-0.5122	13.442119
 202	1.0100e-001	-0.6014	6.733443
 203	1.0150e-001	-0.6993	0.291009
 204	1.0200e-001	-0.7908	-5.433192
 205	1.0250e-001	-0.8813	-10.677537
 206	1.0300e-001	-0.9723	-15.234608
 207	1.0350e-001	-1.0696	-19.373740
 208	1.0400e-001	-1.1588	-23.277589
 209	1.0450e-001	-1.2502	-26.958537
 210	1.0500e-001	-1.3425	-30.453736
 211	1.0550e-001	-1.4378	-33.880826
 212	1.0600e-001	-1.5295	-37.685608
 213	1.0650e-001	-1.6229	-41.691620
 214	1.0700e-001	-1.7132	-45.880285
 215	1.0750e-001	-1.8048	-49.078284
 216	1.0800e-001	-1.8951	-51.109152
 217	1.0850e-001	-1.9896	-52.223653
 218	1.0900e-001	-2.0827	-53.378399
 219	1.0950e-001	-2.1749	-54.195700
 220	1.1000e-001	-2.2651	-54.861305
 221	1.1050e-001	-2.3579	-55.533101
 222	1.1100e-001	-2.4533	-56.102735
 223	1.1150e-001	-2.5417	-56.653794
 224	1.1200e-001	-2.6360	-57.096498
 225	1.1250e-001	-2.7291	-57.811636
 226	1.1300e-001	-2.8219	-58.306970
 227	1.1350e-001	-2.9117	-58.802304
 228	1.1400e-001	-3.0056	-59.257392
 229	1.1450e-001	-2.9081	-59.340979
 230	1.1500e-001	-2.8140	-59.111887
 231	1.1550e-001	-2.7245	-59.080929
 232	1.1600e-001	-2.6309	-58.997341
 233	1.1650e-001	-2.5381	-58.706333
 234	1.1700e-001	-2.4468	-58.622745
 235	1.1750e-001	-2.3548	-58.235766
 236	1.1800e-001	-2.2588	-57.991195
 237	1.1850e-001	-2.1699	-57.824020
 238	1.1900e-001	-2.0753	-57.536107
 239	1.1950e-001	-1.9819	-57.254386
 240	1.2000e-001	-1.8919	-56.929323
 241	1.2050e-001	-1.8000	-56.635219
 242	1.2100e-001	-1.7078	-56.251335
 243	1.2150e-001	-1.6126	-56.003668
 244	1.2200e-001	-1.5247	-55.681701
 245	1.2250e-001	-1.4294	-55.369022
 246	1.2300e-001	-1.3403	-55.037767
 247	1.2350e-001	-1.2453	-54.650788
 248	1.2400e-001	-1.1537	-54.186413
 249	1.2450e-001	-1.0590	-53.768475
 250	1.2500e-001	-0.9679	-53.437220
 251	1.2550e-001	-0.8765	-52.833532
 252	1.2600e-001	-0.7846	-52.304144
 253	1.2650e-001	-0.6908	-51.672594
 254	1.2700e-001	-0.5994	-51.025564
 255	1.2750e-001	-0.5087	-50.186593
 256	1.2800e-001	-0.4149	-49.363101
 257	1.2850e-001	-0.3228	-48.490075
 258	1.2900e-001	-0.2320	-47.508695
 259	1.2950e-001	-0.1363	-46.384907
 260	1.3000e-001	0.0043	-44.771976
 261	1.3050e-001	-0.0011	-44.341655

Center data before PMax,±Pr and ±Vc Calc.

PMax (µC/cm2):	5.93e+001
Pr (µC/cm2):	4.36e+001
-Pr (µC/cm2):	-4.43e+001
Vc:	1.40e+000
-Vc:	-7.04e-001
C (Max-Eff) (nF):	2.43e-002
Vert. (±Pr) Shift (µC/cm2):	-3.86e-001
Horiz. Shift (±Vc):	3.50e-001
Offset (µC/cm2):	5.77e+001

A (Loop Area - µC/cm2·Volts):	2.25e+002



Hysteresis Version: 5.9.3 - Radiant Technologies, Inc., 1999 - 3/03/16

