»»»»»»»»»»»»»»»»»»»»»»»»»»»»»»»»»»»» Hysteresis ««««««««««««««««««««««««««««««««««««
»»»  Executed Version:	5.16.2
»»»  Vision Version:	5.16.10 (R)
»»»  Vision Compiled:	4/26/18
»»»  Driver Version:	5.16.6
»»»  Windows Version:	Windows 8
»»»  Processor Information:	x86 (AMD or Intel) - 8 Processors
»»»  Tester Name:	PPM21016-863
»»»  Tester S/N:	PPM21016-863
»»»  Internal Amp Type:	 RTI ML200V    
»»»  Internal Amp S/N:	 iAB2-0000     
»»»  Execution Count:	1
»»»»»»»»»»»»»»»»»»»»»»»»»»»»»»»»»»»»»»»»»»««««««««««««««««««««««««««««««««««««««««««

Stored:	7/27/2018 - 8:31:32
Configured:	07/27/18 08:29:23 AM
Executed:	07/27/18 08:30:49 AM

»»»»»»»»»»»»»»»»»»»»»»»»»»»»»»»»»»» Sample Info ««««««««««««««««««««««««««««««««««««
Sample Name:	Internal Reference Cap.
Lot Name:	N/A
Wafer Name:	N/A
Die Row/Column:	0/0
Capacitor Number:	0
Sample Area (cm2):	6.20e-005
Sample Thickness (µm):	1.00e-001

Mux Loop Adjustment:	Disabled

Amplifier:	Internal

»»»»»»»»»»»»»»»»»»»»»»»»»»»»»»»»»»» Tester Info «««««««««««««««««««««««««««««««««««
Tester Name:	PPM21016-863
Tester Serial Number:	PPM21016-863
Return Signal Amp. Level:	1.79 [Index: 2]

»»»»»»»»»»»»»»»»»»»»»»»»»»»»»»»» Hysteresis Info ««««««««««««««««««««««««««««««««««
Task Name:	Hyst-1
Volts:	2.50
Field:	250.00 (kV/cm)
Hysteresis Period (ms):	2.00e+000
Preset:	Enabled
Preset Delay (ms):	1.00e+003
Profile:	Double Bipolar

»»»»»»»»»»»»»»»»»»»»»»»»»»»»»»»»»»»»»» Data «««««««««««««««««««««««««««««««««««««««
Points:	2001

Valid Data

Point	Time (ms)	Field (kV/cm)	Measured Polarization
   1	1.0000e-003	-0.259399	-31.010619
   2	2.0000e-003	1.113892	-31.136034
   3	3.0000e-003	1.907349	-30.943458
   4	4.0000e-003	2.822876	-31.080523
   5	5.0000e-003	4.180908	-30.912618
   6	6.0000e-003	4.760742	-30.968129
   7	7.0000e-003	5.851746	-30.929066
   8	8.0000e-003	6.774902	-31.148370
   9	9.0000e-003	7.904053	-30.720042
  10	1.0000e-002	9.239197	-30.834491
  11	1.1000e-002	9.567261	-30.753623
  12	1.2000e-002	10.795593	-30.871498
  13	1.3000e-002	12.016296	-30.569955
  14	1.4000e-002	13.008118	-30.879037
  15	1.5000e-002	13.885498	-30.696055
  16	1.6000e-002	14.663696	-30.689202
  17	1.7000e-002	16.075134	-30.567214
  18	1.8000e-002	16.784668	-30.604907
  19	1.9000e-002	17.929077	-30.609704
  20	2.0000e-002	18.417358	-30.217698
  21	2.1000e-002	20.301819	-30.545284
  22	2.2000e-002	20.935059	-30.468527
  23	2.3000e-002	22.071838	-30.473325
  24	2.4000e-002	23.193359	-30.258132
  25	2.5000e-002	23.582458	-30.273895
  26	2.6000e-002	24.841309	-30.323238
  27	2.7000e-002	26.023865	-30.280748
  28	2.8000e-002	26.840210	-30.381491
  29	2.9000e-002	27.931213	-30.116270
  30	3.0000e-002	28.808594	-30.151222
  31	3.1000e-002	29.876709	-30.125865
  32	3.2000e-002	31.127930	-30.071724
  33	3.3000e-002	31.669617	-29.934659
  34	3.4000e-002	33.187866	-30.107361
  35	3.5000e-002	34.065247	-30.004562
  36	3.6000e-002	34.591675	-30.020325
  37	3.7000e-002	35.873413	-29.922323
  38	3.8000e-002	36.849976	-29.825692
  39	3.9000e-002	37.910461	-29.829804
  40	4.0000e-002	38.833618	-29.766069
  41	4.1000e-002	39.756775	-29.746880
  42	4.2000e-002	41.374207	-29.742768
  43	4.3000e-002	41.908264	-29.466582
  44	4.4000e-002	43.151855	-29.746195
  45	4.5000e-002	43.830872	-29.624207
  46	4.6000e-002	44.906616	-29.398049
  47	4.7000e-002	46.073914	-29.591311
  48	4.8000e-002	46.745300	-29.404217
  49	4.9000e-002	48.103333	-29.445337
  50	5.0000e-002	48.912048	-29.286341
  51	5.1000e-002	49.949646	-29.404903
  52	5.2000e-002	50.926208	-29.269208
  53	5.3000e-002	51.872253	-29.247278
  54	5.4000e-002	53.268433	-29.287027
  55	5.5000e-002	54.039001	-29.116381
  56	5.6000e-002	54.893494	-29.199990
  57	5.7000e-002	55.686951	-28.993022
  58	5.8000e-002	56.869507	-28.960812
  59	5.9000e-002	57.800293	-29.099248
  60	6.0000e-002	58.662415	-28.757270
  61	6.1000e-002	60.050964	-28.929287
  62	6.2000e-002	61.149597	-28.763438
  63	6.3000e-002	61.767578	-28.690109
  64	6.4000e-002	63.171387	-28.735340
  65	6.5000e-002	63.835144	-28.516721
  66	6.6000e-002	65.528870	-28.587310
  67	6.7000e-002	66.047668	-28.638024
  68	6.8000e-002	66.810608	-28.501644
  69	6.9000e-002	67.916870	-28.511924
  70	7.0000e-002	68.679810	-28.298788
  71	7.1000e-002	69.831848	-28.300159
  72	7.2000e-002	71.060181	-28.426258
  73	7.3000e-002	71.876526	-28.287137
  74	7.4000e-002	73.066711	-28.161038
  75	7.5000e-002	73.966980	-28.383768
  76	7.6000e-002	74.737549	-28.043162
  77	7.7000e-002	76.042175	-27.938992
  78	7.8000e-002	76.858521	-27.859495
  79	7.9000e-002	77.453613	-27.876628
  80	8.0000e-002	79.025269	-27.696387
  81	8.1000e-002	79.948425	-27.734080
  82	8.2000e-002	80.596924	-27.627855
  83	8.3000e-002	82.351685	-27.688163
  84	8.4000e-002	82.748413	-27.699128
  85	8.5000e-002	83.938599	-27.470230
  86	8.6000e-002	84.999084	-27.507923
  87	8.7000e-002	85.334778	-27.479139
  88	8.8000e-002	87.074280	-27.462691
  89	8.9000e-002	88.134766	-27.559322
  90	9.0000e-002	88.493347	-27.159092
  91	9.1000e-002	89.447021	-27.171428
  92	9.2000e-002	90.965271	-27.101525
  93	9.3000e-002	92.163086	-26.571083
  94	9.4000e-002	92.803955	-27.029566
  95	9.5000e-002	94.268799	-27.101525
  96	9.6000e-002	95.115662	-26.756121
  97	9.7000e-002	96.023560	-26.791073
  98	9.8000e-002	97.137451	-26.712946
  99	9.9000e-002	97.938538	-26.588216
 100	1.0000e-001	98.579407	-26.322310
 101	1.0100e-001	100.189209	-26.675938
 102	1.0200e-001	100.265503	-26.187301
 103	1.0300e-001	102.424622	-26.596440
 104	1.0400e-001	102.989197	-26.385360
 105	1.0500e-001	103.790283	-26.089985
 106	1.0600e-001	104.957581	-26.324366
 107	1.0700e-001	106.124878	-26.074223
 108	1.0800e-001	106.636047	-25.706888
 109	1.0900e-001	107.925415	-25.907003
 110	1.1000e-001	109.115601	-25.737043
 111	1.1100e-001	109.962463	-25.640412
 112	1.1200e-001	111.015320	-25.578733
 113	1.1300e-001	111.465454	-25.246350
 114	1.1400e-001	113.365173	-25.515683
 115	1.1500e-001	113.822937	-25.316938
 116	1.1600e-001	115.005493	-25.115453
 117	1.1700e-001	116.294861	-25.488955
 118	1.1800e-001	116.798401	-25.048976
 119	1.1900e-001	118.095398	-24.964681
 120	1.2000e-001	119.132996	-24.787182
 121	1.2100e-001	120.010376	-24.770049
 122	1.2200e-001	120.933533	-24.690551
 123	1.2300e-001	122.154236	-24.566507
 124	1.2400e-001	123.191833	-24.691236
 125	1.2500e-001	124.099731	-24.423960
 126	1.2600e-001	125.221252	-24.345833
 127	1.2700e-001	125.724792	-24.062108
 128	1.2800e-001	127.037048	-23.986037
 129	1.2900e-001	127.899170	-24.000429
 130	1.3000e-001	129.119873	-23.644745
 131	1.3100e-001	129.913330	-23.753026
 132	1.3200e-001	130.844116	-23.619388
 133	1.3300e-001	131.622314	-23.587178
 134	1.3400e-001	132.804871	-23.365818
 135	1.3500e-001	134.056091	-23.417902
 136	1.3600e-001	135.185242	-23.102653
 137	1.3700e-001	136.276245	-23.160905
 138	1.3800e-001	136.596680	-22.840859
 139	1.3900e-001	137.702942	-23.109506
 140	1.4000e-001	138.877869	-22.683234
 141	1.4100e-001	140.037537	-22.500252
 142	1.4200e-001	140.945435	-22.507791
 143	1.4300e-001	141.868591	-22.252164
 144	1.4400e-001	143.173218	-22.147995
 145	1.4500e-001	144.340515	-22.091798
 146	1.4600e-001	144.996643	-21.826577
 147	1.4700e-001	146.110535	-21.863585
 148	1.4800e-001	147.476196	-21.751192
 149	1.4900e-001	147.705078	-21.437313
 150	1.5000e-001	148.834229	-21.162497
 151	1.5100e-001	150.161743	-21.414697
 152	1.5200e-001	150.779724	-20.862325
 153	1.5300e-001	151.863098	-21.012411
 154	1.5400e-001	152.809143	-20.853416
 155	1.5500e-001	153.816223	-20.602587
 156	1.5600e-001	154.968262	-20.516236
 157	1.5700e-001	155.914307	-20.309268
 158	1.5800e-001	156.806946	-20.218805
 159	1.5900e-001	158.798218	-20.217434
 160	1.6000e-001	158.927917	-19.717147
 161	1.6100e-001	159.706116	-19.660950
 162	1.6200e-001	160.850525	-19.891219
 163	1.6300e-001	162.399292	-19.320343
 164	1.6400e-001	162.986755	-19.220286
 165	1.6500e-001	163.795471	-19.027710
 166	1.6600e-001	165.130615	-18.891330
 167	1.6700e-001	165.199280	-18.582248
 168	1.6800e-001	167.045593	-18.530849
 169	1.6900e-001	167.961121	-18.308804
 170	1.7000e-001	168.144226	-18.151179
 171	1.7100e-001	170.501709	-18.199837
 172	1.7200e-001	170.455933	-17.604975
 173	1.7300e-001	171.417236	-17.709829
 174	1.7400e-001	172.805786	-17.495323
 175	1.7500e-001	173.446655	-17.084813
 176	1.7600e-001	174.850464	-17.182814
 177	1.7700e-001	175.537109	-16.603029
 178	1.7800e-001	177.001953	-16.646890
 179	1.7900e-001	177.787781	-16.341235
 180	1.8000e-001	179.260254	-16.184981
 181	1.8100e-001	179.817200	-15.948544
 182	1.8200e-001	181.304932	-16.087665
 183	1.8300e-001	181.793213	-15.349570
 184	1.8400e-001	183.097839	-15.363276
 185	1.8500e-001	183.830261	-15.060362
 186	1.8600e-001	184.783936	-14.886975
 187	1.8700e-001	186.058044	-14.334603
 188	1.8800e-001	186.622620	-14.463444
 189	1.8900e-001	187.583923	-14.166013
 190	1.9000e-001	189.064026	-13.898736
 191	1.9100e-001	190.116882	-13.764413
 192	1.9200e-001	191.223145	-13.664355
 193	1.9300e-001	191.856384	-13.118151
 194	1.9400e-001	193.016052	-13.003016
 195	1.9500e-001	193.695068	-12.335510
 196	1.9600e-001	195.220947	-12.476001
 197	1.9700e-001	195.861816	-12.094961
 198	1.9800e-001	197.082520	-12.027799
 199	1.9900e-001	198.005676	-11.494616
 200	2.0000e-001	199.020386	-11.439104
 201	2.0100e-001	199.737549	-11.151268
 202	2.0200e-001	200.904846	-10.754465
 203	2.0300e-001	201.904297	-10.538587
 204	2.0400e-001	203.033447	-10.312430
 205	2.0500e-001	203.460693	-9.901235
 206	2.0600e-001	204.803467	-9.524306
 207	2.0700e-001	205.841064	-9.431787
 208	2.0800e-001	206.825256	-9.126817
 209	2.0900e-001	207.489014	-8.873932
 210	2.1000e-001	208.984375	-8.314022
 211	2.1100e-001	210.105896	-8.220132
 212	2.1200e-001	210.975647	-8.043318
 213	2.1300e-001	212.371826	-7.453253
 214	2.1400e-001	212.852478	-7.142116
 215	2.1500e-001	213.775635	-6.856335
 216	2.1600e-001	215.110779	-6.445140
 217	2.1700e-001	215.476990	-6.022980
 218	2.1800e-001	216.987610	-5.938685
 219	2.1900e-001	218.338013	-5.763242
 220	2.2000e-001	218.734741	-5.211555
 221	2.2100e-001	219.993591	-4.865466
 222	2.2200e-001	221.023560	-4.579685
 223	2.2300e-001	222.000122	-4.229484
 224	2.2400e-001	223.045349	-3.788820
 225	2.2500e-001	224.166870	-3.276882
 226	2.2600e-001	224.967957	-3.066487
 227	2.2700e-001	225.799561	-2.660089
 228	2.2800e-001	226.165771	-2.088528
 229	2.2900e-001	228.088379	-1.904176
 230	2.3000e-001	228.569031	-1.546436
 231	2.3100e-001	229.804993	-1.082471
 232	2.3200e-001	230.888367	-0.575330
 233	2.3300e-001	231.285095	-0.212793
 234	2.3400e-001	233.093262	-0.006511
 235	2.3500e-001	233.749390	0.529414
 236	2.3600e-001	234.947205	0.941294
 237	2.3700e-001	235.923767	1.606745
 238	2.3800e-001	237.052917	1.819196
 239	2.3900e-001	238.090515	2.418170
 240	2.4000e-001	238.548279	2.972598
 241	2.4100e-001	240.287781	3.301554
 242	2.4200e-001	240.676880	3.770316
 243	2.4300e-001	242.027283	4.511153
 244	2.4400e-001	242.820740	4.956614
 245	2.4500e-001	243.705750	5.413726
 246	2.4600e-001	245.208740	5.963357
 247	2.4700e-001	245.849609	6.571925
 248	2.4800e-001	246.917725	7.102367
 249	2.4900e-001	247.955322	7.638291
 250	2.5000e-001	249.053955	8.214650
 251	2.5100e-001	248.954773	9.102831
 252	2.5200e-001	249.473572	9.151489
 253	2.5300e-001	247.848511	9.793639
 254	2.5400e-001	247.192383	10.349437
 255	2.5500e-001	245.964050	10.972398
 256	2.5600e-001	245.147705	11.075197
 257	2.5700e-001	243.980408	11.779026
 258	2.5800e-001	243.171692	12.101128
 259	2.5900e-001	242.416382	12.635682
 260	2.6000e-001	240.867615	13.126375
 261	2.6100e-001	239.646912	13.623236
 262	2.6200e-001	239.036560	14.026207
 263	2.6300e-001	238.059998	14.525809
 264	2.6400e-001	236.701965	14.873269
 265	2.6500e-001	235.832214	15.361905
 266	2.6600e-001	235.527039	15.658651
 267	2.6700e-001	233.879089	16.149344
 268	2.6800e-001	232.879639	16.413194
 269	2.6900e-001	231.956482	16.899090
 270	2.7000e-001	230.964661	17.230102
 271	2.7100e-001	229.888916	17.705717
 272	2.7200e-001	229.095459	17.981218
 273	2.7300e-001	227.828979	18.299894
 274	2.7400e-001	227.371216	18.857064
 275	2.7500e-001	226.463318	19.003723
 276	2.7600e-001	224.578857	19.529368
 277	2.7700e-001	224.143982	19.836393
 278	2.7800e-001	223.213196	19.922059
 279	2.7900e-001	221.855164	20.392192
 280	2.8000e-001	220.695496	20.891109
 281	2.8100e-001	220.237732	21.097391
 282	2.8200e-001	219.268799	21.553133
 283	2.8300e-001	217.430115	21.805332
 284	2.8400e-001	216.957092	22.242570
 285	2.8500e-001	216.003418	22.368670
 286	2.8600e-001	214.958191	22.705164
 287	2.8700e-001	213.867188	22.936804
 288	2.8800e-001	212.715149	23.177353
 289	2.8900e-001	211.883545	23.639262
 290	2.9000e-001	210.929871	23.961365
 291	2.9100e-001	209.983826	24.116249
 292	2.9200e-001	208.335876	24.557598
 293	2.9300e-001	208.145142	24.789923
 294	2.9400e-001	207.199097	25.011969
 295	2.9500e-001	205.963135	25.267595
 296	2.9600e-001	205.093384	25.502661
 297	2.9700e-001	203.910828	25.799407
 298	2.9800e-001	202.690125	26.044754
 299	2.9900e-001	201.965332	26.266114
 300	3.0000e-001	200.973511	26.518313
 301	3.0100e-001	200.370789	26.511460
 302	3.0200e-001	199.317932	27.104266
 303	3.0300e-001	197.860718	27.006265
 304	3.0400e-001	197.143555	27.651156
 305	3.0500e-001	196.113586	27.571658
 306	3.0600e-001	194.763184	27.840991
 307	3.0700e-001	193.992615	28.090449
 308	3.0800e-001	193.168640	28.288508
 309	3.0900e-001	192.146301	28.250815
 310	3.1000e-001	190.788269	28.753844
 311	3.1100e-001	190.101624	28.919693
 312	3.1200e-001	188.743591	29.196564
 313	3.1300e-001	187.797546	29.275376
 314	3.1400e-001	186.981201	29.496736
 315	3.1500e-001	185.813904	29.635857
 316	3.1600e-001	184.814453	29.821580
 317	3.1700e-001	184.226990	29.994968
 318	3.1800e-001	182.640076	30.104620
 319	3.1900e-001	182.029724	30.327350
 320	3.2000e-001	181.259155	30.515129
 321	3.2100e-001	179.817200	30.615872
 322	3.2200e-001	179.115295	30.875610
 323	3.2300e-001	178.031921	30.983206
 324	3.2400e-001	176.895142	31.319016
 325	3.2500e-001	175.926208	31.253910
 326	3.2600e-001	174.568176	31.488291
 327	3.2700e-001	173.736572	31.688406
 328	3.2800e-001	172.752380	31.779554
 329	3.2900e-001	172.027588	31.715134
 330	3.3000e-001	170.829773	32.110566
 331	3.3100e-001	169.967651	32.094119
 332	3.3200e-001	168.968201	32.305199
 333	3.3300e-001	167.808533	32.373046
 334	3.3400e-001	166.931152	32.670477
 335	3.3500e-001	165.908813	32.595777
 336	3.3600e-001	164.855957	32.764366
 337	3.3700e-001	164.245605	32.816451
 338	3.3800e-001	162.391663	32.981615
 339	3.3900e-001	161.880493	33.065224
 340	3.4000e-001	161.064148	33.176932
 341	3.4100e-001	160.041809	33.250262
 342	3.4200e-001	159.309387	33.493552
 343	3.4300e-001	157.936096	33.568938
 344	3.4400e-001	156.883240	33.601148
 345	3.4500e-001	155.792236	33.739584
 346	3.4600e-001	154.922485	33.766997
 347	3.4700e-001	153.831482	33.897209
 348	3.4800e-001	152.709961	33.764256
 349	3.4900e-001	151.901245	34.181619
 350	3.5000e-001	150.955200	34.076764
 351	3.5100e-001	150.047302	34.210403
 352	3.5200e-001	149.139404	34.286474
 353	3.5300e-001	147.811890	34.362545
 354	3.5400e-001	147.148132	34.493442
 355	3.5500e-001	145.858765	34.476994
 356	3.5600e-001	144.668579	34.551009
 357	3.5700e-001	144.050598	34.662717
 358	3.5800e-001	142.913818	34.838160
 359	3.5900e-001	141.548157	34.642157
 360	3.6000e-001	140.724182	34.916287
 361	3.6100e-001	140.068054	34.858720
 362	3.6200e-001	138.694763	35.057464
 363	3.6300e-001	137.870789	35.026625
 364	3.6400e-001	136.947632	35.088304
 365	3.6500e-001	135.688782	35.178082
 366	3.6600e-001	134.674072	35.226740
 367	3.6700e-001	133.689880	35.298014
 368	3.6800e-001	132.698059	35.335706
 369	3.6900e-001	131.958008	35.315832
 370	3.7000e-001	130.722046	35.435079
 371	3.7100e-001	129.600525	35.886708
 372	3.7200e-001	129.150391	35.384364
 373	3.7300e-001	128.181458	35.650956
 374	3.7400e-001	127.006531	35.616004
 375	3.7500e-001	126.075745	35.621487
 376	3.7600e-001	125.495911	35.472086
 377	3.7700e-001	124.114990	35.766091
 378	3.7800e-001	122.718811	35.760608
 379	3.7900e-001	121.780396	35.809266
 380	3.8000e-001	121.246338	35.833938
 381	3.8100e-001	119.834900	35.887393
 382	3.8200e-001	118.980408	35.944275
 383	3.8300e-001	117.736816	35.963464
 384	3.8400e-001	117.179871	35.951128
 385	3.8500e-001	116.081238	35.896988
 386	3.8600e-001	114.631653	35.939478
 387	3.8700e-001	114.044189	35.954555
 388	3.8800e-001	112.968445	36.110809
 389	3.8900e-001	111.694336	35.975115
 390	3.9000e-001	110.885620	36.010752
 391	3.9100e-001	110.015869	36.039535
 392	3.9200e-001	108.856201	36.133425
 393	3.9300e-001	107.864380	36.123145
 394	3.9400e-001	107.063293	36.346561
 395	3.9500e-001	105.911255	35.982653
 396	3.9600e-001	104.797363	36.040221
 397	3.9700e-001	103.851318	36.156041
 398	3.9800e-001	102.905273	36.199901
 399	3.9900e-001	101.867676	36.191677
 400	4.0000e-001	101.005554	36.209496
 401	4.0100e-001	99.327087	36.425373
 402	4.0200e-001	99.174500	36.153985
 403	4.0300e-001	98.213196	36.291735
 404	4.0400e-001	96.900940	36.007325
 405	4.0500e-001	95.893860	36.204699
 406	4.0600e-001	95.008850	36.160153
 407	4.0700e-001	93.833923	36.190992
 408	4.0800e-001	92.788696	36.253357
 409	4.0900e-001	91.217041	36.268434
 410	4.1000e-001	90.797424	36.206069
 411	4.1100e-001	89.897156	36.298588
 412	4.1200e-001	89.187622	36.168376
 413	4.1300e-001	87.951660	36.230056
 414	4.1400e-001	86.975098	36.204699
 415	4.1500e-001	86.082458	36.193733
 416	4.1600e-001	84.983826	36.171118
 417	4.1700e-001	83.969116	35.958667
 418	4.1800e-001	83.435059	36.201957
 419	4.1900e-001	81.863403	36.073802
 420	4.2000e-001	81.100464	36.089564
 421	4.2100e-001	80.162048	36.253357
 422	4.2200e-001	78.903198	36.051186
 423	4.2300e-001	77.896118	36.158782
 424	4.2400e-001	76.950073	36.029941
 425	4.2500e-001	76.080322	35.993619
 426	4.2600e-001	75.042725	35.933995
 427	4.2700e-001	73.852539	36.123830
 428	4.2800e-001	73.036194	36.020346
 429	4.2900e-001	71.907043	36.182083
 430	4.3000e-001	70.938110	36.045018
 431	4.3100e-001	70.037842	36.085452
 432	4.3200e-001	69.046021	35.992248
 433	4.3300e-001	67.955017	36.067634
 434	4.3400e-001	67.024231	35.844903
 435	4.3500e-001	65.971375	35.884652
 436	4.3600e-001	65.216064	35.877113
 437	4.3700e-001	63.949585	35.921659
 438	4.3800e-001	63.133240	35.879855
 439	4.3900e-001	61.759949	35.851756
 440	4.4000e-001	60.958862	35.636564
 441	4.4100e-001	60.119629	36.039535
 442	4.4200e-001	59.005737	35.674257
 443	4.4300e-001	57.929993	35.843532
 444	4.4400e-001	57.205200	35.775000
 445	4.4500e-001	55.740356	35.701670
 446	4.4600e-001	54.870605	35.601613
 447	4.4700e-001	53.642273	35.736622
 448	4.4800e-001	53.245544	35.711950
 449	4.4900e-001	51.948547	35.735251
 450	4.5000e-001	50.987244	35.609151
 451	4.5100e-001	50.102234	35.694131
 452	4.5200e-001	49.362183	35.490590
 453	4.5300e-001	47.981262	35.504296
 454	4.5400e-001	46.821594	35.494016
 455	4.5500e-001	46.241760	35.388476
 456	4.5600e-001	44.944763	35.411777
 457	4.5700e-001	43.853760	35.389847
 458	4.5800e-001	43.159485	35.366546
 459	4.5900e-001	42.221069	35.382308
 460	4.6000e-001	41.000366	35.317888
 461	4.6100e-001	39.787292	35.376141
 462	4.6200e-001	38.871765	35.256894
 463	4.6300e-001	38.024902	35.226054
 464	4.6400e-001	37.048340	35.197271
 465	4.6500e-001	35.873413	35.167116
 466	4.6600e-001	34.835815	35.117773
 467	4.6700e-001	34.240723	35.148613
 468	4.6800e-001	32.814026	35.014289
 469	4.6900e-001	31.692505	34.986191
 470	4.7000e-001	31.181335	34.927253
 471	4.7100e-001	29.930115	34.987561
 472	4.7200e-001	28.846741	34.858035
 473	4.7300e-001	27.595520	34.814859
 474	4.7400e-001	27.038574	34.802523
 475	4.7500e-001	25.947571	34.921085
 476	4.7600e-001	24.696350	34.607891
 477	4.7700e-001	23.620605	34.871056
 478	4.7800e-001	23.193359	34.754551
 479	4.7900e-001	22.048950	34.667514
 480	4.8000e-001	20.942688	34.618856
 481	4.8100e-001	20.034790	34.564030
 482	4.8200e-001	19.134521	34.626395
 483	4.8300e-001	18.409729	34.518114
 484	4.8400e-001	16.830444	34.461917
 485	4.8500e-001	16.174316	34.439301
 486	4.8600e-001	14.945984	34.361859
 487	4.8700e-001	13.679504	34.400923
 488	4.8800e-001	13.076782	34.482477
 489	4.8900e-001	12.001038	34.310460
 490	4.9000e-001	11.291504	34.204920
 491	4.9100e-001	10.437012	34.235074
 492	4.9200e-001	8.880615	34.169968
 493	4.9300e-001	8.262634	33.989728
 494	4.9400e-001	6.813049	34.196696
 495	4.9500e-001	6.072998	34.134331
 496	4.9600e-001	4.699707	34.071282
 497	4.9700e-001	3.997803	34.114457
 498	4.9800e-001	2.792358	34.067170
 499	4.9900e-001	2.082825	33.997952
 500	5.0000e-001	0.991821	33.890356
 501	5.0100e-001	0.190735	33.899265
 502	5.0200e-001	-0.930786	33.827991
 503	5.0300e-001	-2.159119	33.784130
 504	5.0400e-001	-2.998352	33.762885
 505	5.0500e-001	-3.982544	33.689555
 506	5.0600e-001	-4.661560	33.723822
 507	5.0700e-001	-5.920410	33.671052
 508	5.0800e-001	-6.919861	33.634729
 509	5.0900e-001	-7.766724	33.600463
 510	5.1000e-001	-9.216309	33.780704
 511	5.1100e-001	-10.101318	33.554546
 512	5.1200e-001	-11.077881	33.412684
 513	5.1300e-001	-11.512756	33.306459
 514	5.1400e-001	-12.901306	33.556602
 515	5.1500e-001	-14.144897	33.396922
 516	5.1600e-001	-14.953613	33.388012
 517	5.1700e-001	-16.242981	33.383215
 518	5.1800e-001	-17.288208	33.453804
 519	5.1900e-001	-17.951965	33.202289
 520	5.2000e-001	-19.027710	33.183100
 521	5.2100e-001	-19.676208	33.054259
 522	5.2200e-001	-21.026611	33.101546
 523	5.2300e-001	-21.865845	33.052203
 524	5.2400e-001	-23.063660	33.078245
 525	5.2500e-001	-23.880005	32.933642
 526	5.2600e-001	-25.001526	33.070707
 527	5.2700e-001	-26.054382	32.969964
 528	5.2800e-001	-26.245117	32.949404
 529	5.2900e-001	-27.954102	32.918565
 530	5.3000e-001	-28.999329	32.808913
 531	5.3100e-001	-29.937744	32.785612
 532	5.3200e-001	-30.937195	32.798633
 533	5.3300e-001	-32.043457	32.666365
 534	5.3400e-001	-32.844543	32.664309
 535	5.3500e-001	-33.676147	32.540951
 536	5.3600e-001	-34.713745	32.562881
 537	5.3700e-001	-36.163330	32.438837
 538	5.3800e-001	-36.781311	32.606056
 539	5.3900e-001	-38.002014	32.369619
 540	5.4000e-001	-39.115906	32.364822
 541	5.4100e-001	-39.787292	32.309996
 542	5.4200e-001	-40.977478	32.317535
 543	5.4300e-001	-41.488647	32.105769
 544	5.4400e-001	-43.304443	32.332612
 545	5.4500e-001	-43.998718	32.209938
 546	5.4600e-001	-44.731140	32.100972
 547	5.4700e-001	-45.913696	32.187323
 548	5.4800e-001	-47.225952	31.966648
 549	5.4900e-001	-48.019409	32.017362
 550	5.5000e-001	-48.965454	31.996117
 551	5.5100e-001	-49.903870	31.865905
 552	5.5200e-001	-51.292419	31.885780
 553	5.5300e-001	-52.116394	31.745288
 554	5.5400e-001	-52.818298	31.765848
 555	5.5500e-001	-54.084778	31.748029
 556	5.5600e-001	-55.068970	31.627412
 557	5.5700e-001	-55.694580	31.619188
 558	5.5800e-001	-56.686401	31.484864
 559	5.5900e-001	-57.792664	31.544488
 560	5.6000e-001	-59.082031	31.473214
 561	5.6100e-001	-59.875488	31.412905
 562	5.6200e-001	-60.768127	31.427982
 563	5.6300e-001	-62.026978	31.240889
 564	5.6400e-001	-63.072205	31.391660
 565	5.6500e-001	-63.728333	31.194287
 566	5.6600e-001	-64.422607	31.182636
 567	5.6700e-001	-65.910339	31.173042
 568	5.6800e-001	-66.963196	31.055851
 569	5.6900e-001	-67.443848	31.053795
 570	5.7000e-001	-68.862915	30.961276
 571	5.7100e-001	-69.984436	30.914674
 572	5.7200e-001	-71.166992	30.931807
 573	5.7300e-001	-72.151184	30.759790
 574	5.7400e-001	-72.944641	30.717300
 575	5.7500e-001	-73.905945	30.776924
 576	5.7600e-001	-74.798584	30.595312
 577	5.7700e-001	-75.798035	30.695370
 578	5.7800e-001	-77.209473	30.538430
 579	5.7900e-001	-78.056335	30.527465
 580	5.8000e-001	-78.979492	30.368470
 581	5.8100e-001	-79.643250	30.305420
 582	5.8200e-001	-80.986023	30.442485
 583	5.8300e-001	-82.122803	30.179320
 584	5.8400e-001	-82.954407	30.195768
 585	5.8500e-001	-84.205627	30.220440
 586	5.8600e-001	-85.021973	29.973037
 587	5.8700e-001	-86.059570	30.012786
 588	5.8800e-001	-87.165833	29.827063
 589	5.8900e-001	-87.623596	29.761272
 590	5.9000e-001	-88.836670	29.738656
 591	5.9100e-001	-89.881897	29.595423
 592	5.9200e-001	-90.782166	29.618724
 593	5.9300e-001	-92.048645	29.479603
 594	5.9400e-001	-92.933655	29.557730
 595	5.9500e-001	-94.070435	29.419980
 596	5.9600e-001	-94.352722	29.239739
 597	5.9700e-001	-95.855713	29.310328
 598	5.9800e-001	-97.084045	29.211641
 599	5.9900e-001	-97.610474	29.108842
 600	6.0000e-001	-98.976135	28.975889
 601	6.0100e-001	-100.021362	28.919693
 602	6.0200e-001	-100.982666	28.847733
 603	6.0300e-001	-102.050781	28.707242
 604	6.0400e-001	-102.798462	28.652416
 605	6.0500e-001	-103.752136	28.840880
 606	6.0600e-001	-105.049133	28.398160
 607	6.0700e-001	-106.071472	28.485882
 608	6.0800e-001	-106.552124	28.240535
 609	6.0900e-001	-108.001709	28.296732
 610	6.1000e-001	-108.718872	27.953384
 611	6.1100e-001	-109.725952	28.037679
 612	6.1200e-001	-110.900879	28.046588
 613	6.1300e-001	-111.907959	27.964349
 614	6.1400e-001	-112.518311	27.884166
 615	6.1500e-001	-114.013672	27.583994
 616	6.1600e-001	-114.974976	27.720374
 617	6.1700e-001	-115.806580	27.535336
 618	6.1800e-001	-116.699219	27.327682
 619	6.1900e-001	-118.087769	27.315346
 620	6.2000e-001	-118.751526	27.211862
 621	6.2100e-001	-120.002747	27.018601
 622	6.2200e-001	-120.887756	26.985020
 623	6.2300e-001	-121.841431	26.856179
 624	6.2400e-001	-123.016357	26.797926
 625	6.2500e-001	-123.901367	26.698554
 626	6.2600e-001	-124.855042	26.475138
 627	6.2700e-001	-126.060486	26.573139
 628	6.2800e-001	-127.044678	26.368227
 629	6.2900e-001	-127.632141	26.251036
 630	6.3000e-001	-128.921509	25.967312
 631	6.3100e-001	-129.943848	26.109174
 632	6.3200e-001	-130.821228	25.874793
 633	6.3300e-001	-132.102966	25.828191
 634	6.3400e-001	-133.209229	25.728133
 635	6.3500e-001	-133.972168	25.799407
 636	6.3600e-001	-134.902954	25.335442
 637	6.3700e-001	-136.253357	25.332701
 638	6.3800e-001	-136.833191	25.032528
 639	6.3900e-001	-138.061523	25.074333
 640	6.4000e-001	-138.877869	24.885869
 641	6.4100e-001	-139.991760	24.661082
 642	6.4200e-001	-140.876770	24.648746
 643	6.4300e-001	-141.654968	24.600774
 644	6.4400e-001	-142.829895	24.319105
 645	6.4500e-001	-143.974304	24.282783
 646	6.4600e-001	-145.095825	24.050457
 647	6.4700e-001	-145.812988	23.937379
 648	6.4800e-001	-147.132874	23.809908
 649	6.4900e-001	-147.796631	23.541261
 650	6.5000e-001	-148.849487	23.443945
 651	6.5100e-001	-150.268555	23.291117
 652	6.5200e-001	-150.650024	23.070443
 653	6.5300e-001	-151.779175	22.926524
 654	6.5400e-001	-152.931213	22.819614
 655	6.5500e-001	-153.793335	22.744913
 656	6.5600e-001	-155.128479	22.348110
 657	6.5700e-001	-155.746460	22.290543
 658	6.5800e-001	-157.165527	22.190485
 659	6.5900e-001	-157.875061	21.931432
 660	6.6000e-001	-158.729553	21.647708
 661	6.6100e-001	-159.912109	21.675806
 662	6.6200e-001	-161.010742	21.416753
 663	6.6300e-001	-161.834717	21.313954
 664	6.6400e-001	-162.574768	21.014467
 665	6.6500e-001	-164.062500	20.893165
 666	6.6600e-001	-165.092468	20.676602
 667	6.6700e-001	-166.107178	20.503900
 668	6.6800e-001	-167.129517	20.157811
 669	6.6900e-001	-168.617249	20.133824
 670	6.7000e-001	-168.960571	19.852156
 671	6.7100e-001	-169.822693	19.480024
 672	6.7200e-001	-170.631409	19.492360
 673	6.7300e-001	-172.004700	19.237419
 674	6.7400e-001	-173.240662	18.964660
 675	6.7500e-001	-173.881531	18.780307
 676	6.7600e-001	-174.835205	18.522625
 677	6.7700e-001	-175.956726	18.153235
 678	6.7800e-001	-176.887512	18.133360
 679	6.7900e-001	-177.734375	17.878419
 680	6.8000e-001	-179.054260	17.513826
 681	6.8100e-001	-180.023193	17.429531
 682	6.8200e-001	-180.870056	17.215025
 683	6.8300e-001	-182.258606	16.930615
 684	6.8400e-001	-182.662964	16.685268
 685	6.8500e-001	-183.883667	16.462538
 686	6.8600e-001	-185.089111	16.021188
 687	6.8700e-001	-185.874939	15.895774
 688	6.8800e-001	-186.637878	15.546943
 689	6.8900e-001	-188.278198	15.331066
 690	6.9000e-001	-189.270020	15.213875
 691	6.9100e-001	-189.613342	14.727980
 692	6.9200e-001	-191.482544	14.743057
 693	6.9300e-001	-191.650391	14.175608
 694	6.9400e-001	-193.061829	14.085830
 695	6.9500e-001	-194.137573	13.791140
 696	6.9600e-001	-194.915771	13.441624
 697	6.9700e-001	-196.014404	13.040024
 698	6.9800e-001	-196.899414	12.912553
 699	6.9900e-001	-197.586060	12.576059
 700	7.0000e-001	-198.974609	12.295761
 701	7.0100e-001	-200.309753	11.975029
 702	7.0200e-001	-201.164246	11.833166
 703	7.0300e-001	-201.889038	11.298613
 704	7.0400e-001	-203.353882	11.038189
 705	7.0500e-001	-203.742981	10.622197
 706	7.0600e-001	-204.826355	10.507748
 707	7.0700e-001	-206.031799	10.102720
 708	7.0800e-001	-206.993103	9.705232
 709	7.0900e-001	-208.053589	9.487984
 710	7.1000e-001	-209.465027	9.195350
 711	7.1100e-001	-209.716797	8.852687
 712	7.1200e-001	-211.051941	8.492892
 713	7.1300e-001	-212.333679	8.196146
 714	7.1400e-001	-213.081360	7.776042
 715	7.1500e-001	-213.836670	7.423784
 716	7.1600e-001	-214.904785	6.923497
 717	7.1700e-001	-216.110229	6.778894
 718	7.1800e-001	-216.735840	6.333432
 719	7.1900e-001	-217.712402	6.014071
 720	7.2000e-001	-218.788147	5.476776
 721	7.2100e-001	-219.650269	5.190995
 722	7.2200e-001	-221.138000	5.069693
 723	7.2300e-001	-221.824646	4.295275
 724	7.2400e-001	-222.961426	4.003327
 725	7.2500e-001	-224.243164	3.622971
 726	7.2600e-001	-224.754333	3.230280
 727	7.2700e-001	-225.509644	2.579221
 728	7.2800e-001	-227.111816	2.442841
 729	7.2900e-001	-228.118896	2.034388
 730	7.3000e-001	-229.187012	1.649920
 731	7.3100e-001	-230.186462	1.142780
 732	7.3200e-001	-230.979919	0.735697
 733	7.3300e-001	-231.872559	0.177157
 734	7.3400e-001	-233.039856	-0.110680
 735	7.3500e-001	-233.337402	-0.805600
 736	7.3600e-001	-235.137939	-1.066709
 737	7.3700e-001	-236.167908	-1.507373
 738	7.3800e-001	-236.137390	-2.301664
 739	7.3900e-001	-238.624573	-2.467513
 740	7.4000e-001	-239.181519	-2.971912
 741	7.4100e-001	-239.730835	-3.472200
 742	7.4200e-001	-241.043091	-3.969060
 743	7.4300e-001	-242.080688	-4.463865
 744	7.4400e-001	-243.293762	-4.860668
 745	7.4500e-001	-243.957520	-5.475405
 746	7.4600e-001	-245.040894	-5.951021
 747	7.4700e-001	-246.002197	-6.623325
 748	7.4800e-001	-246.833801	-7.083863
 749	7.4900e-001	-247.825623	-7.612249
 750	7.5000e-001	-248.870850	-8.189293
 751	7.5100e-001	-249.748230	-8.767707
 752	7.5200e-001	-248.832703	-9.030187
 753	7.5300e-001	-247.947693	-9.824478
 754	7.5400e-001	-247.009277	-10.175365
 755	7.5500e-001	-245.697021	-10.798325
 756	7.5600e-001	-244.812012	-11.046413
 757	7.5700e-001	-244.239807	-11.532994
 758	7.5800e-001	-242.401123	-11.980511
 759	7.5900e-001	-242.027283	-12.365664
 760	7.6000e-001	-241.195679	-12.683655
 761	7.6100e-001	-239.532471	-13.401190
 762	7.6200e-001	-239.364624	-13.423121
 763	7.6300e-001	-237.899780	-14.087886
 764	7.6400e-001	-236.633301	-14.405192
 765	7.6500e-001	-236.038208	-14.755393
 766	7.6600e-001	-234.916687	-15.146713
 767	7.6700e-001	-233.825684	-15.474984
 768	7.6800e-001	-232.864380	-15.980069
 769	7.6900e-001	-231.887817	-16.238436
 770	7.7000e-001	-230.781555	-16.696919
 771	7.7100e-001	-229.728699	-16.908684
 772	7.7200e-001	-229.019165	-17.223249
 773	7.7300e-001	-227.806091	-17.701605
 774	7.7400e-001	-226.760864	-18.005204
 775	7.7500e-001	-225.990295	-18.280705
 776	7.7600e-001	-224.525452	-18.715201
 777	7.7700e-001	-224.357605	-19.046213
 778	7.7800e-001	-223.106384	-19.220286
 779	7.7900e-001	-221.633911	-19.559522
 780	7.8000e-001	-221.221924	-19.867233
 781	7.8100e-001	-219.917297	-20.203728
 782	7.8200e-001	-218.505859	-20.427143
 783	7.8300e-001	-218.414307	-20.745820
 784	7.8400e-001	-217.414856	-20.984313
 785	7.8500e-001	-215.888977	-21.292709
 786	7.8600e-001	-214.843750	-21.621665
 787	7.8700e-001	-214.019775	-21.891683
 788	7.8800e-001	-212.844849	-22.202136
 789	7.8900e-001	-211.990356	-22.235717
 790	7.9000e-001	-211.044312	-22.713388
 791	7.9100e-001	-209.907532	-23.054680
 792	7.9200e-001	-209.098816	-23.207508
 793	7.9300e-001	-208.114624	-23.449427
 794	7.9400e-001	-206.321716	-23.772215
 795	7.9500e-001	-206.069946	-23.864049
 796	7.9600e-001	-205.024719	-24.097060
 797	7.9700e-001	-203.758240	-24.319790
 798	7.9800e-001	-202.911377	-24.550059
 799	7.9900e-001	-201.759338	-24.778273
 800	8.0000e-001	-201.087952	-24.952345
 801	8.0100e-001	-199.920654	-25.143551
 802	8.0200e-001	-198.822021	-25.393009
 803	8.0300e-001	-197.784424	-25.647265
 804	8.0400e-001	-196.769714	-25.848751
 805	8.0500e-001	-196.174622	-26.028306
 806	8.0600e-001	-194.465637	-26.318198
 807	8.0700e-001	-194.267273	-26.269540
 808	8.0800e-001	-192.497253	-26.776681
 809	8.0900e-001	-192.123413	-26.755436
 810	8.1000e-001	-191.040039	-26.908263
 811	8.1100e-001	-190.086365	-27.085077
 812	8.1200e-001	-188.659668	-27.242702
 813	8.1300e-001	-188.003540	-27.472971
 814	8.1400e-001	-186.889648	-27.780682
 815	8.1500e-001	-186.073303	-27.731339
 816	8.1600e-001	-184.806824	-27.870460
 817	8.1700e-001	-184.066772	-28.030140
 818	8.1800e-001	-183.654785	-28.024658
 819	8.1900e-001	-182.205200	-28.232997
 820	8.2000e-001	-181.083679	-28.564694
 821	8.2100e-001	-179.779053	-28.657898
 822	8.2200e-001	-178.733826	-28.915581
 823	8.2300e-001	-177.909851	-29.028659
 824	8.2400e-001	-177.101135	-29.050590
 825	8.2500e-001	-176.055908	-29.184913
 826	8.2600e-001	-174.804688	-29.379546
 827	8.2700e-001	-174.499512	-29.291824
 828	8.2800e-001	-172.874451	-29.594052
 829	8.2900e-001	-171.188354	-29.784573
 830	8.3000e-001	-170.959473	-29.693425
 831	8.3100e-001	-170.028687	-30.012101
 832	8.3200e-001	-169.052124	-29.946310
 833	8.3300e-001	-168.075562	-30.120382
 834	8.3400e-001	-166.587830	-30.210845
 835	8.3500e-001	-166.107178	-30.400680
 836	8.3600e-001	-164.703369	-30.596683
 837	8.3700e-001	-163.917542	-30.548710
 838	8.3800e-001	-162.887573	-30.744028
 839	8.3900e-001	-161.903381	-30.582291
 840	8.4000e-001	-160.903931	-30.957164
 841	8.4100e-001	-159.240723	-31.186063
 842	8.4200e-001	-159.301758	-31.051054
 843	8.4300e-001	-158.180237	-31.144943
 844	8.4400e-001	-156.478882	-31.469787
 845	8.4500e-001	-156.227112	-31.158650
 846	8.4600e-001	-155.044556	-31.313533
 847	8.4700e-001	-153.854370	-31.321072
 848	8.4800e-001	-153.343201	-31.562306
 849	8.4900e-001	-152.160645	-31.541061
 850	8.5000e-001	-150.863647	-31.706910
 851	8.5100e-001	-150.382996	-31.866591
 852	8.5200e-001	-149.696350	-31.808338
 853	8.5300e-001	-147.773743	-32.081097
 854	8.5400e-001	-147.399902	-31.853569
 855	8.5500e-001	-146.095276	-32.013935
 856	8.5600e-001	-144.546509	-32.227757
 857	8.5700e-001	-144.416809	-32.139350
 858	8.5800e-001	-142.654419	-32.331241
 859	8.5900e-001	-141.868591	-32.342892
 860	8.6000e-001	-141.159058	-32.268876
 861	8.6100e-001	-140.014648	-32.343577
 862	8.6200e-001	-138.862610	-32.425816
 863	8.6300e-001	-138.427734	-32.436096
 864	8.6400e-001	-136.367798	-32.938439
 865	8.6500e-001	-136.444092	-32.271618
 866	8.6600e-001	-135.086060	-32.706114
 867	8.6700e-001	-133.766174	-32.609483
 868	8.6800e-001	-133.010864	-32.710911
 869	8.6900e-001	-132.041931	-32.599888
 870	8.7000e-001	-130.996704	-32.822619
 871	8.7100e-001	-130.241394	-32.774646
 872	8.7200e-001	-128.936768	-32.802745
 873	8.7300e-001	-128.219604	-32.797262
 874	8.7400e-001	-126.678467	-32.957628
 875	8.7500e-001	-126.243591	-32.791779
 876	8.7600e-001	-124.618530	-33.067966
 877	8.7700e-001	-124.069214	-32.727359
 878	8.7800e-001	-122.817993	-33.135813
 879	8.7900e-001	-121.902466	-32.966537
 880	8.8000e-001	-121.063232	-32.987097
 881	8.8100e-001	-119.979858	-33.152946
 882	8.8200e-001	-119.018555	-33.067280
 883	8.8300e-001	-118.087769	-33.041238
 884	8.8400e-001	-117.034912	-33.154316
 885	8.8500e-001	-116.043091	-33.093323
 886	8.8600e-001	-114.959717	-33.120050
 887	8.8700e-001	-114.547729	-33.196807
 888	8.8800e-001	-113.204956	-33.069336
 889	8.8900e-001	-111.610413	-33.293437
 890	8.9000e-001	-111.763000	-33.313312
 891	8.9100e-001	-110.137939	-33.214625
 892	8.9200e-001	-108.955383	-33.205716
 893	8.9300e-001	-107.917786	-33.274248
 894	8.9400e-001	-106.987000	-33.274248
 895	8.9500e-001	-106.315613	-33.106344
 896	8.9600e-001	-105.148315	-33.205716
 897	8.9700e-001	-103.584290	-33.267395
 898	8.9800e-001	-102.798462	-33.224220
 899	8.9900e-001	-102.058411	-33.283843
 900	9.0000e-001	-100.959778	-33.257115
 901	9.0100e-001	-99.617004	-33.293437
 902	9.0200e-001	-99.281311	-33.205716
 903	9.0300e-001	-97.999573	-33.257115
 904	9.0400e-001	-96.702576	-33.277675
 905	9.0500e-001	-95.848083	-33.229017
 906	9.0600e-001	-94.886780	-33.035070
 907	9.0700e-001	-93.978882	-33.295493
 908	9.0800e-001	-93.055725	-33.276990
 909	9.0900e-001	-92.269897	-33.238611
 910	9.1000e-001	-91.346741	-32.930215
 911	9.1100e-001	-89.248657	-33.603204
 912	9.1200e-001	-88.539124	-33.187212
 913	9.1300e-001	-88.317871	-33.086469
 914	9.1400e-001	-87.196350	-33.198863
 915	9.1500e-001	-86.120605	-33.150205
 916	9.1600e-001	-85.327148	-33.206401
 917	9.1700e-001	-84.381104	-33.137183
 918	9.1800e-001	-82.878113	-33.183785
 919	9.1900e-001	-81.443787	-33.223534
 920	9.2000e-001	-80.673218	-33.106344
 921	9.2100e-001	-80.200195	-33.141981
 922	9.2200e-001	-79.040527	-33.011769
 923	9.2300e-001	-77.484131	-33.391439
 924	9.2400e-001	-77.491760	-32.924733
 925	9.2500e-001	-76.103210	-33.069336
 926	9.2600e-001	-74.935913	-33.087840
 927	9.2700e-001	-73.715210	-32.985041
 928	9.2800e-001	-73.265076	-32.932956
 929	9.2900e-001	-71.983337	-32.907599
 930	9.3000e-001	-70.777893	-32.891152
 931	9.3100e-001	-70.159912	-33.104973
 932	9.3200e-001	-68.817139	-32.776017
 933	9.3300e-001	-68.122864	-32.590294
 934	9.3400e-001	-66.696167	-33.043294
 935	9.3500e-001	-66.146851	-32.719820
 936	9.3600e-001	-64.926147	-32.591665
 937	9.3700e-001	-63.850403	-32.714338
 938	9.3800e-001	-62.896729	-32.717764
 939	9.3900e-001	-61.996460	-32.777388
 940	9.4000e-001	-60.928345	-32.645120
 941	9.4100e-001	-59.867859	-32.636211
 942	9.4200e-001	-58.967590	-32.573846
 943	9.4300e-001	-57.876587	-32.640323
 944	9.4400e-001	-57.113647	-32.478586
 945	9.4500e-001	-56.106567	-32.349745
 946	9.4600e-001	-55.297852	-32.585497
 947	9.4700e-001	-54.496765	-32.206512
 948	9.4800e-001	-52.917480	-32.397032
 949	9.4900e-001	-52.169800	-32.325758
 950	9.5000e-001	-50.941467	-32.309996
 951	9.5100e-001	-50.140381	-32.291492
 952	9.5200e-001	-48.782349	-32.228442
 953	9.5300e-001	-47.317505	-32.319590
 954	9.5400e-001	-46.768188	-32.172931
 955	9.5500e-001	-45.944214	-32.204456
 956	9.5600e-001	-44.372559	-32.168819
 957	9.5700e-001	-44.128418	-32.052999
 958	9.5800e-001	-42.984009	-32.078356
 959	9.5900e-001	-41.770935	-32.146889
 960	9.6000e-001	-41.007996	-31.905654
 961	9.6100e-001	-40.336609	-32.179784
 962	9.6200e-001	-39.070129	-31.837807
 963	9.6300e-001	-37.994385	-31.845345
 964	9.6400e-001	-37.094116	-31.821359
 965	9.6500e-001	-36.148071	-31.859737
 966	9.6600e-001	-34.820557	-31.748029
 967	9.6700e-001	-33.973694	-31.697315
 968	9.6800e-001	-32.897949	-31.804911
 969	9.6900e-001	-32.646179	-31.530781
 970	9.7000e-001	-30.708313	-31.663049
 971	9.7100e-001	-29.853821	-31.825471
 972	9.7200e-001	-28.953552	-31.558194
 973	9.7300e-001	-27.984619	-31.530096
 974	9.7400e-001	-26.802063	-31.700057
 975	9.7500e-001	-26.206970	-31.406737
 976	9.7600e-001	-25.154114	-31.491032
 977	9.7700e-001	-24.055481	-31.421129
 978	9.7800e-001	-22.720337	-31.361506
 979	9.7900e-001	-22.041321	-31.464305
 980	9.8000e-001	-21.461487	-30.979780
 981	9.8100e-001	-19.584656	-31.465675
 982	9.8200e-001	-18.913269	-31.070928
 983	9.8300e-001	-17.677307	-31.215532
 984	9.8400e-001	-16.830444	-31.102453
 985	9.8500e-001	-16.181946	-30.968815
 986	9.8600e-001	-15.075684	-30.971556
 987	9.8700e-001	-13.885498	-31.120957
 988	9.8800e-001	-12.855530	-30.915359
 989	9.8900e-001	-11.833191	-31.040088
 990	9.9000e-001	-11.138916	-30.914674
 991	9.9100e-001	-9.437561	-31.096285
 992	9.9200e-001	-9.124756	-30.692629
 993	9.9300e-001	-7.720947	-30.903709
 994	9.9400e-001	-7.156372	-30.652194
 995	9.9500e-001	-5.882263	-30.686461
 996	9.9600e-001	-4.814148	-30.618614
 997	9.9700e-001	-4.188538	-30.582977
 998	9.9800e-001	-2.914429	-30.656992
 999	9.9900e-001	-1.922607	-30.574067
1000	1.0000e+000	-0.801086	-30.491828
1001	1.0010e+000	-0.099182	-30.441800
1002	1.0020e+000	0.900269	-30.444541
1003	1.0030e+000	2.372742	-30.313644
1004	1.0040e+000	2.799988	-30.449338
1005	1.0050e+000	3.845215	-30.239629
1006	1.0060e+000	5.455017	-30.295825
1007	1.0070e+000	5.897522	-30.260874
1008	1.0080e+000	6.645203	-30.138886
1009	1.0090e+000	8.018494	-30.089543
1010	1.0100e+000	9.033203	-30.086801
1011	1.0110e+000	9.872437	-29.973723
1012	1.0120e+000	11.024475	-29.899022
1013	1.0130e+000	11.909485	-29.859273
1014	1.0140e+000	12.680054	-29.920953
1015	1.0150e+000	14.465332	-29.970296
1016	1.0160e+000	14.244080	-29.638599
1017	1.0170e+000	15.747070	-29.680403
1018	1.0180e+000	17.440796	-29.890798
1019	1.0190e+000	17.639160	-29.729747
1020	1.0200e+000	19.104004	-29.671494
1021	1.0210e+000	20.149231	-29.683145
1022	1.0220e+000	20.874023	-29.582402
1023	1.0230e+000	21.903992	-29.337741
1024	1.0240e+000	23.132324	-29.511128
1025	1.0250e+000	23.643494	-29.570066
1026	1.0260e+000	25.863647	-29.775664
1027	1.0270e+000	25.512695	-29.308957
1028	1.0280e+000	27.130127	-29.639284
1029	1.0290e+000	28.228760	-29.317181
1030	1.0300e+000	29.083252	-29.343223
1031	1.0310e+000	29.815674	-29.195193
1032	1.0320e+000	30.799866	-29.208900
1033	1.0330e+000	32.005310	-29.137626
1034	1.0340e+000	32.714844	-29.113640
1035	1.0350e+000	34.149170	-29.123919
1036	1.0360e+000	35.491943	-29.197249
1037	1.0370e+000	35.202026	-28.890909
1038	1.0380e+000	37.109375	-29.175319
1039	1.0390e+000	37.330627	-28.662010
1040	1.0400e+000	39.009094	-29.086912
1041	1.0410e+000	40.138245	-28.884056
1042	1.0420e+000	40.618896	-28.745620
1043	1.0430e+000	41.755676	-28.805929
1044	1.0440e+000	42.953491	-28.655842
1045	1.0450e+000	43.708801	-28.584569
1046	1.0460e+000	44.883728	-28.651045
1047	1.0470e+000	45.684814	-28.487252
1048	1.0480e+000	46.775818	-28.821691
1049	1.0490e+000	47.782898	-28.589366
1050	1.0500e+000	48.446655	-28.279599
1051	1.0510e+000	50.010681	-28.483140
1052	1.0520e+000	50.781250	-28.295361
1053	1.0530e+000	51.773071	-28.144590
1054	1.0540e+000	53.199768	-28.254242
1055	1.0550e+000	53.710938	-28.275487
1056	1.0560e+000	55.107117	-28.301529
1057	1.0570e+000	55.969238	-28.085652
1058	1.0580e+000	56.999207	-28.172003
1059	1.0590e+000	58.113098	-28.019861
1060	1.0600e+000	59.234619	-27.941048
1061	1.0610e+000	59.974670	-27.850585
1062	1.0620e+000	61.080933	-27.793018
1063	1.0630e+000	61.950684	-27.938307
1064	1.0640e+000	62.675476	-27.660750
1065	1.0650e+000	64.102173	-27.684051
1066	1.0660e+000	65.048218	-27.664862
1067	1.0670e+000	65.834045	-27.560007
1068	1.0680e+000	66.627502	-27.590847
1069	1.0690e+000	68.267822	-27.342074
1070	1.0700e+000	69.007874	-27.561378
1071	1.0710e+000	69.969177	-27.377026
1072	1.0720e+000	70.274353	-26.950753
1073	1.0730e+000	72.288513	-27.217345
1074	1.0740e+000	72.792053	-27.281765
1075	1.0750e+000	73.730469	-27.127567
1076	1.0760e+000	75.149536	-27.130309
1077	1.0770e+000	75.767517	-26.956921
1078	1.0780e+000	76.843262	-27.224198
1079	1.0790e+000	77.903748	-26.818486
1080	1.0800e+000	79.154968	-26.890445
1081	1.0810e+000	79.856873	-26.787646
1082	1.0820e+000	81.199646	-26.671826
1083	1.0830e+000	81.954956	-26.715002
1084	1.0840e+000	82.649231	-26.431277
1085	1.0850e+000	84.335327	-26.799297
1086	1.0860e+000	84.442139	-26.416885
1087	1.0870e+000	85.548401	-26.307918
1088	1.0880e+000	87.295532	-26.425794
1089	1.0890e+000	87.791443	-26.325052
1090	1.0900e+000	88.760376	-26.159203
1091	1.0910e+000	89.973450	-26.198266
1092	1.0920e+000	90.736389	-26.068740
1093	1.0930e+000	91.972351	-26.075593
1094	1.0940e+000	93.132019	-25.946752
1095	1.0950e+000	93.597412	-25.719224
1096	1.0960e+000	95.382690	-26.011858
1097	1.0970e+000	95.664978	-25.688385
1098	1.0980e+000	96.977234	-25.734301
1099	1.0990e+000	98.213196	-25.572565
1100	1.1000e+000	98.991394	-25.458801
1101	1.1010e+000	100.097656	-25.540354
1102	1.1020e+000	100.769043	-25.316938
1103	1.1030e+000	102.287292	-25.281301
1104	1.1040e+000	102.966309	-25.305288
1105	1.1050e+000	103.782654	-25.165481
1106	1.1060e+000	104.995728	-25.078445
1107	1.1070e+000	105.941772	-24.874218
1108	1.1080e+000	107.124329	-25.077760
1109	1.1090e+000	107.658386	-24.602830
1110	1.1100e+000	109.146118	-24.820763
1111	1.1110e+000	109.779358	-24.728929
1112	1.1120e+000	110.992432	-24.510996
1113	1.1130e+000	111.732483	-24.453429
1114	1.1140e+000	112.648010	-24.362966
1115	1.1150e+000	114.013672	-24.473303
1116	1.1160e+000	114.921570	-24.190264
1117	1.1170e+000	115.928650	-24.073073
1118	1.1180e+000	117.599487	-24.145718
1119	1.1190e+000	117.774963	-23.930526
1120	1.1200e+000	118.705750	-23.652969
1121	1.1210e+000	120.140076	-23.790034
1122	1.1220e+000	120.864868	-23.554967
1123	1.1230e+000	121.818542	-23.583066
1124	1.1240e+000	123.207092	-23.450113
1125	1.1250e+000	124.145508	-23.350055
1126	1.1260e+000	124.679565	-23.231494
1127	1.1270e+000	126.174927	-23.080037
1128	1.1280e+000	126.640320	-22.931322
1129	1.1290e+000	127.952576	-22.823040
1130	1.1300e+000	129.203796	-22.731892
1131	1.1310e+000	129.386902	-22.449538
1132	1.1320e+000	131.439209	-22.506420
1133	1.1330e+000	131.881714	-22.388544
1134	1.1340e+000	132.843018	-22.245996
1135	1.1350e+000	133.804321	-22.178149
1136	1.1360e+000	134.956360	-22.041770
1137	1.1370e+000	135.978699	-21.876606
1138	1.1380e+000	136.779785	-21.900593
1139	1.1390e+000	138.191223	-21.681288
1140	1.1400e+000	138.732910	-21.395508
1141	1.1410e+000	139.419556	-21.525034
1142	1.1420e+000	140.487671	-21.143994
1143	1.1430e+000	142.242432	-21.307786
1144	1.1440e+000	142.845154	-21.039139
1145	1.1450e+000	144.432068	-21.128231
1146	1.1460e+000	144.531250	-20.790366
1147	1.1470e+000	146.034241	-20.592307
1148	1.1480e+000	146.873474	-20.394248
1149	1.1490e+000	147.819519	-20.280484
1150	1.1500e+000	149.154663	-20.189336
1151	1.1510e+000	149.993896	-20.098187
1152	1.1520e+000	151.062012	-19.902870
1153	1.1530e+000	152.648926	-20.120118
1154	1.1540e+000	152.770996	-19.431366
1155	1.1550e+000	154.212952	-19.787050
1156	1.1560e+000	154.800415	-19.229195
1157	1.1570e+000	155.906677	-19.236734
1158	1.1580e+000	156.997681	-19.129138
1159	1.1590e+000	157.714844	-18.959177
1160	1.1600e+000	158.966064	-18.676138
1161	1.1610e+000	159.637451	-18.577451
1162	1.1620e+000	160.766602	-18.271111
1163	1.1630e+000	162.216187	-18.231362
1164	1.1640e+000	162.857056	-17.968882
1165	1.1650e+000	164.146423	-17.988071
1166	1.1660e+000	165.061951	-17.759858
1167	1.1670e+000	165.756226	-17.382244
1168	1.1680e+000	166.870117	-17.395265
1169	1.1690e+000	167.808533	-17.102631
1170	1.1700e+000	168.762207	-16.772305
1171	1.1710e+000	170.089722	-16.841522
1172	1.1720e+000	171.058655	-16.590693
1173	1.1730e+000	172.027588	-16.465964
1174	1.1740e+000	172.714233	-16.266535
1175	1.1750e+000	173.950195	-16.004055
1176	1.1760e+000	174.774170	-15.848486
1177	1.1770e+000	176.170349	-15.630553
1178	1.1780e+000	176.834106	-15.263219
1179	1.1790e+000	177.970886	-15.070642
1180	1.1800e+000	179.092407	-14.988403
1181	1.1810e+000	179.786682	-14.747854
1182	1.1820e+000	181.091309	-14.438773
1183	1.1830e+000	181.762695	-14.240714
1184	1.1840e+000	182.975769	-13.972751
1185	1.1850e+000	183.906555	-13.844596
1186	1.1860e+000	184.951782	-13.585543
1187	1.1870e+000	185.722351	-13.315525
1188	1.1880e+000	187.980652	-13.532087
1189	1.1890e+000	187.507629	-12.768635
1190	1.1900e+000	188.842773	-12.561667
1191	1.1910e+000	190.055847	-12.508897
1192	1.1920e+000	191.093445	-12.107296
1193	1.1930e+000	191.612244	-11.906496
1194	1.1940e+000	192.947388	-11.509693
1195	1.1950e+000	193.847656	-11.492560
1196	1.1960e+000	194.747925	-11.045728
1197	1.1970e+000	195.907593	-10.742129
1198	1.1980e+000	196.914673	-10.549552
1199	1.1990e+000	198.005676	-10.248695
1200	1.2000e+000	199.127197	-10.036244
1201	1.2010e+000	199.996948	-9.716197
1202	1.2020e+000	200.759888	-9.417395
1203	1.2030e+000	201.812744	-9.224819
1204	1.2040e+000	202.926636	-8.813624
1205	1.2050e+000	203.857422	-8.605970
1206	1.2060e+000	205.078125	-8.339379
1207	1.2070e+000	205.909729	-7.830868
1208	1.2080e+000	206.901550	-7.751370
1209	1.2090e+000	207.672119	-7.433379
1210	1.2100e+000	208.915710	-7.122927
1211	1.2110e+000	209.960938	-6.979008
1212	1.2120e+000	211.296082	-6.471183
1213	1.2130e+000	211.830139	-6.178549
1214	1.2140e+000	212.730408	-5.683744
1215	1.2150e+000	213.790894	-5.530916
1216	1.2160e+000	215.080261	-5.064210
1217	1.2170e+000	215.606689	-4.766779
1218	1.2180e+000	217.025757	-4.463180
1219	1.2190e+000	217.735291	-4.094475
1220	1.2200e+000	219.360352	-3.785393
1221	1.2210e+000	220.123291	-3.479738
1222	1.2220e+000	221.366882	-3.023997
1223	1.2230e+000	221.855164	-2.812917
1224	1.2240e+000	222.862244	-2.312630
1225	1.2250e+000	224.060059	-2.121424
1226	1.2260e+000	224.800110	-1.562884
1227	1.2270e+000	226.486206	-1.318908
1228	1.2280e+000	226.921082	-0.915252
1229	1.2290e+000	227.569580	-0.299144
1230	1.2300e+000	229.095459	-0.077784
1231	1.2310e+000	229.835510	0.378642
1232	1.2320e+000	230.934143	0.584925
1233	1.2330e+000	231.658936	1.168137
1234	1.2340e+000	231.880188	1.811657
1235	1.2350e+000	233.932495	1.899379
1236	1.2360e+000	234.672546	2.382533
1237	1.2370e+000	235.275269	3.084306
1238	1.2380e+000	236.900330	3.203552
1239	1.2390e+000	238.174438	3.686021
1240	1.2400e+000	238.899231	4.035537
1241	1.2410e+000	239.883423	4.630399
1242	1.2420e+000	241.165161	4.977174
1243	1.2430e+000	242.019653	5.589854
1244	1.2440e+000	242.820740	6.173066
1245	1.2450e+000	243.820190	6.586317
1246	1.2460e+000	245.048523	7.079066
1247	1.2470e+000	246.086121	7.464904
1248	1.2480e+000	246.315002	8.125557
1249	1.2490e+000	247.848511	8.715622
1250	1.2500e+000	249.267578	9.089810
1251	1.2510e+000	250.053406	9.641497
1252	1.2520e+000	248.748779	10.099979
1253	1.2530e+000	247.909546	10.517342
1254	1.2540e+000	247.108459	10.960062
1255	1.2550e+000	245.735168	11.338362
1256	1.2560e+000	244.972229	11.871545
1257	1.2570e+000	244.064331	12.587024
1258	1.2580e+000	243.576050	12.412266
1259	1.2590e+000	241.844177	13.237398
1260	1.2600e+000	241.203308	13.455331
1261	1.2610e+000	239.868164	13.906960
1262	1.2620e+000	239.295959	14.085830
1263	1.2630e+000	237.815857	14.702623
1264	1.2640e+000	236.824036	15.086405
1265	1.2650e+000	236.076355	15.537349
1266	1.2660e+000	235.107422	15.746373
1267	1.2670e+000	233.520508	16.184981
1268	1.2680e+000	232.978821	16.526958
1269	1.2690e+000	231.903076	16.901831
1270	1.2700e+000	230.728149	17.082757
1271	1.2710e+000	230.476379	17.532330
1272	1.2720e+000	228.866577	17.757802
1273	1.2730e+000	228.012085	18.130619
1274	1.2740e+000	226.982117	18.505492
1275	1.2750e+000	225.990295	18.811832
1276	1.2760e+000	224.891663	19.081165
1277	1.2770e+000	224.075317	19.466318
1278	1.2780e+000	222.824097	19.711664
1279	1.2790e+000	221.931458	20.076257
1280	1.2800e+000	221.168518	20.308582
1281	1.2810e+000	219.779968	20.590251
1282	1.2820e+000	218.421936	20.879458
1283	1.2830e+000	218.086243	21.281059
1284	1.2840e+000	216.705322	21.496936
1285	1.2850e+000	216.033936	21.740226
1286	1.2860e+000	215.133667	21.969125
1287	1.2870e+000	213.432312	22.354963
1288	1.2880e+000	213.104248	22.435146
1289	1.2890e+000	212.051392	22.820984
1290	1.2900e+000	210.922241	23.007393
1291	1.2910e+000	209.831238	23.228067
1292	1.2920e+000	208.885193	23.454225
1293	1.2930e+000	208.030701	23.705054
1294	1.2940e+000	206.672668	24.042919
1295	1.2950e+000	206.214905	24.217677
1296	1.2960e+000	205.276489	24.397917
1297	1.2970e+000	203.773499	24.732356
1298	1.2980e+000	203.056335	24.929730
1299	1.2990e+000	202.125549	25.103802
1300	1.3000e+000	201.019287	25.277189
1301	1.3010e+000	199.981689	25.536928
1302	1.3020e+000	198.905945	25.673993
1303	1.3030e+000	197.486877	25.837100
1304	1.3040e+000	196.388245	26.396325
1305	1.3050e+000	196.044922	26.231162
1306	1.3060e+000	194.908142	26.514201
1307	1.3070e+000	194.084167	26.717743
1308	1.3080e+000	192.924500	26.823283
1309	1.3090e+000	191.795349	27.080965
1310	1.3100e+000	190.834045	27.291360
1311	1.3110e+000	190.025330	27.400327
1312	1.3120e+000	188.415527	27.618260
1313	1.3130e+000	187.660217	27.767661
1314	1.3140e+000	187.057495	27.967776
1315	1.3150e+000	185.981750	28.102785
1316	1.3160e+000	185.165405	28.238479
1317	1.3170e+000	183.906555	28.402272
1318	1.3180e+000	182.708740	28.571547
1319	1.3190e+000	182.151794	28.744249
1320	1.3200e+000	180.984497	28.903245
1321	1.3210e+000	179.969788	28.999876
1322	1.3220e+000	179.206848	29.145850
1323	1.3230e+000	177.803040	29.247278
1324	1.3240e+000	176.940918	29.635857
1325	1.3250e+000	176.017761	29.553618
1326	1.3260e+000	174.964905	29.676291
1327	1.3270e+000	174.171448	29.791426
1328	1.3280e+000	173.088074	29.836658
1329	1.3290e+000	172.470093	29.912043
1330	1.3300e+000	171.173096	30.215642
1331	1.3310e+000	169.700623	30.375323
1332	1.3320e+000	168.937683	30.444541
1333	1.3330e+000	167.915344	30.545284
1334	1.3340e+000	167.289734	30.757049
1335	1.3350e+000	165.603638	30.736489
1336	1.3360e+000	164.932251	30.897541
1337	1.3370e+000	164.131165	31.018843
1338	1.3380e+000	162.933350	31.019529
1339	1.3390e+000	161.979675	31.129181
1340	1.3400e+000	160.583496	31.260763
1341	1.3410e+000	159.965515	31.295029
1342	1.3420e+000	158.973694	31.415647
1343	1.3430e+000	157.814026	31.482123
1344	1.3440e+000	157.287598	31.589034
1345	1.3450e+000	155.975342	31.633580
1346	1.3460e+000	154.647827	31.800799
1347	1.3470e+000	153.717041	31.885094
1348	1.3480e+000	153.289795	31.867961
1349	1.3490e+000	152.046204	31.848772
1350	1.3500e+000	151.351929	31.853569
1351	1.3510e+000	149.314880	32.266820
1352	1.3520e+000	149.009705	32.265450
1353	1.3530e+000	148.033142	32.261338
1354	1.3540e+000	146.926880	32.539580
1355	1.3550e+000	146.072388	32.344948
1356	1.3560e+000	144.981384	32.473103
1357	1.3570e+000	143.791199	32.412109
1358	1.3580e+000	142.829895	32.600574
1359	1.3590e+000	141.830444	32.611539
1360	1.3600e+000	141.044617	32.696519
1361	1.3610e+000	139.892578	32.750660
1362	1.3620e+000	138.687134	32.968593
1363	1.3630e+000	138.313293	32.788353
1364	1.3640e+000	137.008667	32.951460
1365	1.3650e+000	135.932922	33.077560
1366	1.3660e+000	134.971619	33.070707
1367	1.3670e+000	133.819580	33.037811
1368	1.3680e+000	132.865906	33.120050
1369	1.3690e+000	132.072449	33.122106
1370	1.3700e+000	130.523682	33.239297
1371	1.3710e+000	130.065918	33.172135
1372	1.3720e+000	128.829956	33.306459
1373	1.3730e+000	127.593994	33.296179
1374	1.3740e+000	126.884460	33.635415
1375	1.3750e+000	126.159668	33.242723
1376	1.3760e+000	124.885559	33.363341
1377	1.3770e+000	123.786926	33.486014
1378	1.3780e+000	122.840881	33.410628
1379	1.3790e+000	122.131348	33.242723
1380	1.3800e+000	120.750427	33.636785
1381	1.3810e+000	120.002747	33.563456
1382	1.3820e+000	118.789673	33.672422
1383	1.3830e+000	118.064880	33.663513
1384	1.3840e+000	116.958618	33.720395
1385	1.3850e+000	115.875244	33.712171
1386	1.3860e+000	114.936829	33.701206
1387	1.3870e+000	113.471985	33.707374
1388	1.3880e+000	112.686157	33.738214
1389	1.3890e+000	111.816406	33.703262
1390	1.3900e+000	110.862732	33.753291
1391	1.3910e+000	109.939575	33.762885
1392	1.3920e+000	108.840942	33.743011
1393	1.3930e+000	107.757568	33.729304
1394	1.3940e+000	106.819153	33.703947
1395	1.3950e+000	106.040955	33.844439
1396	1.3960e+000	104.461670	34.041813
1397	1.3970e+000	104.255676	33.723822
1398	1.3980e+000	102.851868	33.875279
1399	1.3990e+000	101.860046	33.717654
1400	1.4000e+000	101.043701	33.926678
1401	1.4010e+000	99.998474	33.874593
1402	1.4020e+000	98.999023	33.900636
1403	1.4030e+000	97.946167	33.816341
1404	1.4040e+000	96.855164	33.884873
1405	1.4050e+000	95.916748	33.769738
1406	1.4060e+000	94.696045	33.813599
1407	1.4070e+000	93.879700	33.734102
1408	1.4080e+000	92.781067	33.766312
1409	1.4090e+000	92.163086	33.793725
1410	1.4100e+000	90.904236	33.816341
1411	1.4110e+000	89.927673	33.770424
1412	1.4120e+000	88.966370	33.757403
1413	1.4130e+000	88.035583	33.778648
1414	1.4140e+000	86.700439	33.829362
1415	1.4150e+000	85.853577	33.745752
1416	1.4160e+000	85.014343	33.645695
1417	1.4170e+000	83.908081	33.747808
1418	1.4180e+000	82.839966	33.821823
1419	1.4190e+000	82.427979	33.696409
1420	1.4200e+000	81.260681	33.522336
1421	1.4210e+000	79.658508	33.832103
1422	1.4220e+000	78.895569	33.561400
1423	1.4230e+000	77.667236	33.603890
1424	1.4240e+000	77.079773	33.596351
1425	1.4250e+000	75.729370	33.562770
1426	1.4260e+000	74.714661	33.547008
1427	1.4270e+000	74.256897	33.592239
1428	1.4280e+000	72.875977	33.536728
1429	1.4290e+000	71.601868	33.556602
1430	1.4300e+000	70.960999	33.567568
1431	1.4310e+000	69.908142	33.568253
1432	1.4320e+000	69.068909	33.460657
1433	1.4330e+000	67.916870	33.570994
1434	1.4340e+000	66.925049	33.496979
1435	1.4350e+000	65.963745	33.406516
1436	1.4360e+000	65.109253	33.417481
1437	1.4370e+000	64.056396	33.518224
1438	1.4380e+000	62.988281	33.255059
1439	1.4390e+000	62.103271	33.287955
1440	1.4400e+000	61.172485	33.291382
1441	1.4410e+000	60.043335	33.519595
1442	1.4420e+000	59.402466	33.113197
1443	1.4430e+000	57.434082	33.407201
1444	1.4440e+000	57.250977	33.175562
1445	1.4450e+000	56.007385	33.264654
1446	1.4460e+000	55.183411	33.033699
1447	1.4470e+000	54.313660	33.127589
1448	1.4480e+000	53.108215	33.129645
1449	1.4490e+000	51.689148	33.268766
1450	1.4500e+000	51.025391	33.063168
1451	1.4510e+000	49.919128	33.139925
1452	1.4520e+000	48.828125	33.029587
1453	1.4530e+000	47.531128	32.917194
1454	1.4540e+000	47.378540	32.939810
1455	1.4550e+000	45.875549	32.915138
1456	1.4560e+000	45.013428	32.865795
1457	1.4570e+000	44.212341	32.845235
1458	1.4580e+000	43.174744	32.712967
1459	1.4590e+000	42.205811	32.788353
1460	1.4600e+000	41.206360	32.695149
1461	1.4610e+000	39.886475	32.697890
1462	1.4620e+000	38.970947	32.714338
1463	1.4630e+000	37.689209	32.668421
1464	1.4640e+000	36.773682	32.680757
1465	1.4650e+000	35.842896	32.601259
1466	1.4660e+000	34.950256	32.472418
1467	1.4670e+000	33.927917	32.448432
1468	1.4680e+000	32.791138	32.513537
1469	1.4690e+000	31.806946	32.526559
1470	1.4700e+000	31.219482	32.418963
1471	1.4710e+000	29.922485	32.539580
1472	1.4720e+000	29.006958	32.314793
1473	1.4730e+000	27.862549	32.288751
1474	1.4740e+000	26.870728	32.190749
1475	1.4750e+000	25.985718	32.214050
1476	1.4760e+000	24.986267	32.144833
1477	1.4770e+000	23.674011	32.196917
1478	1.4780e+000	23.071289	32.085209
1479	1.4790e+000	22.361755	32.174302
1480	1.4800e+000	21.041870	32.070132
1481	1.4810e+000	20.156860	32.022845
1482	1.4820e+000	19.065857	31.992690
1483	1.4830e+000	18.013000	31.905654
1484	1.4840e+000	16.868591	31.914563
1485	1.4850e+000	15.922546	31.894689
1486	1.4860e+000	15.113831	31.873444
1487	1.4870e+000	13.885498	31.832324
1488	1.4880e+000	13.198853	31.700057
1489	1.4890e+000	12.565613	31.449228
1490	1.4900e+000	10.887146	31.709651
1491	1.4910e+000	10.147095	31.772701
1492	1.4920e+000	9.254456	31.542432
1493	1.4930e+000	7.972717	31.628097
1494	1.4940e+000	6.866455	31.567789
1495	1.4950e+000	6.126404	31.524613
1496	1.4960e+000	5.165100	31.327925
1497	1.4970e+000	4.234314	31.633580
1498	1.4980e+000	3.158569	31.421815
1499	1.4990e+000	1.663208	31.286120
1500	1.5000e+000	1.106262	31.347799
1501	1.5010e+000	-0.022888	31.408108
1502	1.5020e+000	-0.968933	31.338890
1503	1.5030e+000	-2.006531	31.223756
1504	1.5040e+000	-3.311157	31.270358
1505	1.5050e+000	-4.394531	31.141517
1506	1.5060e+000	-4.730225	31.120272
1507	1.5070e+000	-5.783081	31.076411
1508	1.5080e+000	-6.950378	31.144943
1509	1.5090e+000	-8.148193	31.033235
1510	1.5100e+000	-8.888245	30.983206
1511	1.5110e+000	-10.070801	30.979095
1512	1.5120e+000	-10.696411	30.872869
1513	1.5130e+000	-11.848450	30.915359
1514	1.5140e+000	-12.847900	30.864645
1515	1.5150e+000	-13.931274	30.755679
1516	1.5160e+000	-14.930725	30.860533
1517	1.5170e+000	-15.991211	30.830379
1518	1.5180e+000	-16.883850	30.709076
1519	1.5190e+000	-17.776489	30.732377
1520	1.5200e+000	-18.852234	30.665901
1521	1.5210e+000	-19.515991	30.632320
1522	1.5220e+000	-20.698547	30.531577
1523	1.5230e+000	-22.254944	30.618614
1524	1.5240e+000	-22.926331	30.530892
1525	1.5250e+000	-23.811340	30.443856
1526	1.5260e+000	-24.650574	30.195083
1527	1.5270e+000	-26.481628	30.430834
1528	1.5280e+000	-26.710510	30.322553
1529	1.5290e+000	-27.893066	30.299937
1530	1.5300e+000	-28.656006	30.189600
1531	1.5310e+000	-29.609680	30.236887
1532	1.5320e+000	-31.112671	30.190971
1533	1.5330e+000	-32.218933	29.888742
1534	1.5340e+000	-32.760620	30.188229
1535	1.5350e+000	-34.019470	30.017583
1536	1.5360e+000	-35.026550	30.022381
1537	1.5370e+000	-36.018372	30.033346
1538	1.5380e+000	-37.284851	30.028549
1539	1.5390e+000	-37.826538	29.903134
1540	1.5400e+000	-39.100647	29.833231
1541	1.5410e+000	-40.245056	29.712614
1542	1.5420e+000	-40.779114	29.734544
1543	1.5430e+000	-41.633606	29.642711
1544	1.5440e+000	-43.174744	29.759901
1545	1.5450e+000	-43.945313	29.637228
1546	1.5460e+000	-45.280457	29.645452
1547	1.5470e+000	-46.203613	29.732488
1548	1.5480e+000	-46.684265	29.372007
1549	1.5490e+000	-47.927856	29.540597
1550	1.5500e+000	-48.797607	29.436428
1551	1.5510e+000	-49.972534	29.389140
1552	1.5520e+000	-51.200867	29.417239
1553	1.5530e+000	-51.986694	29.317181
1554	1.5540e+000	-52.947998	29.299363
1555	1.5550e+000	-54.306030	29.217124
1556	1.5560e+000	-54.946899	29.111584
1557	1.5570e+000	-55.885315	29.122549
1558	1.5580e+000	-56.510925	29.352818
1559	1.5590e+000	-57.830811	28.850475
1560	1.5600e+000	-59.219360	29.005358
1561	1.5610e+000	-59.394836	28.841565
1562	1.5620e+000	-61.286926	28.937511
1563	1.5630e+000	-62.072754	28.576345
1564	1.5640e+000	-63.079834	28.897762
1565	1.5650e+000	-63.697815	28.767550
1566	1.5660e+000	-65.055847	28.829230
1567	1.5670e+000	-66.040039	28.751788
1568	1.5680e+000	-66.894531	28.618149
1569	1.5690e+000	-67.840576	28.637339
1570	1.5700e+000	-68.931580	28.536596
1571	1.5710e+000	-69.900513	28.348817
1572	1.5720e+000	-71.014404	28.520833
1573	1.5730e+000	-71.624756	28.280969
1574	1.5740e+000	-72.944641	28.292620
1575	1.5750e+000	-73.905945	28.232311
1576	1.5760e+000	-75.012207	28.170632
1577	1.5770e+000	-76.080322	28.220661
1578	1.5780e+000	-76.904297	28.027399
1579	1.5790e+000	-78.224182	28.051386
1580	1.5800e+000	-78.910828	27.998616
1581	1.5810e+000	-79.315186	27.809466
1582	1.5820e+000	-81.275940	27.977370
1583	1.5830e+000	-82.267761	27.640190
1584	1.5840e+000	-82.855225	27.823858
1585	1.5850e+000	-84.159851	27.758752
1586	1.5860e+000	-84.922791	27.507923
1587	1.5870e+000	-85.861206	27.579882
1588	1.5880e+000	-86.929321	27.674457
1589	1.5890e+000	-88.081360	27.233793
1590	1.5900e+000	-89.263916	27.294787
1591	1.5910e+000	-90.095520	27.238590
1592	1.5920e+000	-91.011047	27.215289
1593	1.5930e+000	-91.896057	27.017230
1594	1.5940e+000	-92.887878	27.019971
1595	1.5950e+000	-93.711853	27.006950
1596	1.5960e+000	-94.657898	26.926767
1597	1.5970e+000	-95.878601	26.882906
1598	1.5980e+000	-97.167969	26.756121
1599	1.5990e+000	-98.106384	26.737617
1600	1.6000e+000	-98.922729	26.736247
1601	1.6010e+000	-100.028992	26.521055
1602	1.6020e+000	-101.112366	26.517628
1603	1.6030e+000	-101.844788	26.490215
1604	1.6040e+000	-102.752686	26.281876
1605	1.6050e+000	-103.645325	26.213344
1606	1.6060e+000	-104.820251	26.170168
1607	1.6070e+000	-106.071472	26.103692
1608	1.6080e+000	-106.895447	26.051607
1609	1.6090e+000	-108.245850	25.863828
1610	1.6100e+000	-108.840942	25.820652
1611	1.6110e+000	-109.901428	25.710315
1612	1.6120e+000	-110.961914	25.713742
1613	1.6130e+000	-111.854553	25.429332
1614	1.6140e+000	-112.998962	25.538984
1615	1.6150e+000	-114.128113	25.401919
1616	1.6160e+000	-114.860535	25.183300
1617	1.6170e+000	-115.798950	25.177132
1618	1.6180e+000	-116.798401	25.090781
1619	1.6190e+000	-118.591309	25.171649
1620	1.6200e+000	-118.965149	24.935898
1621	1.6210e+000	-119.873047	24.861882
1622	1.6220e+000	-121.154785	24.817336
1623	1.6230e+000	-121.780396	24.608997
1624	1.6240e+000	-122.810364	24.530185
1625	1.6250e+000	-123.802185	24.572675
1626	1.6260e+000	-125.030518	24.317734
1627	1.6270e+000	-126.182556	24.199173
1628	1.6280e+000	-126.953125	24.229327
1629	1.6290e+000	-127.784729	23.993575
1630	1.6300e+000	-128.631592	23.835951
1631	1.6310e+000	-130.119324	23.901742
1632	1.6320e+000	-130.966187	23.731096
1633	1.6330e+000	-131.942749	23.655025
1634	1.6340e+000	-133.178711	23.528925
1635	1.6350e+000	-134.094238	23.368559
1636	1.6360e+000	-134.895325	23.263019
1637	1.6370e+000	-136.070251	23.138290
1638	1.6380e+000	-136.840820	23.021784
1639	1.6390e+000	-137.916565	22.857306
1640	1.6400e+000	-138.626099	22.731892
1641	1.6410e+000	-139.923096	22.630464
1642	1.6420e+000	-141.151428	22.472154
1643	1.6430e+000	-141.967773	22.291913
1644	1.6440e+000	-142.829895	22.284375
1645	1.6450e+000	-143.920898	22.049308
1646	1.6460e+000	-144.775391	21.906075
1647	1.6470e+000	-146.133423	21.837543
1648	1.6480e+000	-146.759033	21.686771
1649	1.6490e+000	-148.056030	21.592882
1650	1.6500e+000	-148.887634	21.155644
1651	1.6510e+000	-149.757385	21.234457
1652	1.6520e+000	-150.993347	21.114525
1653	1.6530e+000	-152.137756	20.930172
1654	1.6540e+000	-153.182983	20.808184
1655	1.6550e+000	-154.022217	20.773918
1656	1.6560e+000	-154.640198	20.480599
1657	1.6570e+000	-156.219482	20.298988
1658	1.6580e+000	-156.806946	19.932339
1659	1.6590e+000	-157.653809	20.066662
1660	1.6600e+000	-158.920288	19.774714
1661	1.6610e+000	-159.721375	19.578026
1662	1.6620e+000	-161.018372	19.519088
1663	1.6630e+000	-162.063599	19.286077
1664	1.6640e+000	-162.811279	19.188761
1665	1.6650e+000	-163.711548	18.796070
1666	1.6660e+000	-164.764404	18.774825
1667	1.6670e+000	-166.015625	18.658319
1668	1.6680e+000	-166.610718	18.333475
1669	1.6690e+000	-167.755127	18.181333
1670	1.6700e+000	-168.746948	17.924336
1671	1.6710e+000	-170.104980	17.799607
1672	1.6720e+000	-170.692444	17.622793
1673	1.6730e+000	-171.836853	17.266424
1674	1.6740e+000	-173.080444	17.183500
1675	1.6750e+000	-173.904419	17.201318
1676	1.6760e+000	-174.720764	16.651002
1677	1.6770e+000	-175.941467	16.462538
1678	1.6780e+000	-176.673889	16.310395
1679	1.6790e+000	-177.986145	16.081497
1680	1.6800e+000	-178.527832	15.586692
1681	1.6810e+000	-180.099487	15.808052
1682	1.6820e+000	-181.083679	15.440718
1683	1.6830e+000	-181.953430	15.317359
1684	1.6840e+000	-182.777405	15.008278
1685	1.6850e+000	-183.944702	14.776638
1686	1.6860e+000	-185.028076	14.575838
1687	1.6870e+000	-186.019897	14.363387
1688	1.6880e+000	-187.156677	13.938485
1689	1.6890e+000	-188.194275	13.796623
1690	1.6900e+000	-188.720703	13.512213
1691	1.6910e+000	-189.888000	13.278517
1692	1.6920e+000	-190.689087	12.966009
1693	1.6930e+000	-192.123413	12.718606
1694	1.6940e+000	-192.977905	12.484225
1695	1.6950e+000	-194.198608	12.208725
1696	1.6960e+000	-194.763184	11.966119
1697	1.6970e+000	-196.609497	11.868118
1698	1.6980e+000	-196.830750	11.369887
1699	1.6990e+000	-197.853088	11.202667
1700	1.7000e+000	-198.898315	10.735276
1701	1.7010e+000	-200.004578	10.642757
1702	1.7020e+000	-200.958252	10.350123
1703	1.7030e+000	-201.911926	10.021852
1704	1.7040e+000	-202.758789	9.745666
1705	1.7050e+000	-204.086304	9.583929
1706	1.7060e+000	-205.116272	9.063082
1707	1.7070e+000	-206.039429	8.808827
1708	1.7080e+000	-206.672668	8.465479
1709	1.7090e+000	-208.206177	8.209167
1710	1.7100e+000	-208.839417	7.675299
1711	1.7110e+000	-210.083008	7.616361
1712	1.7120e+000	-210.968018	7.097570
1713	1.7130e+000	-211.647034	6.863189
1714	1.7140e+000	-212.417603	6.569184
1715	1.7150e+000	-213.653564	6.204591
1716	1.7160e+000	-214.889526	5.863299
1717	1.7170e+000	-215.812683	5.468552
1718	1.7180e+000	-216.590881	5.137540
1719	1.7190e+000	-217.834473	4.781856
1720	1.7200e+000	-218.887329	4.411781
1721	1.7210e+000	-219.909668	4.049929
1722	1.7220e+000	-220.985413	3.675056
1723	1.7230e+000	-221.641541	3.239875
1724	1.7240e+000	-223.068237	2.849925
1725	1.7250e+000	-224.090576	2.444897
1726	1.7260e+000	-224.960327	2.029590
1727	1.7270e+000	-225.868225	1.601947
1728	1.7280e+000	-226.737976	1.289439
1729	1.7290e+000	-227.783203	0.850831
1730	1.7300e+000	-229.156494	0.310110
1731	1.7310e+000	-230.056763	0.053798
1732	1.7320e+000	-230.773926	-0.382069
1733	1.7330e+000	-232.009888	-0.790523
1734	1.7340e+000	-232.940674	-1.285327
1735	1.7350e+000	-233.825684	-1.737642
1736	1.7360e+000	-234.786987	-2.149522
1737	1.7370e+000	-235.885620	-2.599096
1738	1.7380e+000	-236.549377	-3.174769
1739	1.7390e+000	-238.128662	-3.598300
1740	1.7400e+000	-238.845825	-4.151357
1741	1.7410e+000	-240.081787	-4.506355
1742	1.7420e+000	-240.837097	-4.847647
1743	1.7430e+000	-242.057800	-5.503503
1744	1.7440e+000	-242.897034	-5.961986
1745	1.7450e+000	-243.713379	-6.534918
1746	1.7460e+000	-244.758606	-7.002995
1747	1.7470e+000	-245.681763	-7.710936
1748	1.7480e+000	-246.788025	-8.048116
1749	1.7490e+000	-247.817993	-8.554571
1750	1.7500e+000	-248.748779	-9.104887
1751	1.7510e+000	-249.694824	-9.721680
1752	1.7520e+000	-248.786926	-10.129448
1753	1.7530e+000	-247.940063	-10.683876
1754	1.7540e+000	-246.932983	-11.152639
1755	1.7550e+000	-245.285034	-11.850985
1756	1.7560e+000	-245.025635	-12.006554
1757	1.7570e+000	-243.690491	-12.676802
1758	1.7580e+000	-243.118286	-12.871434
1759	1.7590e+000	-241.844177	-13.367609
1760	1.7600e+000	-241.058350	-13.776748
1761	1.7610e+000	-239.974976	-14.162586
1762	1.7620e+000	-238.868713	-14.618328
1763	1.7630e+000	-237.800598	-14.966473
1764	1.7640e+000	-237.464905	-15.222099
1765	1.7650e+000	-236.045837	-15.680582
1766	1.7660e+000	-234.817505	-16.077385
1767	1.7670e+000	-234.207153	-16.722276
1768	1.7680e+000	-233.070374	-16.767507
1769	1.7690e+000	-231.887817	-17.189668
1770	1.7700e+000	-230.583191	-17.633073
1771	1.7710e+000	-230.056763	-17.787956
1772	1.7720e+000	-229.309082	-17.981903
1773	1.7730e+000	-228.027344	-18.560318
1774	1.7740e+000	-226.692200	-18.867344
1775	1.7750e+000	-225.845337	-19.265517
1776	1.7760e+000	-224.975586	-19.538962
1777	1.7770e+000	-224.105835	-19.852156
1778	1.7780e+000	-222.877502	-20.138622
1779	1.7790e+000	-222.099304	-20.385339
1780	1.7800e+000	-221.397400	-20.589566
1781	1.7810e+000	-219.772339	-21.001446
1782	1.7820e+000	-219.200134	-21.219379
1783	1.7830e+000	-217.979431	-21.603847
1784	1.7840e+000	-216.827393	-21.785458
1785	1.7850e+000	-216.064453	-22.178149
1786	1.7860e+000	-215.087891	-22.366614
1787	1.7870e+000	-213.806152	-22.655135
1788	1.7880e+000	-212.890625	-22.914874
1789	1.7890e+000	-211.883545	-23.228753
1790	1.7900e+000	-210.662842	-23.454225
1791	1.7910e+000	-210.052490	-23.673529
1792	1.7920e+000	-208.992004	-23.760565
1793	1.7930e+000	-207.969666	-24.220418
1794	1.7940e+000	-207.046509	-24.359539
1795	1.7950e+000	-205.993652	-24.676159
1796	1.7960e+000	-205.039978	-24.872162
1797	1.7970e+000	-203.559875	-25.174391
1798	1.7980e+000	-203.277588	-25.260742
1799	1.7990e+000	-201.965332	-25.475248
1800	1.8000e+000	-200.942993	-25.702091
1801	1.8010e+000	-200.057983	-25.841897
1802	1.8020e+000	-199.066162	-26.153035
1803	1.8030e+000	-198.143005	-26.183189
1804	1.8040e+000	-196.540833	-26.571769
1805	1.8050e+000	-196.281433	-26.632077
1806	1.8060e+000	-194.961548	-26.870570
1807	1.8070e+000	-194.053650	-27.051496
1808	1.8080e+000	-193.077087	-27.219401
1809	1.8090e+000	-192.085266	-27.366060
1810	1.8100e+000	-191.154480	-27.675827
1811	1.8110e+000	-189.994812	-27.799186
1812	1.8120e+000	-189.117432	-27.908838
1813	1.8130e+000	-188.056946	-28.117177
1814	1.8140e+000	-186.935425	-28.285767
1815	1.8150e+000	-186.065674	-28.474231
1816	1.8160e+000	-185.119629	-28.516721
1817	1.8170e+000	-184.349060	-28.776460
1818	1.8180e+000	-182.853699	-28.816208
1819	1.8190e+000	-182.243347	-28.962183
1820	1.8200e+000	-180.938721	-29.152703
1821	1.8210e+000	-180.137634	-29.336370
1822	1.8220e+000	-178.802490	-29.274691
1823	1.8230e+000	-177.734375	-29.662585
1824	1.8240e+000	-176.910400	-29.711928
1825	1.8250e+000	-175.979614	-29.875721
1826	1.8260e+000	-174.758911	-29.975779
1827	1.8270e+000	-174.102783	-30.122438
1828	1.8280e+000	-173.301697	-30.242370
1829	1.8290e+000	-171.699524	-30.410960
1830	1.8300e+000	-170.692444	-30.528836
1831	1.8310e+000	-169.715881	-30.561046
1832	1.8320e+000	-168.998718	-30.689887
1833	1.8330e+000	-167.778015	-30.831064
1834	1.8340e+000	-167.015076	-30.992801
1835	1.8350e+000	-166.007996	-30.980465
1836	1.8360e+000	-165.054321	-31.119586
1837	1.8370e+000	-163.757324	-31.188804
1838	1.8380e+000	-162.742615	-31.381380
1839	1.8390e+000	-162.254333	-31.286806
1840	1.8400e+000	-160.774231	-31.543802
1841	1.8410e+000	-160.064697	-31.650713
1842	1.8420e+000	-158.416748	-31.689091
1843	1.8430e+000	-158.210754	-31.866591
1844	1.8440e+000	-156.776428	-31.940606
1845	1.8450e+000	-155.914307	-32.074244
1846	1.8460e+000	-154.975891	-32.065335
1847	1.8470e+000	-154.403687	-32.124958
1848	1.8480e+000	-152.847290	-32.213365
1849	1.8490e+000	-151.840210	-32.279842
1850	1.8500e+000	-151.214600	-32.309996
1851	1.8510e+000	-150.047302	-32.460082
1852	1.8520e+000	-148.887634	-32.486810
1853	1.8530e+000	-147.850037	-32.618392
1854	1.8540e+000	-146.987915	-32.605371
1855	1.8550e+000	-145.774841	-32.681442
1856	1.8560e+000	-144.760132	-32.845920
1857	1.8570e+000	-144.020081	-32.839067
1858	1.8580e+000	-143.028259	-32.978188
1859	1.8590e+000	-142.143250	-32.738324
1860	1.8600e+000	-140.968323	-33.091267
1861	1.8610e+000	-139.648438	-33.146778
1862	1.8620e+000	-138.992310	-33.094008
1863	1.8630e+000	-137.878418	-33.238611
1864	1.8640e+000	-136.428833	-33.408572
1865	1.8650e+000	-136.299133	-33.111141
1866	1.8660e+000	-134.925842	-33.323592
1867	1.8670e+000	-134.010315	-33.191324
1868	1.8680e+000	-133.186340	-33.372935
1869	1.8690e+000	-131.752014	-33.333872
1870	1.8700e+000	-130.737305	-33.495608
1871	1.8710e+000	-130.302429	-33.470937
1872	1.8720e+000	-128.189087	-33.560714
1873	1.8730e+000	-128.211975	-33.588127
1874	1.8740e+000	-127.059937	-33.638841
1875	1.8750e+000	-125.938416	-33.636785
1876	1.8760e+000	-125.122070	-33.735472
1877	1.8770e+000	-123.931885	-33.655289
1878	1.8780e+000	-123.039246	-33.727934
1879	1.8790e+000	-121.887207	-33.740269
1880	1.8800e+000	-121.109009	-33.700521
1881	1.8810e+000	-120.201111	-33.728619
1882	1.8820e+000	-119.026184	-33.713542
1883	1.8830e+000	-118.171692	-33.742325
1884	1.8840e+000	-116.821289	-33.974651
1885	1.8850e+000	-115.783691	-33.739584
1886	1.8860e+000	-115.074158	-33.822508
1887	1.8870e+000	-113.983154	-33.812914
1888	1.8880e+000	-113.166809	-33.895838
1889	1.8890e+000	-111.984253	-33.674478
1890	1.8900e+000	-111.145020	-33.920510
1891	1.8910e+000	-110.084534	-33.908859
1892	1.8920e+000	-108.886719	-33.982875
1893	1.8930e+000	-107.872009	-33.899265
1894	1.8940e+000	-107.086182	-33.986301
1895	1.8950e+000	-106.170654	-33.870481
1896	1.8960e+000	-104.690552	-33.995210
1897	1.8970e+000	-103.889465	-33.702577
1898	1.8980e+000	-102.989197	-33.954091
1899	1.8990e+000	-102.012634	-33.902006
1900	1.9000e+000	-100.959778	-33.893782
1901	1.9010e+000	-99.876404	-33.906118
1902	1.9020e+000	-99.174500	-33.882132
1903	1.9030e+000	-98.190308	-33.956147
1904	1.9040e+000	-96.839905	-33.899950
1905	1.9050e+000	-96.252441	-33.973280
1906	1.9060e+000	-94.909668	-34.041813
1907	1.9070e+000	-94.200134	-33.956832
1908	1.9080e+000	-93.200684	-33.986301
1909	1.9090e+000	-91.819763	-33.803319
1910	1.9100e+000	-91.217041	-34.005490
1911	1.9110e+000	-89.767456	-33.928734
1912	1.9120e+000	-88.829041	-33.834159
1913	1.9130e+000	-87.959290	-33.896524
1914	1.9140e+000	-86.738586	-33.960259
1915	1.9150e+000	-86.036682	-33.799893
1916	1.9160e+000	-84.655762	-33.865684
1917	1.9170e+000	-84.426880	-33.834159
1918	1.9180e+000	-82.878113	-33.892412
1919	1.9190e+000	-81.886292	-33.799207
1920	1.9200e+000	-81.001282	-33.763571
1921	1.9210e+000	-80.062866	-33.826620
1922	1.9220e+000	-79.589844	-33.679961
1923	1.9230e+000	-78.140259	-33.779333
1924	1.9240e+000	-76.652527	-33.708745
1925	1.9250e+000	-76.095581	-33.784130
1926	1.9260e+000	-75.248718	-33.625820
1927	1.9270e+000	-74.096680	-33.621708
1928	1.9280e+000	-72.738647	-33.728619
1929	1.9290e+000	-72.082520	-33.645009
1930	1.9300e+000	-71.136475	-33.594295
1931	1.9310e+000	-69.694519	-33.677220
1932	1.9320e+000	-69.007874	-33.560029
1933	1.9330e+000	-68.046570	-33.569624
1934	1.9340e+000	-66.986084	-33.517539
1935	1.9350e+000	-65.979004	-33.436670
1936	1.9360e+000	-64.926147	-33.527819
1937	1.9370e+000	-63.926697	-33.361285
1938	1.9380e+000	-62.896729	-33.481217
1939	1.9390e+000	-61.828613	-33.301661
1940	1.9400e+000	-60.913086	-33.416796
1941	1.9410e+000	-60.089111	-33.303032
1942	1.9420e+000	-59.165955	-33.261913
1943	1.9430e+000	-57.716370	-33.303032
1944	1.9440e+000	-57.044983	-33.234500
1945	1.9450e+000	-55.885315	-33.192695
1946	1.9460e+000	-54.878235	-33.187897
1947	1.9470e+000	-54.351807	-33.196807
1948	1.9480e+000	-53.131104	-33.168708
1949	1.9490e+000	-51.956177	-32.967908
1950	1.9500e+000	-51.429749	-33.004916
1951	1.9510e+000	-50.003052	-33.247521
1952	1.9520e+000	-48.957825	-32.879501
1953	1.9530e+000	-47.866821	-32.948034
1954	1.9540e+000	-46.836853	-32.917194
1955	1.9550e+000	-45.654297	-32.899376
1956	1.9560e+000	-45.509338	-32.689666
1957	1.9570e+000	-44.113159	-32.785612
1958	1.9580e+000	-42.877197	-32.830158
1959	1.9590e+000	-42.037964	-32.802059
1960	1.9600e+000	-41.313171	-32.753401
1961	1.9610e+000	-40.214539	-32.752031
1962	1.9620e+000	-39.375305	-32.663624
1963	1.9630e+000	-38.032532	-32.789724
1964	1.9640e+000	-37.231445	-32.504628
1965	1.9650e+000	-36.346436	-32.459397
1966	1.9660e+000	-35.003662	-32.628672
1967	1.9670e+000	-33.882141	-32.401144
1968	1.9680e+000	-32.814026	-32.405256
1969	1.9690e+000	-31.814575	-32.318220
1970	1.9700e+000	-30.685425	-32.374416
1971	1.9710e+000	-29.838562	-32.351115
1972	1.9720e+000	-29.212952	-32.260653
1973	1.9730e+000	-27.870178	-32.259282
1974	1.9740e+000	-26.664734	-32.281212
1975	1.9750e+000	-25.978088	-32.198973
1976	1.9760e+000	-25.039673	-31.952942
1977	1.9770e+000	-24.299622	-32.153056
1978	1.9780e+000	-23.101807	-32.196232
1979	1.9790e+000	-21.934509	-32.037922
1980	1.9800e+000	-21.209717	-31.895374
1981	1.9810e+000	-19.790649	-32.318220
1982	1.9820e+000	-19.172668	-31.862479
1983	1.9830e+000	-17.814636	-31.873444
1984	1.9840e+000	-16.799927	-31.747344
1985	1.9850e+000	-16.151428	-31.803541
1986	1.9860e+000	-15.037537	-31.754883
1987	1.9870e+000	-14.152527	-31.746659
1988	1.9880e+000	-12.969971	-31.667846
1989	1.9890e+000	-11.398315	-31.782981
1990	1.9900e+000	-11.161804	-31.630153
1991	1.9910e+000	-10.116577	-31.608223
1992	1.9920e+000	-9.117126	-31.567789
1993	1.9930e+000	-8.178711	-31.649343
1994	1.9940e+000	-6.835938	-31.545173
1995	1.9950e+000	-6.248474	-31.303939
1996	1.9960e+000	-4.852295	-31.477326
1997	1.9970e+000	-4.119873	-31.327240
1998	1.9980e+000	-3.425598	-31.283379
1999	1.9990e+000	-1.731873	-31.241574
2000	2.0000e+000	-1.022339	-31.219644
2001	2.0010e+000	-0.175476	-31.307365

Center data before PMax,±Pr and ±Vc Calc.

PMax (µC/cm2):	9.64e+000
Pr (µC/cm2):	3.14e+001
-Pr (µC/cm2):	-3.13e+001
Vc:	2.29e+000
-Vc:	-2.30e+000
C (Max-Eff) (nF):	2.39e-001
K (Eff):	4.36e+002
Vert. (±Pr) Shift (µC/cm2):	4.98e-002
Horiz. Shift (±Vc):	-4.62e-003
Offset (µC/cm2):	3.11e+001

A (Loop Area - µC/cm2·Volts):	2.53e+002



Hysteresis Version: 5.16.2 - Radiant Technologies, Inc., 1999 - 3/20/18

