»»»»»»»»»»»»»»»»»»»»»»»»»»»»»»»»»»»» Hysteresis ««««««««««««««««««««««««««««««««««««
»»»  Executed Version:	5.16.2
»»»  Vision Version:	5.16.10 (R)
»»»  Vision Compiled:	4/26/18
»»»  Driver Version:	5.16.6
»»»  Windows Version:	Windows 8
»»»  Processor Information:	x86 (AMD or Intel) - 8 Processors
»»»  Tester Name:	PPM21016-863
»»»  Tester S/N:	PPM21016-863
»»»  Internal Amp Type:	 RTI ML200V    
»»»  Internal Amp S/N:	 iAB2-0000     
»»»  Execution Count:	1
»»»»»»»»»»»»»»»»»»»»»»»»»»»»»»»»»»»»»»»»»»««««««««««««««««««««««««««««««««««««««««««

Stored:	6/5/2018 - 7:45:6
Configured:	06/05/18 07:27:31 AM
Executed:	06/05/18 07:44:45 AM

»»»»»»»»»»»»»»»»»»»»»»»»»»»»»»»»»»» Sample Info ««««««««««««««««««««««««««««««««««««
Sample Name:	Internal Reference Cap.
Lot Name:	N/A
Wafer Name:	N/A
Die Row/Column:	0/0
Capacitor Number:	0
Sample Area (cm2):	6.20e-005
Sample Thickness (µm):	1.00e-001

Mux Loop Adjustment:	Disabled

Amplifier:	Internal

»»»»»»»»»»»»»»»»»»»»»»»»»»»»»»»»»»» Tester Info «««««««««««««««««««««««««««««««««««
Tester Name:	PPM21016-863
Tester Serial Number:	PPM21016-863
Return Signal Amp. Level:	1.79 [Index: 2]

»»»»»»»»»»»»»»»»»»»»»»»»»»»»»»»» Hysteresis Info ««««««««««««««««««««««««««««««««««
Task Name:	Hyst-1
Volts:	3.00
Field:	300.00 (kV/cm)
Hysteresis Period (ms):	2.00e+000
Preset:	Enabled
Preset Delay (ms):	1.00e+003
Profile:	Double Bipolar

»»»»»»»»»»»»»»»»»»»»»»»»»»»»»»»»»»»»»» Data «««««««««««««««««««««««««««««««««««««««
Points:	2001

Valid Data

Point	Time (ms)	Field (kV/cm)	Measured Polarization
   1	1.0000e-003	-0.137329	5.743710
   2	2.0000e-003	1.365662	5.799907
   3	3.0000e-003	2.365112	5.887628
   4	4.0000e-003	3.608704	5.971923
   5	5.0000e-003	4.898071	6.052792
   6	6.0000e-003	5.821228	6.150108
   7	7.0000e-003	7.072449	6.277578
   8	8.0000e-003	8.270264	6.405049
   9	9.0000e-003	9.666443	6.518127
  10	1.0000e-002	10.528564	6.630521
  11	1.1000e-002	11.985779	6.788145
  12	1.2000e-002	12.939453	6.960162
  13	1.3000e-002	14.183044	7.139032
  14	1.4000e-002	15.502930	7.352168
  15	1.5000e-002	16.670227	7.524870
  16	1.6000e-002	17.913818	7.725670
  17	1.7000e-002	18.959045	7.964163
  18	1.8000e-002	20.172119	8.216363
  19	1.9000e-002	21.278381	8.456227
  20	2.0000e-002	22.712708	8.727616
  21	2.1000e-002	23.712158	8.972277
  22	2.2000e-002	24.986267	9.249148
  23	2.3000e-002	26.420593	9.526705
  24	2.4000e-002	27.420044	9.861143
  25	2.5000e-002	28.465271	10.162686
  26	2.6000e-002	30.044556	10.471768
  27	2.7000e-002	31.257629	10.789759
  28	2.8000e-002	32.310486	11.108435
  29	2.9000e-002	33.660889	11.436020
  30	3.0000e-002	34.652710	11.774571
  31	3.1000e-002	35.873413	12.126143
  32	3.2000e-002	37.139893	12.449616
  33	3.3000e-002	38.230896	12.790223
  34	3.4000e-002	39.657593	13.130829
  35	3.5000e-002	40.542603	13.483772
  36	3.6000e-002	41.870117	13.835344
  37	3.7000e-002	43.113708	14.175265
  38	3.8000e-002	44.273376	14.532319
  39	3.9000e-002	45.494080	14.870185
  40	4.0000e-002	46.775818	15.227239
  41	4.1000e-002	47.904968	15.574699
  42	4.2000e-002	49.354553	15.924215
  43	4.3000e-002	50.415039	16.278528
  44	4.4000e-002	51.277161	16.610911
  45	4.5000e-002	52.680969	16.971392
  46	4.6000e-002	53.855896	17.301033
  47	4.7000e-002	55.061340	17.649178
  48	4.8000e-002	56.144714	18.000750
  49	4.9000e-002	57.403564	18.322167
  50	5.0000e-002	58.822632	18.651809
  51	5.1000e-002	59.951782	19.008178
  52	5.2000e-002	61.027527	19.351526
  53	5.3000e-002	62.553406	19.690076
  54	5.4000e-002	63.819885	20.046445
  55	5.5000e-002	64.834595	20.389793
  56	5.6000e-002	65.780640	20.730400
  57	5.7000e-002	67.108154	21.075118
  58	5.8000e-002	68.435669	21.434229
  59	5.9000e-002	69.625854	21.767297
  60	6.0000e-002	71.022034	22.138743
  61	6.1000e-002	72.029114	22.465643
  62	6.2000e-002	73.059082	22.809676
  63	6.3000e-002	74.272156	23.160563
  64	6.4000e-002	75.439453	23.515561
  65	6.5000e-002	76.835632	23.832181
  66	6.6000e-002	77.888489	24.168676
  67	6.7000e-002	79.360962	24.498317
  68	6.8000e-002	80.337524	24.829329
  69	6.9000e-002	81.626892	25.187069
  70	7.0000e-002	82.687378	25.539326
  71	7.1000e-002	83.763123	25.871024
  72	7.2000e-002	85.205078	26.186959
  73	7.3000e-002	86.318970	26.530306
  74	7.4000e-002	87.562561	26.858577
  75	7.5000e-002	88.661194	27.206037
  76	7.6000e-002	90.118408	27.521287
  77	7.7000e-002	90.972900	27.852299
  78	7.8000e-002	92.338562	28.166863
  79	7.9000e-002	93.490601	28.481427
  80	8.0000e-002	94.749451	28.803530
  81	8.1000e-002	96.160889	29.130430
  82	8.2000e-002	97.206116	29.399763
  83	8.3000e-002	98.449707	29.704732
  84	8.4000e-002	99.479675	29.984345
  85	8.5000e-002	100.860596	30.289315
  86	8.6000e-002	101.852417	30.586061
  87	8.7000e-002	103.080750	30.858820
  88	8.8000e-002	104.263306	31.149398
  89	8.9000e-002	105.506897	31.384464
  90	9.0000e-002	106.552124	31.688749
  91	9.1000e-002	107.963562	31.942319
  92	9.2000e-002	108.840942	32.211652
  93	9.3000e-002	110.237122	32.469334
  94	9.4000e-002	111.671448	32.706457
  95	9.5000e-002	112.640381	32.940152
  96	9.6000e-002	113.792419	33.164254
  97	9.7000e-002	115.173340	33.415768
  98	9.8000e-002	116.394043	33.636443
  99	9.9000e-002	117.645264	33.836558
 100	1.0000e-001	118.728638	34.051064
 101	1.0100e-001	119.743347	34.262830
 102	1.0200e-001	121.292114	34.462945
 103	1.0300e-001	122.413635	34.645927
 104	1.0400e-001	123.504639	34.828223
 105	1.0500e-001	124.664307	35.024911
 106	1.0600e-001	125.946045	35.194187
 107	1.0700e-001	127.227783	35.386078
 108	1.0800e-001	128.280640	35.545759
 109	1.0900e-001	129.699707	35.717090
 110	1.1000e-001	130.737305	35.860323
 111	1.1100e-001	131.813049	36.010409
 112	1.1200e-001	133.216858	36.176258
 113	1.1300e-001	134.422302	36.316064
 114	1.1400e-001	135.414124	36.450388
 115	1.1500e-001	136.909485	36.587453
 116	1.1600e-001	137.847900	36.713553
 117	1.1700e-001	139.183044	36.847876
 118	1.1800e-001	140.327454	36.968494
 119	1.1900e-001	141.624451	37.095279
 120	1.2000e-001	142.753601	37.199448
 121	1.2100e-001	144.042969	37.309785
 122	1.2200e-001	145.309448	37.429717
 123	1.2300e-001	146.484375	37.548964
 124	1.2400e-001	147.354126	37.652448
 125	1.2500e-001	148.674011	37.760729
 126	1.2600e-001	149.894714	37.853934
 127	1.2700e-001	151.329041	37.942341
 128	1.2800e-001	152.549744	38.047881
 129	1.2900e-001	153.602600	38.127378
 130	1.3000e-001	154.891968	38.234974
 131	1.3100e-001	155.937195	38.319269
 132	1.3200e-001	157.325745	38.383005
 133	1.3300e-001	158.485413	38.472097
 134	1.3400e-001	159.530640	38.553651
 135	1.3500e-001	160.758972	38.644113
 136	1.3600e-001	161.903381	38.712646
 137	1.3700e-001	163.154602	38.785976
 138	1.3800e-001	164.421082	38.868215
 139	1.3900e-001	165.306091	38.919614
 140	1.4000e-001	166.580200	39.008706
 141	1.4100e-001	167.945862	39.093001
 142	1.4200e-001	169.204712	39.160163
 143	1.4300e-001	170.372009	39.223899
 144	1.4400e-001	171.424866	39.284207
 145	1.4500e-001	172.706604	39.354110
 146	1.4600e-001	173.912048	39.420587
 147	1.4700e-001	175.102234	39.497343
 148	1.4800e-001	176.376343	39.563134
 149	1.4900e-001	177.604675	39.600827
 150	1.5000e-001	178.688049	39.663877
 151	1.5100e-001	179.847717	39.741319
 152	1.5200e-001	181.175232	39.794774
 153	1.5300e-001	182.136536	39.844118
 154	1.5400e-001	183.631897	39.909909
 155	1.5500e-001	184.860229	39.974330
 156	1.5600e-001	186.218262	40.036694
 157	1.5700e-001	187.088013	40.094261
 158	1.5800e-001	188.476563	40.152514
 159	1.5900e-001	189.674377	40.199116
 160	1.6000e-001	191.024780	40.253942
 161	1.6100e-001	191.894531	40.295062
 162	1.6200e-001	193.138123	40.362224
 163	1.6300e-001	194.328308	40.406770
 164	1.6400e-001	195.457458	40.473932
 165	1.6500e-001	196.632385	40.506827
 166	1.6600e-001	197.807312	40.558227
 167	1.6700e-001	199.195862	40.619220
 168	1.6800e-001	200.294495	40.665823
 169	1.6900e-001	201.469421	40.722019
 170	1.7000e-001	202.865601	40.761083
 171	1.7100e-001	203.781128	40.827559
 172	1.7200e-001	204.986572	40.859770
 173	1.7300e-001	206.291199	40.920078
 174	1.7400e-001	207.496643	40.968736
 175	1.7500e-001	208.869934	41.027674
 176	1.7600e-001	209.678650	41.064682
 177	1.7700e-001	211.341858	41.114025
 178	1.7800e-001	212.173462	41.151718
 179	1.7900e-001	213.562012	41.203803
 180	1.8000e-001	214.714050	41.252461
 181	1.8100e-001	216.186523	41.319623
 182	1.8200e-001	217.239380	41.327847
 183	1.8300e-001	218.421936	41.377190
 184	1.8400e-001	219.474792	41.427219
 185	1.8500e-001	220.726013	41.482730
 186	1.8600e-001	222.023010	41.523164
 187	1.8700e-001	223.167419	41.570452
 188	1.8800e-001	224.411011	41.615683
 189	1.8900e-001	225.395203	41.644467
 190	1.9000e-001	226.692200	41.715055
 191	1.9100e-001	228.012085	41.756860
 192	1.9200e-001	229.393005	41.797294
 193	1.9300e-001	230.339050	41.841841
 194	1.9400e-001	231.582642	41.873365
 195	1.9500e-001	232.635498	41.920653
 196	1.9600e-001	233.863831	41.964514
 197	1.9700e-001	235.221863	42.004948
 198	1.9800e-001	236.251831	42.079648
 199	1.9900e-001	237.548828	42.081019
 200	2.0000e-001	238.716125	42.124194
 201	2.0100e-001	239.906311	42.171482
 202	2.0200e-001	241.294861	42.229735
 203	2.0300e-001	242.561340	42.257148
 204	2.0400e-001	243.156433	42.277022
 205	2.0500e-001	244.705200	42.327736
 206	2.0600e-001	246.032715	42.366114
 207	2.0700e-001	247.154236	42.422996
 208	2.0800e-001	248.390198	42.468228
 209	2.0900e-001	249.580383	42.501809
 210	2.1000e-001	250.724792	42.543613
 211	2.1100e-001	252.067566	42.582677
 212	2.1200e-001	253.036499	42.618314
 213	2.1300e-001	254.287720	42.655321
 214	2.1400e-001	255.538940	42.696441
 215	2.1500e-001	256.752014	42.743043
 216	2.1600e-001	257.896423	42.773883
 217	2.1700e-001	258.956909	42.815688
 218	2.1800e-001	260.429382	42.843101
 219	2.1900e-001	261.482239	42.889017
 220	2.2000e-001	262.657166	42.928081
 221	2.2100e-001	263.938904	42.963032
 222	2.2200e-001	265.098572	43.011691
 223	2.2300e-001	266.479492	43.034992
 224	2.2400e-001	267.555237	43.076111
 225	2.2500e-001	268.745422	43.119972
 226	2.2600e-001	270.011902	43.153553
 227	2.2700e-001	270.973206	43.200840
 228	2.2800e-001	272.270203	43.234421
 229	2.2900e-001	273.590088	43.276226
 230	2.3000e-001	274.673462	43.307066
 231	2.3100e-001	275.802612	43.336535
 232	2.3200e-001	277.305603	43.379710
 233	2.3300e-001	278.076172	43.401641
 234	2.3400e-001	279.472351	43.458522
 235	2.3500e-001	280.784607	43.499642
 236	2.3600e-001	282.035828	43.524999
 237	2.3700e-001	283.325195	43.567489
 238	2.3800e-001	284.255981	43.597643
 239	2.3900e-001	285.514832	43.610665
 240	2.4000e-001	286.735535	43.657267
 241	2.4100e-001	287.910461	43.720317
 242	2.4200e-001	289.237976	43.743618
 243	2.4300e-001	290.428162	43.777884
 244	2.4400e-001	291.534424	43.808724
 245	2.4500e-001	292.892456	43.849158
 246	2.4600e-001	293.945313	43.878627
 247	2.4700e-001	295.204163	43.916320
 248	2.4800e-001	296.478271	43.952642
 249	2.4900e-001	297.569275	43.975943
 250	2.5000e-001	298.698425	44.006783
 251	2.5100e-001	299.957275	44.056126
 252	2.5200e-001	298.797607	44.022545
 253	2.5300e-001	297.607422	44.006783
 254	2.5400e-001	296.356201	43.997188
 255	2.5500e-001	295.112610	43.960866
 256	2.5600e-001	293.739319	43.927285
 257	2.5700e-001	292.480469	43.913578
 258	2.5800e-001	291.427612	43.898501
 259	2.5900e-001	290.283203	43.856011
 260	2.6000e-001	289.306641	43.833395
 261	2.6100e-001	288.246155	43.791591
 262	2.6200e-001	286.613464	43.781311
 263	2.6300e-001	285.697937	43.758695
 264	2.6400e-001	284.362793	43.725114
 265	2.6500e-001	283.378601	43.695645
 266	2.6600e-001	281.974792	43.666176
 267	2.6700e-001	280.769348	43.646302
 268	2.6800e-001	279.525757	43.604497
 269	2.6900e-001	278.366089	43.587364
 270	2.7000e-001	277.229309	43.552412
 271	2.7100e-001	275.894165	43.543503
 272	2.7200e-001	274.566650	43.504439
 273	2.7300e-001	273.475647	43.467432
 274	2.7400e-001	272.308350	43.446872
 275	2.7500e-001	271.087646	43.422886
 276	2.7600e-001	269.996643	43.387249
 277	2.7700e-001	268.516541	43.363948
 278	2.7800e-001	267.440796	43.318031
 279	2.7900e-001	266.197205	43.330367
 280	2.8000e-001	264.984131	43.259778
 281	2.8100e-001	263.763428	43.243330
 282	2.8200e-001	262.847900	43.210435
 283	2.8300e-001	261.436462	43.172057
 284	2.8400e-001	260.299683	43.136420
 285	2.8500e-001	259.132385	43.126825
 286	2.8600e-001	257.972717	43.083650
 287	2.8700e-001	256.660461	43.074055
 288	2.8800e-001	255.485535	43.032936
 289	2.8900e-001	254.257202	43.009635
 290	2.9000e-001	253.318787	42.971942
 291	2.9100e-001	251.960754	42.951382
 292	2.9200e-001	250.976563	42.915060
 293	2.9300e-001	249.649048	42.893815
 294	2.9400e-001	248.092651	42.843101
 295	2.9500e-001	247.169495	42.819114
 296	2.9600e-001	246.086121	42.792386
 297	2.9700e-001	244.667053	42.736875
 298	2.9800e-001	243.499756	42.740987
 299	2.9900e-001	242.271423	42.695070
 300	3.0000e-001	241.127014	42.677937
 301	3.0100e-001	239.997864	42.632020
 302	3.0200e-001	238.746643	42.597754
 303	3.0300e-001	237.533569	42.561432
 304	3.0400e-001	236.503601	42.538816
 305	3.0500e-001	235.313416	42.504550
 306	3.0600e-001	233.802795	42.460004
 307	3.0700e-001	232.734680	42.429164
 308	3.0800e-001	231.582642	42.412716
 309	3.0900e-001	230.186462	42.382562
 310	3.1000e-001	229.362488	42.340757
 311	3.1100e-001	227.821350	42.309918
 312	3.1200e-001	226.776123	42.257148
 313	3.1300e-001	225.379944	42.245497
 314	3.1400e-001	224.494934	42.205748
 315	3.1500e-001	223.060608	42.198210
 316	3.1600e-001	221.900940	42.131048
 317	3.1700e-001	220.542908	42.106376
 318	3.1800e-001	219.406128	42.069368
 319	3.1900e-001	218.406677	42.037843
 320	3.2000e-001	217.163086	42.004948
 321	3.2100e-001	215.812683	41.967940
 322	3.2200e-001	214.752197	41.937786
 323	3.2300e-001	213.432312	41.891869
 324	3.2400e-001	212.089539	41.876792
 325	3.2500e-001	211.372375	41.830875
 326	3.2600e-001	209.831238	41.797980
 327	3.2700e-001	208.892822	41.776049
 328	3.2800e-001	207.504272	41.726021
 329	3.2900e-001	206.451416	41.678048
 330	3.3000e-001	205.230713	41.640355
 331	3.3100e-001	203.880310	41.626648
 332	3.3200e-001	202.819824	41.573193
 333	3.3300e-001	201.538086	41.507402
 334	3.3400e-001	200.416565	41.508087
 335	3.3500e-001	199.104309	41.469024
 336	3.3600e-001	198.089600	41.414883
 337	3.3700e-001	196.754456	41.392953
 338	3.3800e-001	195.648193	41.355260
 339	3.3900e-001	194.465637	41.313455
 340	3.4000e-001	192.985535	41.273021
 341	3.4100e-001	192.001343	41.236013
 342	3.4200e-001	190.673828	41.227104
 343	3.4300e-001	189.659119	41.168851
 344	3.4400e-001	188.461304	41.128417
 345	3.4500e-001	187.072754	41.085242
 346	3.4600e-001	185.989380	41.031786
 347	3.4700e-001	184.745789	41.011226
 348	3.4800e-001	183.563232	40.974219
 349	3.4900e-001	182.228088	40.924875
 350	3.5000e-001	181.121826	40.885127
 351	3.5100e-001	179.847717	40.858399
 352	3.5200e-001	178.634644	40.800832
 353	3.5300e-001	177.589417	40.770677
 354	3.5400e-001	176.635742	40.730928
 355	3.5500e-001	175.239563	40.680214
 356	3.5600e-001	173.927307	40.641151
 357	3.5700e-001	172.775269	40.556171
 358	3.5800e-001	171.684265	40.572618
 359	3.5900e-001	170.234680	40.521904
 360	3.6000e-001	169.052124	40.476673
 361	3.6100e-001	168.037415	40.428015
 362	3.6200e-001	166.671753	40.386895
 363	3.6300e-001	165.435791	40.347832
 364	3.6400e-001	164.337158	40.298488
 365	3.6500e-001	163.047791	40.269705
 366	3.6600e-001	162.048340	40.213508
 367	3.6700e-001	160.484314	40.165535
 368	3.6800e-001	159.805298	40.112765
 369	3.6900e-001	158.172607	40.053142
 370	3.7000e-001	157.112122	40.033267
 371	3.7100e-001	156.051636	39.998316
 372	3.7200e-001	154.556274	39.955826
 373	3.7300e-001	153.694153	39.907168
 374	3.7400e-001	152.572632	39.844803
 375	3.7500e-001	151.023865	39.810537
 376	3.7600e-001	149.963379	39.760508
 377	3.7700e-001	148.765564	39.715277
 378	3.7800e-001	147.636414	39.660451
 379	3.7900e-001	146.385193	39.615219
 380	3.8000e-001	145.263672	39.563134
 381	3.8100e-001	143.959045	39.515847
 382	3.8200e-001	142.730713	39.471301
 383	3.8300e-001	141.548157	39.414419
 384	3.8400e-001	140.426636	39.378097
 385	3.8500e-001	139.045715	39.312991
 386	3.8600e-001	138.259888	39.291746
 387	3.8700e-001	136.894226	39.214989
 388	3.8800e-001	135.650635	39.171814
 389	3.8900e-001	134.437561	39.103967
 390	3.9000e-001	133.293152	39.042973
 391	3.9100e-001	131.813049	39.012818
 392	3.9200e-001	130.805969	38.948398
 393	3.9300e-001	129.447937	38.893572
 394	3.9400e-001	128.417969	38.840116
 395	3.9500e-001	127.204895	38.793514
 396	3.9600e-001	125.793457	38.738688
 397	3.9700e-001	124.580383	38.664673
 398	3.9800e-001	123.565674	38.638631
 399	3.9900e-001	122.406006	38.581064
 400	4.0000e-001	121.307373	38.502936
 401	4.0100e-001	119.697571	38.446054
 402	4.0200e-001	118.827820	38.398082
 403	4.0300e-001	117.424011	38.340514
 404	4.0400e-001	116.256714	38.263073
 405	4.0500e-001	115.135193	38.200023
 406	4.0600e-001	113.945007	38.156162
 407	4.0700e-001	112.892151	38.084203
 408	4.0800e-001	111.488342	38.030747
 409	4.0900e-001	110.153198	37.958103
 410	4.1000e-001	109.123230	37.897109
 411	4.1100e-001	108.146667	37.838856
 412	4.1200e-001	106.521606	37.754561
 413	4.1300e-001	105.377197	37.705903
 414	4.1400e-001	104.408264	37.640797
 415	4.1500e-001	103.096008	37.581174
 416	4.1600e-001	101.699829	37.493453
 417	4.1700e-001	100.837708	37.418752
 418	4.1800e-001	99.571228	37.342681
 419	4.1900e-001	98.320007	37.288540
 420	4.2000e-001	96.969604	37.201504
 421	4.2100e-001	96.000671	37.137083
 422	4.2200e-001	94.665527	37.069922
 423	4.2300e-001	93.566895	36.959584
 424	4.2400e-001	92.254639	36.904758
 425	4.2500e-001	91.255188	36.831428
 426	4.2600e-001	89.859009	36.745763
 427	4.2700e-001	88.806152	36.650503
 428	4.2800e-001	87.738037	36.574432
 429	4.2900e-001	86.624146	36.475059
 430	4.3000e-001	85.372925	36.399674
 431	4.3100e-001	83.747864	36.298246
 432	4.3200e-001	82.733154	36.226286
 433	4.3300e-001	81.657410	36.122802
 434	4.3400e-001	80.505371	36.017262
 435	4.3500e-001	79.139709	35.917890
 436	4.3600e-001	78.269958	35.795217
 437	4.3700e-001	76.835632	35.716404
 438	4.3800e-001	75.614929	35.596473
 439	4.3900e-001	74.478149	35.493674
 440	4.4000e-001	73.066711	35.365518
 441	4.4100e-001	72.044373	35.268887
 442	4.4200e-001	70.808411	35.137990
 443	4.4300e-001	69.305420	35.015317
 444	4.4400e-001	68.321228	34.878252
 445	4.4500e-001	67.306519	34.775453
 446	4.4600e-001	65.933228	34.615087
 447	4.4700e-001	64.918518	34.492414
 448	4.4800e-001	63.629150	34.332048
 449	4.4900e-001	62.522888	34.197724
 450	4.5000e-001	61.187744	34.016798
 451	4.5100e-001	59.951782	33.878362
 452	4.5200e-001	58.746338	33.713884
 453	4.5300e-001	57.746887	33.552148
 454	4.5400e-001	56.365967	33.358201
 455	4.5500e-001	55.030823	33.177960
 456	4.5600e-001	54.130554	32.993608
 457	4.5700e-001	52.795410	32.789381
 458	4.5800e-001	51.452637	32.608455
 459	4.5900e-001	50.476074	32.394634
 460	4.6000e-001	49.201965	32.196575
 461	4.6100e-001	47.897339	31.962879
 462	4.6200e-001	46.722412	31.739463
 463	4.6300e-001	45.295715	31.468759
 464	4.6400e-001	44.448853	31.247399
 465	4.6500e-001	43.395996	31.006165
 466	4.6600e-001	42.106628	30.747797
 467	4.6700e-001	40.702820	30.464758
 468	4.6800e-001	39.604187	30.185145
 469	4.6900e-001	38.253784	29.900735
 470	4.7000e-001	37.033081	29.623179
 471	4.7100e-001	36.231995	29.320265
 472	4.7200e-001	34.881592	29.000218
 473	4.7300e-001	33.470154	28.684969
 474	4.7400e-001	32.417297	28.341621
 475	4.7500e-001	31.150818	28.034595
 476	4.7600e-001	30.227661	27.667946
 477	4.7700e-001	28.938293	27.337619
 478	4.7800e-001	27.305603	26.964803
 479	4.7900e-001	26.283264	26.595412
 480	4.8000e-001	25.100708	26.182847
 481	4.8100e-001	24.131775	25.855947
 482	4.8200e-001	22.865295	25.441325
 483	4.8300e-001	21.537781	25.030815
 484	4.8400e-001	20.324707	24.611396
 485	4.8500e-001	19.119263	24.182383
 486	4.8600e-001	18.104553	23.776670
 487	4.8700e-001	16.815186	23.339433
 488	4.8800e-001	15.716553	22.914531
 489	4.8900e-001	14.289856	22.473182
 490	4.9000e-001	13.137817	22.019496
 491	4.9100e-001	12.084961	21.560329
 492	4.9200e-001	10.650635	21.123776
 493	4.9300e-001	9.742737	20.674203
 494	4.9400e-001	8.255005	20.221889
 495	4.9500e-001	7.133484	19.740105
 496	4.9600e-001	5.935669	19.284364
 497	4.9700e-001	4.783630	18.832049
 498	4.9800e-001	3.555298	18.375623
 499	4.9900e-001	2.227783	17.912343
 500	5.0000e-001	1.159668	17.468938
 501	5.0100e-001	0.083923	17.019364
 502	5.0200e-001	-1.106262	16.556084
 503	5.0300e-001	-2.494812	16.118847
 504	5.0400e-001	-3.540039	15.689834
 505	5.0500e-001	-4.730225	15.271785
 506	5.0600e-001	-5.783081	14.841401
 507	5.0700e-001	-7.003784	14.420611
 508	5.0800e-001	-8.346558	14.032032
 509	5.0900e-001	-9.628296	13.636599
 510	5.1000e-001	-10.696411	13.247335
 511	5.1100e-001	-11.947632	12.869035
 512	5.1200e-001	-13.130188	12.464008
 513	5.1300e-001	-14.266968	12.095303
 514	5.1400e-001	-15.594482	11.728654
 515	5.1500e-001	-16.754150	11.365432
 516	5.1600e-001	-18.020630	11.015231
 517	5.1700e-001	-19.149780	10.634190
 518	5.1800e-001	-20.217896	10.258632
 519	5.1900e-001	-21.629333	9.909116
 520	5.2000e-001	-22.712708	9.554803
 521	5.2100e-001	-24.047852	9.197063
 522	5.2200e-001	-25.070190	8.835897
 523	5.2300e-001	-26.443481	8.482269
 524	5.2400e-001	-27.359009	8.106026
 525	5.2500e-001	-28.945923	7.745545
 526	5.2600e-001	-29.975891	7.400826
 527	5.2700e-001	-31.066895	7.024583
 528	5.2800e-001	-32.356262	6.653822
 529	5.2900e-001	-33.546448	6.276208
 530	5.3000e-001	-34.835815	5.878034
 531	5.3100e-001	-35.919189	5.496993
 532	5.3200e-001	-37.055969	5.120064
 533	5.3300e-001	-38.276672	4.712296
 534	5.3400e-001	-39.451599	4.316178
 535	5.3500e-001	-40.763855	3.896759
 536	5.3600e-001	-41.908264	3.500641
 537	5.3700e-001	-43.121338	3.086704
 538	5.3800e-001	-44.219971	2.674139
 539	5.3900e-001	-45.608521	2.256776
 540	5.4000e-001	-46.752930	1.836671
 541	5.4100e-001	-47.996521	1.383671
 542	5.4200e-001	-49.179077	0.964938
 543	5.4300e-001	-50.163269	0.530442
 544	5.4400e-001	-51.475525	0.100057
 545	5.4500e-001	-52.566528	-0.351572
 546	5.4600e-001	-54.061890	-0.794292
 547	5.4700e-001	-55.015564	-1.253460
 548	5.4800e-001	-56.022644	-1.705774
 549	5.4900e-001	-57.723999	-2.146438
 550	5.5000e-001	-58.708191	-2.632334
 551	5.5100e-001	-59.959412	-3.107264
 552	5.5200e-001	-61.004639	-3.598642
 553	5.5300e-001	-62.149048	-4.082482
 554	5.5400e-001	-63.369751	-4.560153
 555	5.5500e-001	-64.750671	-5.040566
 556	5.5600e-001	-65.986633	-5.520979
 557	5.5700e-001	-67.283630	-6.009616
 558	5.5800e-001	-68.321228	-6.527037
 559	5.5900e-001	-69.641113	-7.028009
 560	5.6000e-001	-70.701599	-7.531038
 561	5.6100e-001	-71.922302	-8.024472
 562	5.6200e-001	-73.104858	-8.544634
 563	5.6300e-001	-74.264526	-9.059998
 564	5.6400e-001	-75.469971	-9.584957
 565	5.6500e-001	-76.713562	-10.085930
 566	5.6600e-001	-77.827454	-10.605406
 567	5.6700e-001	-79.071045	-11.136533
 568	5.6800e-001	-80.268860	-11.672458
 569	5.6900e-001	-81.336975	-12.195361
 570	5.7000e-001	-82.725525	-12.710040
 571	5.7100e-001	-83.885193	-13.251447
 572	5.7200e-001	-85.403442	-13.768182
 573	5.7300e-001	-86.402893	-14.272581
 574	5.7400e-001	-87.303162	-14.811932
 575	5.7500e-001	-88.638306	-15.315646
 576	5.7600e-001	-89.813232	-15.807709
 577	5.7700e-001	-91.102600	-16.335410
 578	5.7800e-001	-92.514038	-16.836382
 579	5.7900e-001	-93.513489	-17.340096
 580	5.8000e-001	-94.642639	-17.843810
 581	5.8100e-001	-95.909119	-18.341356
 582	5.8200e-001	-97.091675	-18.823140
 583	5.8300e-001	-98.274231	-19.310406
 584	5.8400e-001	-99.464417	-19.811379
 585	5.8500e-001	-100.746155	-20.297960
 586	5.8600e-001	-101.928711	-20.787282
 587	5.8700e-001	-103.179932	-21.244394
 588	5.8800e-001	-104.362488	-21.719324
 589	5.8900e-001	-105.690002	-22.177121
 590	5.9000e-001	-106.811523	-22.649310
 591	5.9100e-001	-107.963562	-23.101625
 592	5.9200e-001	-109.245300	-23.525841
 593	5.9300e-001	-110.191345	-23.991177
 594	5.9400e-001	-111.495972	-24.412652
 595	5.9500e-001	-112.884521	-24.851945
 596	5.9600e-001	-114.006042	-25.283700
 597	5.9700e-001	-115.112305	-25.723679
 598	5.9800e-001	-116.249084	-26.142412
 599	5.9900e-001	-117.553711	-26.546754
 600	6.0000e-001	-118.721008	-26.986733
 601	6.0100e-001	-119.895935	-27.372571
 602	6.0200e-001	-120.803833	-27.791305
 603	6.0300e-001	-122.360229	-28.181940
 604	6.0400e-001	-123.481750	-28.560239
 605	6.0500e-001	-124.664307	-28.952245
 606	6.0600e-001	-125.877380	-29.320950
 607	6.0700e-001	-127.159119	-29.685543
 608	6.0800e-001	-128.334045	-30.062472
 609	6.0900e-001	-129.577637	-30.392114
 610	6.1000e-001	-130.645752	-30.736832
 611	6.1100e-001	-131.927490	-31.069900
 612	6.1200e-001	-133.110046	-31.407765
 613	6.1300e-001	-134.254456	-31.717532
 614	6.1400e-001	-135.467529	-32.041691
 615	6.1500e-001	-136.718750	-32.342549
 616	6.1600e-001	-137.878418	-32.637924
 617	6.1700e-001	-139.328003	-32.935355
 618	6.1800e-001	-140.174866	-33.208115
 619	6.1900e-001	-141.448975	-33.482245
 620	6.2000e-001	-142.662048	-33.739241
 621	6.2100e-001	-144.004822	-34.006518
 622	6.2200e-001	-145.080566	-34.274480
 623	6.2300e-001	-146.430969	-34.493784
 624	6.2400e-001	-147.453308	-34.734334
 625	6.2500e-001	-148.735046	-34.950896
 626	6.2600e-001	-150.230408	-35.161291
 627	6.2700e-001	-151.062012	-35.355238
 628	6.2800e-001	-152.343750	-35.554668
 629	6.2900e-001	-153.465271	-35.765748
 630	6.3000e-001	-154.724121	-35.953527
 631	6.3100e-001	-155.807495	-36.125544
 632	6.3200e-001	-157.310486	-36.290707
 633	6.3300e-001	-158.203125	-36.461353
 634	6.3400e-001	-159.317017	-36.629258
 635	6.3500e-001	-160.804749	-36.782085
 636	6.3600e-001	-162.025452	-36.923262
 637	6.3700e-001	-163.299561	-37.065124
 638	6.3800e-001	-164.459229	-37.211099
 639	6.3900e-001	-165.466309	-37.339254
 640	6.4000e-001	-166.694641	-37.463984
 641	6.4100e-001	-167.877197	-37.605846
 642	6.4200e-001	-169.219971	-37.708645
 643	6.4300e-001	-170.417786	-37.829947
 644	6.4400e-001	-171.691895	-37.937543
 645	6.4500e-001	-172.660828	-38.058160
 646	6.4600e-001	-174.003601	-38.173980
 647	6.4700e-001	-175.155640	-38.274723
 648	6.4800e-001	-176.383972	-38.378207
 649	6.4900e-001	-177.467346	-38.471412
 650	6.5000e-001	-178.581238	-38.581749
 651	6.5100e-001	-179.885864	-38.653708
 652	6.5200e-001	-181.083679	-38.762675
 653	6.5300e-001	-182.518005	-38.838746
 654	6.5400e-001	-183.326721	-38.926467
 655	6.5500e-001	-184.844971	-39.007336
 656	6.5600e-001	-185.951233	-39.106023
 657	6.5700e-001	-187.103271	-39.184835
 658	6.5800e-001	-188.270569	-39.235549
 659	6.5900e-001	-189.666748	-39.339033
 660	6.6000e-001	-190.750122	-39.408936
 661	6.6100e-001	-192.123413	-39.484322
 662	6.6200e-001	-192.916870	-39.569302
 663	6.6300e-001	-194.442749	-39.646059
 664	6.6400e-001	-195.472717	-39.711850
 665	6.6500e-001	-196.868896	-39.785180
 666	6.6600e-001	-197.929382	-39.853712
 667	6.6700e-001	-199.081421	-39.922930
 668	6.6800e-001	-200.294495	-39.999001
 669	6.6900e-001	-201.583862	-40.057254
 670	6.7000e-001	-202.697754	-40.118933
 671	6.7100e-001	-203.979492	-40.186095
 672	6.7200e-001	-205.078125	-40.262851
 673	6.7300e-001	-206.245422	-40.307398
 674	6.7400e-001	-207.359314	-40.386210
 675	6.7500e-001	-208.885193	-40.443777
 676	6.7600e-001	-209.770203	-40.458169
 677	6.7700e-001	-211.051941	-40.555485
 678	6.7800e-001	-212.486267	-40.617850
 679	6.7900e-001	-213.821411	-40.672676
 680	6.8000e-001	-214.576721	-40.748747
 681	6.8100e-001	-216.026306	-40.815223
 682	6.8200e-001	-217.147827	-40.850860
 683	6.8300e-001	-218.215942	-40.899518
 684	6.8400e-001	-219.383240	-40.968051
 685	6.8500e-001	-220.657349	-41.035213
 686	6.8600e-001	-222.061157	-41.076332
 687	6.8700e-001	-223.167419	-41.139382
 688	6.8800e-001	-224.243164	-41.187355
 689	6.8900e-001	-225.570679	-41.234642
 690	6.9000e-001	-226.989746	-41.287412
 691	6.9100e-001	-227.752686	-41.351148
 692	6.9200e-001	-229.270935	-41.389526
 693	6.9300e-001	-230.377197	-41.436128
 694	6.9400e-001	-231.590271	-41.489583
 695	6.9500e-001	-232.467651	-41.530018
 696	6.9600e-001	-233.734131	-41.588956
 697	6.9700e-001	-235.229492	-41.656117
 698	6.9800e-001	-236.289978	-41.683530
 699	6.9900e-001	-237.358093	-41.723965
 700	7.0000e-001	-238.761902	-41.803462
 701	7.0100e-001	-239.845276	-41.836358
 702	7.0200e-001	-241.226196	-41.890499
 703	7.0300e-001	-242.248535	-41.934359
 704	7.0400e-001	-243.515015	-41.975479
 705	7.0500e-001	-244.621277	-42.026193
 706	7.0600e-001	-245.635986	-42.076907
 707	7.0700e-001	-247.093201	-42.119397
 708	7.0800e-001	-248.405457	-42.167370
 709	7.0900e-001	-249.603271	-42.200951
 710	7.1000e-001	-250.755310	-42.259889
 711	7.1100e-001	-251.800537	-42.294840
 712	7.1200e-001	-253.303528	-42.347610
 713	7.1300e-001	-254.455566	-42.381877
 714	7.1400e-001	-255.508423	-42.440815
 715	7.1500e-001	-256.591797	-42.481249
 716	7.1600e-001	-258.003235	-42.508662
 717	7.1700e-001	-259.246826	-42.567600
 718	7.1800e-001	-260.131836	-42.611461
 719	7.1900e-001	-261.619568	-42.647783
 720	7.2000e-001	-262.741089	-42.687532
 721	7.2100e-001	-264.022827	-42.721113
 722	7.2200e-001	-265.251160	-42.774568
 723	7.2300e-001	-266.548157	-42.810890
 724	7.2400e-001	-267.837524	-42.863660
 725	7.2500e-001	-269.027710	-42.886276
 726	7.2600e-001	-270.095825	-42.941102
 727	7.2700e-001	-271.240234	-42.977424
 728	7.2800e-001	-272.560120	-43.003467
 729	7.2900e-001	-273.635864	-43.041845
 730	7.3000e-001	-274.887085	-43.106951
 731	7.3100e-001	-276.199341	-43.128196
 732	7.3200e-001	-277.160645	-43.184392
 733	7.3300e-001	-278.305054	-43.208379
 734	7.3400e-001	-279.830933	-43.268002
 735	7.3500e-001	-280.891418	-43.294044
 736	7.3600e-001	-281.845093	-43.337220
 737	7.3700e-001	-283.187866	-43.376283
 738	7.3800e-001	-284.355164	-43.411235
 739	7.3900e-001	-285.583496	-43.450984
 740	7.4000e-001	-286.773682	-43.477026
 741	7.4100e-001	-287.872314	-43.536650
 742	7.4200e-001	-289.260864	-43.570916
 743	7.4300e-001	-290.573120	-43.596273
 744	7.4400e-001	-291.473389	-43.637392
 745	7.4500e-001	-292.800903	-43.686050
 746	7.4600e-001	-293.945313	-43.725799
 747	7.4700e-001	-295.021057	-43.761436
 748	7.4800e-001	-296.325684	-43.795017
 749	7.4900e-001	-297.668457	-43.825171
 750	7.5000e-001	-298.690796	-43.863550
 751	7.5100e-001	-299.758911	-43.911522
 752	7.5200e-001	-298.690796	-43.889592
 753	7.5300e-001	-297.637939	-43.875885
 754	7.5400e-001	-296.363831	-43.838193
 755	7.5500e-001	-295.211792	-43.837507
 756	7.5600e-001	-293.899536	-43.779940
 757	7.5700e-001	-292.541504	-43.761436
 758	7.5800e-001	-291.687012	-43.742247
 759	7.5900e-001	-290.374756	-43.690848
 760	7.6000e-001	-288.986206	-43.681253
 761	7.6100e-001	-287.879944	-43.644931
 762	7.6200e-001	-286.613464	-43.623001
 763	7.6300e-001	-285.415649	-43.592161
 764	7.6400e-001	-284.255981	-43.572972
 765	7.6500e-001	-283.210754	-43.540762
 766	7.6600e-001	-282.028198	-43.509237
 767	7.6700e-001	-280.822754	-43.473600
 768	7.6800e-001	-279.678345	-43.465376
 769	7.6900e-001	-278.182983	-43.417403
 770	7.7000e-001	-277.252197	-43.392046
 771	7.7100e-001	-275.985718	-43.376283
 772	7.7200e-001	-274.719238	-43.331737
 773	7.7300e-001	-273.620605	-43.302268
 774	7.7400e-001	-272.399902	-43.274170
 775	7.7500e-001	-271.072388	-43.257722
 776	7.7600e-001	-270.011902	-43.208379
 777	7.7700e-001	-268.768311	-43.184392
 778	7.7800e-001	-267.517090	-43.161777
 779	7.7900e-001	-266.319275	-43.138476
 780	7.8000e-001	-265.144348	-43.114489
 781	7.8100e-001	-263.839722	-43.061034
 782	7.8200e-001	-262.657166	-43.021970
 783	7.8300e-001	-261.482239	-42.990445
 784	7.8400e-001	-260.269165	-42.971256
 785	7.8500e-001	-259.300232	-42.939046
 786	7.8600e-001	-257.919312	-42.900668
 787	7.8700e-001	-256.706238	-42.888332
 788	7.8800e-001	-255.783081	-42.843786
 789	7.8900e-001	-254.318237	-42.797184
 790	7.9000e-001	-253.097534	-42.788960
 791	7.9100e-001	-251.846313	-42.755379
 792	7.9200e-001	-250.801086	-42.708091
 793	7.9300e-001	-249.435425	-42.667657
 794	7.9400e-001	-248.283386	-42.642986
 795	7.9500e-001	-247.329712	-42.608719
 796	7.9600e-001	-246.139526	-42.574453
 797	7.9700e-001	-244.552612	-42.544984
 798	7.9800e-001	-243.476868	-42.517571
 799	7.9900e-001	-242.340088	-42.474396
 800	8.0000e-001	-241.065979	-42.440815
 801	8.0100e-001	-239.936829	-42.415458
 802	8.0200e-001	-238.853455	-42.377765
 803	8.0300e-001	-237.487793	-42.353093
 804	8.0400e-001	-236.289978	-42.302379
 805	8.0500e-001	-235.237122	-42.270169
 806	8.0600e-001	-234.016418	-42.219455
 807	8.0700e-001	-232.711792	-42.204378
 808	8.0800e-001	-231.567383	-42.170797
 809	8.0900e-001	-230.361938	-42.125565
 810	8.1000e-001	-229.141235	-42.081019
 811	8.1100e-001	-227.966309	-42.046067
 812	8.1200e-001	-226.875305	-42.026193
 813	8.1300e-001	-225.494385	-41.982332
 814	8.1400e-001	-224.319458	-41.960402
 815	8.1500e-001	-223.220825	-41.910373
 816	8.1600e-001	-221.817017	-41.871995
 817	8.1700e-001	-220.962524	-41.852806
 818	8.1800e-001	-219.619751	-41.806889
 819	8.1900e-001	-218.338013	-41.762343
 820	8.2000e-001	-217.086792	-41.734244
 821	8.2100e-001	-215.980530	-41.720538
 822	8.2200e-001	-214.645386	-41.651320
 823	8.2300e-001	-213.531494	-41.613627
 824	8.2400e-001	-212.104797	-41.580046
 825	8.2500e-001	-211.257935	-41.539612
 826	8.2600e-001	-209.976196	-41.495751
 827	8.2700e-001	-208.618164	-41.456688
 828	8.2800e-001	-207.641602	-41.390897
 829	8.2900e-001	-206.390381	-41.373078
 830	8.3000e-001	-205.039978	-41.325791
 831	8.3100e-001	-204.086304	-41.308658
 832	8.3200e-001	-202.537537	-41.266853
 833	8.3300e-001	-201.538086	-41.212027
 834	8.3400e-001	-200.271606	-41.176390
 835	8.3500e-001	-199.127197	-41.147606
 836	8.3600e-001	-198.135376	-41.101689
 837	8.3700e-001	-196.876526	-41.063996
 838	8.3800e-001	-195.365906	-41.012597
 839	8.3900e-001	-194.557190	-40.987925
 840	8.4000e-001	-193.199158	-40.933099
 841	8.4100e-001	-192.031860	-40.887868
 842	8.4200e-001	-190.574646	-40.853602
 843	8.4300e-001	-189.590454	-40.790552
 844	8.4400e-001	-188.514709	-40.743264
 845	8.4500e-001	-187.164307	-40.717907
 846	8.4600e-001	-185.867310	-40.663767
 847	8.4700e-001	-184.394836	-40.613053
 848	8.4800e-001	-183.631897	-40.571933
 849	8.4900e-001	-182.449341	-40.528758
 850	8.5000e-001	-181.335449	-40.478729
 851	8.5100e-001	-180.068970	-40.444463
 852	8.5200e-001	-178.634644	-40.403343
 853	8.5300e-001	-177.444458	-40.352629
 854	8.5400e-001	-176.269531	-40.304656
 855	8.5500e-001	-175.239563	-40.246404
 856	8.5600e-001	-174.003601	-40.210767
 857	8.5700e-001	-172.874451	-40.172388
 858	8.5800e-001	-171.508789	-40.131269
 859	8.5900e-001	-170.257568	-40.064107
 860	8.6000e-001	-169.105530	-39.997631
 861	8.6100e-001	-168.014526	-39.959252
 862	8.6200e-001	-166.732788	-39.909224
 863	8.6300e-001	-165.237427	-39.868104
 864	8.6400e-001	-164.489746	-39.809851
 865	8.6500e-001	-163.040161	-39.756396
 866	8.6600e-001	-162.017822	-39.698144
 867	8.6700e-001	-160.842896	-39.646744
 868	8.6800e-001	-159.584045	-39.609051
 869	8.6900e-001	-158.142090	-39.546687
 870	8.7000e-001	-157.127380	-39.493917
 871	8.7100e-001	-156.005859	-39.434293
 872	8.7200e-001	-154.884338	-39.389062
 873	8.7300e-001	-153.663635	-39.329439
 874	8.7400e-001	-152.183533	-39.275983
 875	8.7500e-001	-151.382446	-39.231437
 876	8.7600e-001	-149.826050	-39.156051
 877	8.7700e-001	-148.773193	-39.099169
 878	8.7800e-001	-147.285461	-39.034749
 879	8.7900e-001	-146.354675	-38.972384
 880	8.8000e-001	-145.195007	-38.915502
 881	8.8100e-001	-143.936157	-38.852452
 882	8.8200e-001	-142.684937	-38.793514
 883	8.8300e-001	-141.578674	-38.727723
 884	8.8400e-001	-140.472412	-38.667415
 885	8.8500e-001	-139.091492	-38.614644
 886	8.8600e-001	-137.855530	-38.535832
 887	8.8700e-001	-136.657715	-38.481691
 888	8.8800e-001	-135.429382	-38.417956
 889	8.8900e-001	-134.407043	-38.341200
 890	8.9000e-001	-133.140564	-38.282262
 891	8.9100e-001	-131.797791	-38.200708
 892	8.9200e-001	-130.920410	-38.149994
 893	8.9300e-001	-129.577637	-38.052678
 894	8.9400e-001	-128.356934	-37.977292
 895	8.9500e-001	-127.120972	-37.908760
 896	8.9600e-001	-126.075745	-37.844339
 897	8.9700e-001	-124.847412	-37.776492
 898	8.9800e-001	-123.542786	-37.703847
 899	8.9900e-001	-122.421265	-37.619552
 900	9.0000e-001	-121.162415	-37.528404
 901	9.0100e-001	-119.979858	-37.460557
 902	9.0200e-001	-118.850708	-37.394080
 903	9.0300e-001	-117.546082	-37.319380
 904	9.0400e-001	-116.386414	-37.210413
 905	9.0500e-001	-115.188599	-37.115153
 906	9.0600e-001	-113.998413	-37.035655
 907	9.0700e-001	-112.739563	-36.960270
 908	9.0800e-001	-111.869812	-36.867065
 909	9.0900e-001	-110.382080	-36.762211
 910	9.1000e-001	-109.130859	-36.671062
 911	9.1100e-001	-107.872009	-36.586082
 912	9.1200e-001	-106.712341	-36.466150
 913	9.1300e-001	-105.590820	-36.374317
 914	9.1400e-001	-104.393005	-36.290707
 915	9.1500e-001	-102.981567	-36.183796
 916	9.1600e-001	-101.882935	-36.078941
 917	9.1700e-001	-100.677490	-35.960380
 918	9.1800e-001	-99.731445	-35.876085
 919	9.1900e-001	-98.365784	-35.757524
 920	9.2000e-001	-97.030640	-35.637592
 921	9.2100e-001	-95.802307	-35.506695
 922	9.2200e-001	-95.031738	-35.379910
 923	9.2300e-001	-93.559265	-35.256551
 924	9.2400e-001	-92.269897	-35.135249
 925	9.2500e-001	-91.239929	-35.011890
 926	9.2600e-001	-89.942932	-34.869343
 927	9.2700e-001	-88.821411	-34.718571
 928	9.2800e-001	-87.532043	-34.576709
 929	9.2900e-001	-86.318970	-34.433476
 930	9.3000e-001	-85.220337	-34.295040
 931	9.3100e-001	-84.045410	-34.133303
 932	9.3200e-001	-82.809448	-33.974308
 933	9.3300e-001	-81.405640	-33.805718
 934	9.3400e-001	-80.307007	-33.644667
 935	9.3500e-001	-79.261780	-33.477447
 936	9.3600e-001	-77.842712	-33.279388
 937	9.3700e-001	-76.736450	-33.121764
 938	9.3800e-001	-75.660706	-32.924390
 939	9.3900e-001	-74.279785	-32.723590
 940	9.4000e-001	-73.272705	-32.510454
 941	9.4100e-001	-72.074890	-32.295261
 942	9.4200e-001	-70.846558	-32.086923
 943	9.4300e-001	-69.557190	-31.855283
 944	9.4400e-001	-68.603516	-31.630496
 945	9.4500e-001	-67.108154	-31.394059
 946	9.4600e-001	-66.085815	-31.132265
 947	9.4700e-001	-64.788818	-30.874582
 948	9.4800e-001	-63.537598	-30.610047
 949	9.4900e-001	-62.469482	-30.333861
 950	9.5000e-001	-61.264038	-30.043283
 951	9.5100e-001	-59.829712	-29.738313
 952	9.5200e-001	-58.784485	-29.480631
 953	9.5300e-001	-57.624817	-29.166067
 954	9.5400e-001	-56.335449	-28.850817
 955	9.5500e-001	-55.297852	-28.501987
 956	9.5600e-001	-53.977966	-28.183996
 957	9.5700e-001	-52.734375	-27.837221
 958	9.5800e-001	-51.338196	-27.477426
 959	9.5900e-001	-50.346375	-27.123798
 960	9.6000e-001	-49.415588	-26.736589
 961	9.6100e-001	-48.164368	-26.343213
 962	9.6200e-001	-46.928406	-25.957375
 963	9.6300e-001	-45.722961	-25.570166
 964	9.6400e-001	-44.639587	-25.152803
 965	9.6500e-001	-43.334961	-24.736811
 966	9.6600e-001	-41.908264	-24.308482
 967	9.6700e-001	-41.023254	-23.842461
 968	9.6800e-001	-39.566040	-23.421672
 969	9.6900e-001	-38.497925	-22.978266
 970	9.7000e-001	-37.223816	-22.501280
 971	9.7100e-001	-35.667419	-22.038000
 972	9.7200e-001	-34.828186	-21.563755
 973	9.7300e-001	-33.538818	-21.060041
 974	9.7400e-001	-32.577515	-20.556327
 975	9.7500e-001	-31.112671	-20.054669
 976	9.7600e-001	-30.044556	-19.526284
 977	9.7700e-001	-28.984070	-18.995157
 978	9.7800e-001	-27.565002	-18.459918
 979	9.7900e-001	-26.428223	-17.921252
 980	9.8000e-001	-24.932861	-17.373677
 981	9.8100e-001	-23.872375	-16.798004
 982	9.8200e-001	-22.712708	-16.249744
 983	9.8300e-001	-21.736145	-15.667903
 984	9.8400e-001	-20.431519	-15.079894
 985	9.8500e-001	-19.508362	-14.487088
 986	9.8600e-001	-18.142700	-13.875093
 987	9.8700e-001	-16.952515	-13.269950
 988	9.8800e-001	-15.686035	-12.620262
 989	9.8900e-001	-14.328003	-11.992504
 990	9.9000e-001	-13.351440	-11.342131
 991	9.9100e-001	-11.840820	-10.667771
 992	9.9200e-001	-10.620117	-10.026992
 993	9.9300e-001	-9.552002	-9.332072
 994	9.9400e-001	-8.598328	-8.645377
 995	9.9500e-001	-7.080078	-7.949772
 996	9.9600e-001	-6.355286	-7.253481
 997	9.9700e-001	-4.844666	-6.539372
 998	9.9800e-001	-3.585815	-5.826634
 999	9.9900e-001	-2.258301	-5.104302
1000	1.0000e+000	-1.350403	-4.378542
1001	1.0010e+000	-0.022888	-3.643188
1002	1.0020e+000	1.091003	-2.942101
1003	1.0030e+000	2.349854	-2.182075
1004	1.0040e+000	3.555298	-1.465910
1005	1.0050e+000	4.692078	-0.746319
1006	1.0060e+000	5.424500	-0.015077
1007	1.0070e+000	7.049561	0.689437
1008	1.0080e+000	8.193970	1.396693
1009	1.0090e+000	9.445190	2.066255
1010	1.0100e+000	10.665894	2.750895
1011	1.0110e+000	11.817932	3.411548
1012	1.0120e+000	13.092041	4.033824
1013	1.0130e+000	14.205933	4.615665
1014	1.0140e+000	15.388489	5.193394
1015	1.0150e+000	16.960144	5.699164
1016	1.0160e+000	17.936707	6.173409
1017	1.0170e+000	19.004822	6.605849
1018	1.0180e+000	20.362854	6.973869
1019	1.0190e+000	21.514893	7.352168
1020	1.0200e+000	22.697449	7.696887
1021	1.0210e+000	23.841858	8.023787
1022	1.0220e+000	25.070190	8.370561
1023	1.0230e+000	26.191711	8.689237
1024	1.0240e+000	27.435303	9.027788
1025	1.0250e+000	28.678894	9.374562
1026	1.0260e+000	30.029297	9.711742
1027	1.0270e+000	30.998230	10.068797
1028	1.0280e+000	32.394409	10.420369
1029	1.0290e+000	33.447266	10.788388
1030	1.0300e+000	34.652710	11.157093
1031	1.0310e+000	36.071777	11.507980
1032	1.0320e+000	37.338257	11.865719
1033	1.0330e+000	38.307190	12.239907
1034	1.0340e+000	39.474487	12.616836
1035	1.0350e+000	40.618896	12.963610
1036	1.0360e+000	42.091370	13.341910
1037	1.0370e+000	42.915344	13.706503
1038	1.0380e+000	44.158936	14.077264
1039	1.0390e+000	45.433044	14.444598
1040	1.0400e+000	46.653748	14.816729
1041	1.0410e+000	47.935486	15.177896
1042	1.0420e+000	49.041748	15.539747
1043	1.0430e+000	50.170898	15.909823
1044	1.0440e+000	51.330566	16.266877
1045	1.0450e+000	52.734375	16.639009
1046	1.0460e+000	53.787231	17.008399
1047	1.0470e+000	54.977417	17.349006
1048	1.0480e+000	56.358337	17.701948
1049	1.0490e+000	57.411194	18.068597
1050	1.0500e+000	58.357239	18.420169
1051	1.0510e+000	59.944153	18.779965
1052	1.0520e+000	61.210632	19.117145
1053	1.0530e+000	62.156677	19.478311
1054	1.0540e+000	63.575745	19.825085
1055	1.0550e+000	64.735413	20.169804
1056	1.0560e+000	65.887451	20.526173
1057	1.0570e+000	66.986084	20.894878
1058	1.0580e+000	68.450928	21.250562
1059	1.0590e+000	69.358826	21.587056
1060	1.0600e+000	70.648193	21.950964
1061	1.0610e+000	71.823120	22.317613
1062	1.0620e+000	72.921753	22.668499
1063	1.0630e+000	74.531555	23.010477
1064	1.0640e+000	75.355530	23.366846
1065	1.0650e+000	76.507568	23.697858
1066	1.0660e+000	77.964783	24.042576
1067	1.0670e+000	79.200745	24.385924
1068	1.0680e+000	80.406189	24.742979
1069	1.0690e+000	81.657410	25.081529
1070	1.0700e+000	82.862854	25.424192
1071	1.0710e+000	83.572388	25.742183
1072	1.0720e+000	85.250854	26.094440
1073	1.0730e+000	86.082458	26.433676
1074	1.0740e+000	87.318420	26.797583
1075	1.0750e+000	88.935852	27.105294
1076	1.0760e+000	89.920044	27.434250
1077	1.0770e+000	90.980530	27.769374
1078	1.0780e+000	92.315674	28.113407
1079	1.0790e+000	93.498230	28.406727
1080	1.0800e+000	94.650269	28.728144
1081	1.0810e+000	95.985413	29.046135
1082	1.0820e+000	97.106934	29.349049
1083	1.0830e+000	98.426819	29.658816
1084	1.0840e+000	99.639893	29.954191
1085	1.0850e+000	100.631714	30.245454
1086	1.0860e+000	101.921082	30.531920
1087	1.0870e+000	103.195190	30.819756
1088	1.0880e+000	104.347229	31.095257
1089	1.0890e+000	105.323792	31.357737
1090	1.0900e+000	106.597900	31.644203
1091	1.0910e+000	107.849121	31.901199
1092	1.0920e+000	109.207153	32.145175
1093	1.0930e+000	110.404968	32.417249
1094	1.0940e+000	111.587524	32.672876
1095	1.0950e+000	112.663269	32.901774
1096	1.0960e+000	114.181519	33.142323
1097	1.0970e+000	115.142822	33.355459
1098	1.0980e+000	116.378784	33.600806
1099	1.0990e+000	117.446899	33.793382
1100	1.1000e+000	118.698120	34.000350
1101	1.1010e+000	119.888306	34.218284
1102	1.1020e+000	121.391296	34.400580
1103	1.1030e+000	122.459412	34.602066
1104	1.1040e+000	123.497009	34.790530
1105	1.1050e+000	124.885559	34.955008
1106	1.1060e+000	125.961304	35.166774
1107	1.1070e+000	127.052307	35.330566
1108	1.1080e+000	128.288269	35.494359
1109	1.1090e+000	129.600525	35.650613
1110	1.1100e+000	130.996704	35.814406
1111	1.1110e+000	131.912231	35.964492
1112	1.1120e+000	133.232117	36.114578
1113	1.1130e+000	134.437561	36.264665
1114	1.1140e+000	135.490417	36.379799
1115	1.1150e+000	136.726379	36.524403
1116	1.1160e+000	137.870789	36.660097
1117	1.1170e+000	139.183044	36.801959
1118	1.1180e+000	140.045166	36.908185
1119	1.1190e+000	141.380310	37.043879
1120	1.1200e+000	142.822266	37.129545
1121	1.1210e+000	143.829346	37.277575
1122	1.1220e+000	145.072937	37.372150
1123	1.1230e+000	146.522522	37.483858
1124	1.1240e+000	147.651672	37.592825
1125	1.1250e+000	148.986816	37.702477
1126	1.1260e+000	149.986267	37.771009
1127	1.1270e+000	151.062012	37.895053
1128	1.1280e+000	152.198792	37.989628
1129	1.1290e+000	153.465271	38.044454
1130	1.1300e+000	154.663086	38.168498
1131	1.1310e+000	155.906677	38.247996
1132	1.1320e+000	156.936646	38.317213
1133	1.1330e+000	158.149719	38.399452
1134	1.1340e+000	159.751892	38.487859
1135	1.1350e+000	160.713196	38.572154
1136	1.1360e+000	161.903381	38.646169
1137	1.1370e+000	163.208008	38.729779
1138	1.1380e+000	164.405823	38.793514
1139	1.1390e+000	165.580750	38.866159
1140	1.1400e+000	166.687012	38.966216
1141	1.1410e+000	167.869568	39.019672
1142	1.1420e+000	169.250488	39.084778
1143	1.1430e+000	170.433044	39.164275
1144	1.1440e+000	171.585083	39.223213
1145	1.1450e+000	172.706604	39.297914
1146	1.1460e+000	174.003601	39.362334
1147	1.1470e+000	175.041199	39.396600
1148	1.1480e+000	176.277161	39.488434
1149	1.1490e+000	177.650452	39.573414
1150	1.1500e+000	178.619385	39.598771
1151	1.1510e+000	180.061340	39.675528
1152	1.1520e+000	181.037903	39.724871
1153	1.1530e+000	182.197571	39.768047
1154	1.1540e+000	183.753967	39.837950
1155	1.1550e+000	184.745789	39.895517
1156	1.1560e+000	185.974121	39.952399
1157	1.1570e+000	187.171936	40.029156
1158	1.1580e+000	188.140869	40.073016
1159	1.1590e+000	189.399719	40.116192
1160	1.1600e+000	190.643311	40.198431
1161	1.1610e+000	191.993713	40.239550
1162	1.1620e+000	192.962646	40.297803
1163	1.1630e+000	194.564819	40.351258
1164	1.1640e+000	195.533752	40.408140
1165	1.1650e+000	196.296692	40.395804
1166	1.1660e+000	198.074341	40.502030
1167	1.1670e+000	199.279785	40.550003
1168	1.1680e+000	200.347900	40.608941
1169	1.1690e+000	201.515198	40.652116
1170	1.1700e+000	202.850342	40.712425
1171	1.1710e+000	203.948975	40.741208
1172	1.1720e+000	205.070496	40.800146
1173	1.1730e+000	206.176758	40.850175
1174	1.1740e+000	207.443237	40.896092
1175	1.1750e+000	208.518982	40.946121
1176	1.1760e+000	210.060120	40.985184
1177	1.1770e+000	210.945129	41.043437
1178	1.1780e+000	212.409973	41.101004
1179	1.1790e+000	213.668823	41.140068
1180	1.1800e+000	214.469910	41.181187
1181	1.1810e+000	216.041565	41.233957
1182	1.1820e+000	217.170715	41.280559
1183	1.1830e+000	218.208313	41.304546
1184	1.1840e+000	219.657898	41.387470
1185	1.1850e+000	220.558167	41.423107
1186	1.1860e+000	221.755981	41.451891
1187	1.1870e+000	223.136902	41.494381
1188	1.1880e+000	224.403381	41.549207
1189	1.1890e+000	225.486755	41.584158
1190	1.1900e+000	226.669312	41.642411
1191	1.1910e+000	227.943420	41.696552
1192	1.1920e+000	229.026794	41.708887
1193	1.1930e+000	230.201721	41.769881
1194	1.1940e+000	231.819153	41.820595
1195	1.1950e+000	232.620239	41.848694
1196	1.1960e+000	234.031677	41.887757
1197	1.1970e+000	235.313416	41.955604
1198	1.1980e+000	236.076355	41.976164
1199	1.1990e+000	237.541199	42.033046
1200	1.2000e+000	238.769531	42.075536
1201	1.2010e+000	240.058899	42.121453
1202	1.2020e+000	241.119385	42.152293
1203	1.2030e+000	242.485046	42.191356
1204	1.2040e+000	243.438721	42.220140
1205	1.2050e+000	244.712830	42.264001
1206	1.2060e+000	245.773315	42.321568
1207	1.2070e+000	246.894836	42.344869
1208	1.2080e+000	248.252869	42.420940
1209	1.2090e+000	249.610901	42.433961
1210	1.2100e+000	250.633240	42.468913
1211	1.2110e+000	251.945496	42.520998
1212	1.2120e+000	253.326416	42.556635
1213	1.2130e+000	254.020691	42.587474
1214	1.2140e+000	255.722046	42.630650
1215	1.2150e+000	256.965637	42.682049
1216	1.2160e+000	257.736206	42.702609
1217	1.2170e+000	259.117126	42.748526
1218	1.2180e+000	260.246277	42.789645
1219	1.2190e+000	261.390686	42.816373
1220	1.2200e+000	262.702942	42.869828
1221	1.2210e+000	263.801575	42.899297
1222	1.2220e+000	264.892578	42.942473
1223	1.2230e+000	266.357422	42.982907
1224	1.2240e+000	267.227173	43.030194
1225	1.2250e+000	268.653870	43.058293
1226	1.2260e+000	269.927979	43.080908
1227	1.2270e+000	270.950317	43.150126
1228	1.2280e+000	272.026062	43.159721
1229	1.2290e+000	273.681641	43.206323
1230	1.2300e+000	274.581909	43.244016
1231	1.2310e+000	275.817871	43.285821
1232	1.2320e+000	277.145386	43.313919
1233	1.2330e+000	278.450012	43.352297
1234	1.2340e+000	279.373169	43.402326
1235	1.2350e+000	280.601501	43.416718
1236	1.2360e+000	281.913757	43.443445
1237	1.2370e+000	283.210754	43.485250
1238	1.2380e+000	284.233093	43.529796
1239	1.2390e+000	285.545349	43.564748
1240	1.2400e+000	286.712646	43.603811
1241	1.2410e+000	287.963867	43.635336
1242	1.2420e+000	289.031982	43.666861
1243	1.2430e+000	290.290833	43.703869
1244	1.2440e+000	291.503906	43.754583
1245	1.2450e+000	292.816162	43.788164
1246	1.2460e+000	294.013977	43.815577
1247	1.2470e+000	295.188904	43.840934
1248	1.2480e+000	296.356201	43.886165
1249	1.2490e+000	297.676086	43.913578
1250	1.2500e+000	298.637390	43.924544
1251	1.2510e+000	299.842834	43.997188
1252	1.2520e+000	298.866272	43.960866
1253	1.2530e+000	297.554016	43.931397
1254	1.2540e+000	296.371460	43.905354
1255	1.2550e+000	295.204163	43.899872
1256	1.2560e+000	293.876648	43.855326
1257	1.2570e+000	292.785645	43.837507
1258	1.2580e+000	291.671753	43.810094
1259	1.2590e+000	290.588379	43.800500
1260	1.2600e+000	288.917542	43.751156
1261	1.2610e+000	288.063049	43.739506
1262	1.2620e+000	286.643982	43.723058
1263	1.2630e+000	285.408020	43.688106
1264	1.2640e+000	284.477234	43.663435
1265	1.2650e+000	283.134460	43.615462
1266	1.2660e+000	281.906128	43.596273
1267	1.2670e+000	280.876160	43.566119
1268	1.2680e+000	279.541016	43.557895
1269	1.2690e+000	278.274536	43.508551
1270	1.2700e+000	277.153015	43.472914
1271	1.2710e+000	275.833130	43.452355
1272	1.2720e+000	274.734497	43.425627
1273	1.2730e+000	273.704529	43.407808
1274	1.2740e+000	272.285461	43.360521
1275	1.2750e+000	271.385193	43.348870
1276	1.2760e+000	270.088196	43.304324
1277	1.2770e+000	268.531799	43.285135
1278	1.2780e+000	267.387390	43.248813
1279	1.2790e+000	266.578674	43.252240
1280	1.2800e+000	264.961243	43.196728
1281	1.2810e+000	263.862610	43.174798
1282	1.2820e+000	262.924194	43.148070
1283	1.2830e+000	261.512756	43.108321
1284	1.2840e+000	260.261536	43.082964
1285	1.2850e+000	259.033203	43.067202
1286	1.2860e+000	258.041382	43.033621
1287	1.2870e+000	256.507874	42.987704
1288	1.2880e+000	255.813599	42.974683
1289	1.2890e+000	254.234314	42.922598
1290	1.2900e+000	253.250122	42.896556
1291	1.2910e+000	252.006531	42.880108
1292	1.2920e+000	250.495911	42.820485
1293	1.2930e+000	249.565125	42.793757
1294	1.2940e+000	248.466492	42.795128
1295	1.2950e+000	246.978760	42.761547
1296	1.2960e+000	245.872498	42.719742
1297	1.2970e+000	244.621277	42.684105
1298	1.2980e+000	243.598938	42.655321
1299	1.2990e+000	242.271423	42.623796
1300	1.3000e+000	241.050720	42.599810
1301	1.3010e+000	239.776611	42.570341
1302	1.3020e+000	238.700867	42.522368
1303	1.3030e+000	237.541199	42.516200
1304	1.3040e+000	236.289978	42.463430
1305	1.3050e+000	234.954834	42.420940
1306	1.3060e+000	233.810425	42.392842
1307	1.3070e+000	232.711792	42.375023
1308	1.3080e+000	231.506348	42.333219
1309	1.3090e+000	230.476379	42.321568
1310	1.3100e+000	228.935242	42.239329
1311	1.3110e+000	227.806091	42.237273
1312	1.3120e+000	226.577759	42.213972
1313	1.3130e+000	225.471497	42.159146
1314	1.3140e+000	224.540710	42.131733
1315	1.3150e+000	223.213196	42.110488
1316	1.3160e+000	221.549988	42.077592
1317	1.3170e+000	220.664978	42.026193
1318	1.3180e+000	219.718933	42.028249
1319	1.3190e+000	218.421936	41.961087
1320	1.3200e+000	217.346191	41.921338
1321	1.3210e+000	215.919495	41.896667
1322	1.3220e+000	214.607239	41.851435
1323	1.3230e+000	213.638306	41.830190
1324	1.3240e+000	212.265015	41.790441
1325	1.3250e+000	211.189270	41.758231
1326	1.3260e+000	210.006714	41.702720
1327	1.3270e+000	208.816528	41.684901
1328	1.3280e+000	207.504272	41.636243
1329	1.3290e+000	206.527710	41.606089
1330	1.3300e+000	205.123901	41.584158
1331	1.3310e+000	204.216003	41.544409
1332	1.3320e+000	202.781677	41.503290
1333	1.3330e+000	201.400757	41.489583
1334	1.3340e+000	200.408936	41.436813
1335	1.3350e+000	199.089050	41.390897
1336	1.3360e+000	197.708130	41.346350
1337	1.3370e+000	196.830750	41.305231
1338	1.3380e+000	195.419312	41.275077
1339	1.3390e+000	194.374084	41.245608
1340	1.3400e+000	193.008423	41.205173
1341	1.3410e+000	191.795349	41.166795
1342	1.3420e+000	190.521240	41.129788
1343	1.3430e+000	189.567566	41.072906
1344	1.3440e+000	188.224792	41.052346
1345	1.3450e+000	186.820984	41.012597
1346	1.3460e+000	186.134338	40.955715
1347	1.3470e+000	184.677124	40.942694
1348	1.3480e+000	183.364868	40.898833
1349	1.3490e+000	182.373047	40.851546
1350	1.3500e+000	181.259155	40.811797
1351	1.3510e+000	179.901123	40.790552
1352	1.3520e+000	178.871155	40.739152
1353	1.3530e+000	177.566528	40.673361
1354	1.3540e+000	176.017761	40.639095
1355	1.3550e+000	175.018311	40.606199
1356	1.3560e+000	174.247742	40.580157
1357	1.3570e+000	172.584534	40.534240
1358	1.3580e+000	171.516418	40.489009
1359	1.3590e+000	170.532227	40.447889
1360	1.3600e+000	169.120789	40.387581
1361	1.3610e+000	168.052673	40.344405
1362	1.3620e+000	166.679382	40.321104
1363	1.3630e+000	165.390015	40.271075
1364	1.3640e+000	164.314270	40.227215
1365	1.3650e+000	163.269043	40.180612
1366	1.3660e+000	161.727905	40.132640
1367	1.3670e+000	160.484314	40.094947
1368	1.3680e+000	159.507751	40.051771
1369	1.3690e+000	157.768250	39.988721
1370	1.3700e+000	156.944275	39.946231
1371	1.3710e+000	156.044006	39.917448
1372	1.3720e+000	154.495239	39.850286
1373	1.3730e+000	153.533936	39.835894
1374	1.3740e+000	152.343750	39.765305
1375	1.3750e+000	150.894165	39.735836
1376	1.3760e+000	149.932861	39.675528
1377	1.3770e+000	148.933411	39.617275
1378	1.3780e+000	147.567749	39.584380
1379	1.3790e+000	146.278381	39.535721
1380	1.3800e+000	145.103455	39.487749
1381	1.3810e+000	143.684387	39.439776
1382	1.3820e+000	142.807007	39.381523
1383	1.3830e+000	141.624451	39.341089
1384	1.3840e+000	140.068054	39.294487
1385	1.3850e+000	139.068604	39.249256
1386	1.3860e+000	138.076782	39.197856
1387	1.3870e+000	136.650085	39.133436
1388	1.3880e+000	135.391235	39.079980
1389	1.3890e+000	134.613037	39.038175
1390	1.3900e+000	133.064270	38.994315
1391	1.3910e+000	131.858826	38.927153
1392	1.3920e+000	130.584717	38.879180
1393	1.3930e+000	129.394531	38.827781
1394	1.3940e+000	128.387451	38.769528
1395	1.3950e+000	127.189636	38.723611
1396	1.3960e+000	125.885010	38.668100
1397	1.3970e+000	124.717712	38.600938
1398	1.3980e+000	123.489380	38.546797
1399	1.3990e+000	122.314453	38.511846
1400	1.4000e+000	121.032715	38.443999
1401	1.4010e+000	119.995117	38.388487
1402	1.4020e+000	118.682861	38.324752
1403	1.4030e+000	117.576599	38.250737
1404	1.4040e+000	116.310120	38.215100
1405	1.4050e+000	115.081787	38.130120
1406	1.4060e+000	114.036560	38.084203
1407	1.4070e+000	112.754822	38.020468
1408	1.4080e+000	111.663818	37.968383
1409	1.4090e+000	110.542297	37.886829
1410	1.4100e+000	109.268188	37.823094
1411	1.4110e+000	108.169556	37.764841
1412	1.4120e+000	106.620789	37.687400
1413	1.4130e+000	105.514526	37.630518
1414	1.4140e+000	104.263306	37.563356
1415	1.4150e+000	103.172302	37.513327
1416	1.4160e+000	102.096558	37.442053
1417	1.4170e+000	100.875854	37.352961
1418	1.4180e+000	99.342346	37.281002
1419	1.4190e+000	98.274231	37.226861
1420	1.4200e+000	97.244263	37.137769
1421	1.4210e+000	95.855713	37.060327
1422	1.4220e+000	94.947815	36.990424
1423	1.4230e+000	93.711853	36.904758
1424	1.4240e+000	92.361450	36.832799
1425	1.4250e+000	91.117859	36.758099
1426	1.4260e+000	89.981079	36.683398
1427	1.4270e+000	88.813782	36.597733
1428	1.4280e+000	87.516785	36.526459
1429	1.4290e+000	86.448669	36.403786
1430	1.4300e+000	85.227966	36.342106
1431	1.4310e+000	83.877563	36.245475
1432	1.4320e+000	82.817078	36.137879
1433	1.4330e+000	81.558228	36.046731
1434	1.4340e+000	80.230713	35.962436
1435	1.4350e+000	79.437256	35.869232
1436	1.4360e+000	77.819824	35.739706
1437	1.4370e+000	76.560974	35.650613
1438	1.4380e+000	75.805664	35.549185
1439	1.4390e+000	74.455261	35.428568
1440	1.4400e+000	72.784424	35.307951
1441	1.4410e+000	72.418213	35.194872
1442	1.4420e+000	70.632935	35.089332
1443	1.4430e+000	69.427490	34.959120
1444	1.4440e+000	68.443298	34.818629
1445	1.4450e+000	66.947937	34.713089
1446	1.4460e+000	65.834045	34.584933
1447	1.4470e+000	65.299988	34.429364
1448	1.4480e+000	63.568115	34.290243
1449	1.4490e+000	62.088013	34.143583
1450	1.4500e+000	61.523438	33.994182
1451	1.4510e+000	59.829712	33.826278
1452	1.4520e+000	58.509827	33.666597
1453	1.4530e+000	57.708740	33.474706
1454	1.4540e+000	56.312561	33.312969
1455	1.4550e+000	55.152893	33.148491
1456	1.4560e+000	54.061890	32.953174
1457	1.4570e+000	52.879333	32.753744
1458	1.4580e+000	51.437378	32.555685
1459	1.4590e+000	50.697327	32.350773
1460	1.4600e+000	48.980713	32.134895
1461	1.4610e+000	47.981262	31.918333
1462	1.4620e+000	47.096252	31.706567
1463	1.4630e+000	45.433044	31.474242
1464	1.4640e+000	44.242859	31.242602
1465	1.4650e+000	43.151855	30.985605
1466	1.4660e+000	41.786194	30.721070
1467	1.4670e+000	40.817261	30.456534
1468	1.4680e+000	39.779663	30.170068
1469	1.4690e+000	38.414001	29.900735
1470	1.4700e+000	37.208557	29.605360
1471	1.4710e+000	36.407471	29.314097
1472	1.4720e+000	34.683228	29.000904
1473	1.4730e+000	33.699036	28.701416
1474	1.4740e+000	32.341003	28.361495
1475	1.4750e+000	31.013489	28.022259
1476	1.4760e+000	29.388428	27.663149
1477	1.4770e+000	29.174805	27.315004
1478	1.4780e+000	27.557373	26.962061
1479	1.4790e+000	26.527405	26.597468
1480	1.4800e+000	25.199890	26.224651
1481	1.4810e+000	23.986816	25.855261
1482	1.4820e+000	22.850037	25.445437
1483	1.4830e+000	21.667480	25.078102
1484	1.4840e+000	20.271301	24.636068
1485	1.4850e+000	19.309998	24.220761
1486	1.4860e+000	18.035889	23.800656
1487	1.4870e+000	16.777039	23.363419
1488	1.4880e+000	15.548706	22.918643
1489	1.4890e+000	14.556885	22.496483
1490	1.4900e+000	13.214111	22.044168
1491	1.4910e+000	12.214661	21.633658
1492	1.4920e+000	10.963440	21.156672
1493	1.4930e+000	9.552002	20.689966
1494	1.4940e+000	8.377075	20.217091
1495	1.4950e+000	6.980896	19.771630
1496	1.4960e+000	5.950928	19.302182
1497	1.4970e+000	4.859924	18.848497
1498	1.4980e+000	3.501892	18.386588
1499	1.4990e+000	2.395630	17.930161
1500	1.5000e+000	1.152039	17.478532
1501	1.5010e+000	-0.030518	17.037183
1502	1.5020e+000	-1.266479	16.599260
1503	1.5030e+000	-2.319336	16.129812
1504	1.5040e+000	-3.402710	15.713135
1505	1.5050e+000	-4.676819	15.255337
1506	1.5060e+000	-5.928040	14.827695
1507	1.5070e+000	-7.164001	14.419241
1508	1.5080e+000	-8.491516	14.011472
1509	1.5090e+000	-9.590149	13.643453
1510	1.5100e+000	-10.787964	13.208271
1511	1.5110e+000	-12.062073	12.810783
1512	1.5120e+000	-13.214111	12.422203
1513	1.5130e+000	-14.282227	12.056925
1514	1.5140e+000	-15.495300	11.679311
1515	1.5150e+000	-16.883850	11.297585
1516	1.5160e+000	-17.829895	10.924083
1517	1.5170e+000	-19.096375	10.551951
1518	1.5180e+000	-20.332336	10.203121
1519	1.5190e+000	-21.537781	9.857717
1520	1.5200e+000	-22.888184	9.465711
1521	1.5210e+000	-23.971558	9.114824
1522	1.5220e+000	-25.283813	8.753658
1523	1.5230e+000	-26.237488	8.380156
1524	1.5240e+000	-27.549744	7.999800
1525	1.5250e+000	-28.831482	7.659194
1526	1.5260e+000	-29.975891	7.275412
1527	1.5270e+000	-31.188965	6.893685
1528	1.5280e+000	-32.348633	6.527037
1529	1.5290e+000	-33.531189	6.139828
1530	1.5300e+000	-34.873962	5.747137
1531	1.5310e+000	-35.835266	5.350333
1532	1.5320e+000	-37.162781	4.952845
1533	1.5330e+000	-38.414001	4.551244
1534	1.5340e+000	-39.459229	4.159924
1535	1.5350e+000	-40.771484	3.730910
1536	1.5360e+000	-41.954041	3.312862
1537	1.5370e+000	-43.098450	2.875624
1538	1.5380e+000	-44.349670	2.463744
1539	1.5390e+000	-45.494080	2.015541
1540	1.5400e+000	-46.722412	1.576248
1541	1.5410e+000	-47.988892	1.153402
1542	1.5420e+000	-49.118042	0.699717
1543	1.5430e+000	-50.460815	0.249458
1544	1.5440e+000	-51.490784	-0.217248
1545	1.5450e+000	-52.795410	-0.661339
1546	1.5460e+000	-54.084778	-1.129416
1547	1.5470e+000	-55.198669	-1.577618
1548	1.5480e+000	-56.152344	-2.065570
1549	1.5490e+000	-57.365417	-2.541871
1550	1.5500e+000	-58.792114	-3.041473
1551	1.5510e+000	-60.112000	-3.508865
1552	1.5520e+000	-61.271667	-3.991334
1553	1.5530e+000	-62.080383	-4.492306
1554	1.5540e+000	-63.514709	-5.009041
1555	1.5550e+000	-64.666748	-5.503161
1556	1.5560e+000	-65.643311	-6.010987
1557	1.5570e+000	-67.024231	-6.518127
1558	1.5580e+000	-68.244934	-7.031436
1559	1.5590e+000	-69.381714	-7.546115
1560	1.5600e+000	-70.846558	-8.072445
1561	1.5610e+000	-71.884155	-8.608369
1562	1.5620e+000	-72.906494	-9.127160
1563	1.5630e+000	-74.150085	-9.643895
1564	1.5640e+000	-75.729370	-10.185302
1565	1.5650e+000	-76.721191	-10.720541
1566	1.5660e+000	-78.033447	-11.263319
1567	1.5670e+000	-79.032898	-11.804040
1568	1.5680e+000	-80.535889	-12.330370
1569	1.5690e+000	-81.657410	-12.852587
1570	1.5700e+000	-82.397461	-13.401533
1571	1.5710e+000	-83.999634	-13.926492
1572	1.5720e+000	-85.128784	-14.456934
1573	1.5730e+000	-86.158752	-14.983949
1574	1.5740e+000	-87.417603	-15.516446
1575	1.5750e+000	-88.897705	-16.024958
1576	1.5760e+000	-89.775085	-16.538951
1577	1.5770e+000	-91.064453	-17.063910
1578	1.5780e+000	-92.124939	-17.577904
1579	1.5790e+000	-93.444824	-18.082304
1580	1.5800e+000	-94.764709	-18.570940
1581	1.5810e+000	-96.206665	-19.058892
1582	1.5820e+000	-97.007751	-19.550955
1583	1.5830e+000	-98.526001	-20.029312
1584	1.5840e+000	-99.586487	-20.537138
1585	1.5850e+000	-100.761414	-21.023034
1586	1.5860e+000	-102.188110	-21.479460
1587	1.5870e+000	-103.027344	-21.979748
1588	1.5880e+000	-104.156494	-22.440971
1589	1.5890e+000	-105.575562	-22.896027
1590	1.5900e+000	-106.842041	-23.361363
1591	1.5910e+000	-107.849121	-23.802027
1592	1.5920e+000	-109.092712	-24.235153
1593	1.5930e+000	-110.527039	-24.680614
1594	1.5940e+000	-111.465454	-25.149376
1595	1.5950e+000	-112.777710	-25.559886
1596	1.5960e+000	-113.998413	-25.991641
1597	1.5970e+000	-114.944458	-26.408319
1598	1.5980e+000	-116.409302	-26.820884
1599	1.5990e+000	-117.492676	-27.242359
1600	1.6000e+000	-118.652344	-27.635736
1601	1.6010e+000	-120.010376	-28.022259
1602	1.6020e+000	-121.200562	-28.418377
1603	1.6030e+000	-122.413635	-28.817236
1604	1.6040e+000	-123.497009	-29.181144
1605	1.6050e+000	-124.992371	-29.566982
1606	1.6060e+000	-125.801086	-29.931575
1607	1.6070e+000	-127.067566	-30.279720
1608	1.6080e+000	-128.395081	-30.623068
1609	1.6090e+000	-129.417419	-30.973955
1610	1.6100e+000	-130.798340	-31.300855
1611	1.6110e+000	-132.041931	-31.624328
1612	1.6120e+000	-133.018494	-31.934780
1613	1.6130e+000	-134.498596	-32.239750
1614	1.6140e+000	-135.444641	-32.537867
1615	1.6150e+000	-136.672974	-32.840780
1616	1.6160e+000	-137.832642	-33.114910
1617	1.6170e+000	-139.190674	-33.395208
1618	1.6180e+000	-140.365601	-33.658373
1619	1.6190e+000	-141.479492	-33.903034
1620	1.6200e+000	-142.486572	-34.163458
1621	1.6210e+000	-143.905640	-34.432105
1622	1.6220e+000	-145.263672	-34.674710
1623	1.6230e+000	-146.331787	-34.867972
1624	1.6240e+000	-147.323608	-35.083849
1625	1.6250e+000	-149.055481	-35.311377
1626	1.6260e+000	-149.871826	-35.510807
1627	1.6270e+000	-150.939941	-35.714349
1628	1.6280e+000	-152.206421	-35.893904
1629	1.6290e+000	-153.579712	-36.063864
1630	1.6300e+000	-154.541016	-36.251643
1631	1.6310e+000	-156.074524	-36.404471
1632	1.6320e+000	-157.081604	-36.581970
1633	1.6330e+000	-158.142090	-36.745078
1634	1.6340e+000	-159.667969	-36.891737
1635	1.6350e+000	-160.827637	-37.035655
1636	1.6360e+000	-161.903381	-37.160385
1637	1.6370e+000	-163.101196	-37.298135
1638	1.6380e+000	-164.581299	-37.438627
1639	1.6390e+000	-165.580750	-37.586657
1640	1.6400e+000	-166.908264	-37.700421
1641	1.6410e+000	-167.892456	-37.808702
1642	1.6420e+000	-168.930054	-37.927949
1643	1.6430e+000	-170.272827	-38.045825
1644	1.6440e+000	-171.493530	-38.156162
1645	1.6450e+000	-172.760010	-38.255534
1646	1.6460e+000	-174.125671	-38.345312
1647	1.6470e+000	-175.041199	-38.436460
1648	1.6480e+000	-176.193237	-38.567357
1649	1.6490e+000	-177.619934	-38.654393
1650	1.6500e+000	-178.382874	-38.730464
1651	1.6510e+000	-180.130005	-38.833949
1652	1.6520e+000	-181.022644	-38.924411
1653	1.6530e+000	-182.296753	-39.000483
1654	1.6540e+000	-183.639526	-39.071756
1655	1.6550e+000	-184.608459	-39.179352
1656	1.6560e+000	-185.791016	-39.255423
1657	1.6570e+000	-187.126160	-39.357537
1658	1.6580e+000	-188.354492	-39.410992
1659	1.6590e+000	-189.514160	-39.487749
1660	1.6600e+000	-190.956116	-39.576841
1661	1.6610e+000	-191.902161	-39.646059
1662	1.6620e+000	-193.069458	-39.700885
1663	1.6630e+000	-194.343567	-39.794774
1664	1.6640e+000	-195.533752	-39.861936
1665	1.6650e+000	-196.960449	-39.923615
1666	1.6660e+000	-198.051453	-39.994889
1667	1.6670e+000	-199.119568	-40.079184
1668	1.6680e+000	-200.233459	-40.115507
1669	1.6690e+000	-201.507568	-40.183354
1670	1.6700e+000	-202.636719	-40.251201
1671	1.6710e+000	-203.773499	-40.323845
1672	1.6720e+000	-205.268860	-40.377986
1673	1.6730e+000	-206.283569	-40.435553
1674	1.6740e+000	-207.397461	-40.489694
1675	1.6750e+000	-208.885193	-40.573989
1676	1.6760e+000	-209.869385	-40.630186
1677	1.6770e+000	-211.250305	-40.689809
1678	1.6780e+000	-212.379456	-40.742579
1679	1.6790e+000	-213.584900	-40.787810
1680	1.6800e+000	-214.782715	-40.854972
1681	1.6810e+000	-216.300964	-40.918708
1682	1.6820e+000	-217.277527	-40.947491
1683	1.6830e+000	-218.200684	-41.023562
1684	1.6840e+000	-219.581604	-41.084556
1685	1.6850e+000	-220.977783	-41.148977
1686	1.6860e+000	-222.038269	-41.164054
1687	1.6870e+000	-223.144531	-41.251776
1688	1.6880e+000	-224.266052	-41.296322
1689	1.6890e+000	-225.555420	-41.351148
1690	1.6900e+000	-227.043152	-41.427219
1691	1.6910e+000	-228.050232	-41.441611
1692	1.6920e+000	-229.103088	-41.490269
1693	1.6930e+000	-230.514526	-41.558801
1694	1.6940e+000	-231.620789	-41.612942
1695	1.6950e+000	-232.543945	-41.623907
1696	1.6960e+000	-234.008789	-41.691069
1697	1.6970e+000	-235.168457	-41.760972
1698	1.6980e+000	-236.358643	-41.784959
1699	1.6990e+000	-237.716675	-41.851435
1700	1.7000e+000	-238.662720	-41.906261
1701	1.7010e+000	-240.051270	-41.936415
1702	1.7020e+000	-240.997314	-41.992612
1703	1.7030e+000	-242.309570	-42.028934
1704	1.7040e+000	-243.644714	-42.069368
1705	1.7050e+000	-244.789124	-42.142013
1706	1.7060e+000	-245.872498	-42.179020
1707	1.7070e+000	-247.024536	-42.205063
1708	1.7080e+000	-248.352051	-42.276337
1709	1.7090e+000	-249.496460	-42.313344
1710	1.7100e+000	-250.839233	-42.346240
1711	1.7110e+000	-252.182007	-42.414087
1712	1.7120e+000	-253.250122	-42.449039
1713	1.7130e+000	-254.470825	-42.478508
1714	1.7140e+000	-255.760193	-42.529907
1715	1.7150e+000	-256.683350	-42.575138
1716	1.7160e+000	-257.980347	-42.610775
1717	1.7170e+000	-259.338379	-42.660119
1718	1.7180e+000	-260.498047	-42.696441
1719	1.7190e+000	-261.718750	-42.732078
1720	1.7200e+000	-262.931824	-42.795128
1721	1.7210e+000	-263.900757	-42.827338
1722	1.7220e+000	-265.487671	-42.859548
1723	1.7230e+000	-266.502380	-42.915060
1724	1.7240e+000	-267.417908	-42.950697
1725	1.7250e+000	-268.875122	-42.974683
1726	1.7260e+000	-270.195007	-43.032250
1727	1.7270e+000	-270.965576	-43.077482
1728	1.7280e+000	-272.361755	-43.107636
1729	1.7290e+000	-273.651123	-43.143273
1730	1.7300e+000	-274.772644	-43.178225
1731	1.7310e+000	-276.420593	-43.231680
1732	1.7320e+000	-277.336121	-43.260464
1733	1.7330e+000	-278.526306	-43.307066
1734	1.7340e+000	-279.609680	-43.339961
1735	1.7350e+000	-280.792236	-43.396158
1736	1.7360e+000	-282.112122	-43.424256
1737	1.7370e+000	-283.142090	-43.464690
1738	1.7380e+000	-284.461975	-43.508551
1739	1.7390e+000	-285.690308	-43.545559
1740	1.7400e+000	-286.796570	-43.582566
1741	1.7410e+000	-288.047791	-43.623686
1742	1.7420e+000	-289.337158	-43.668917
1743	1.7430e+000	-290.344238	-43.684680
1744	1.7440e+000	-291.618347	-43.745674
1745	1.7450e+000	-292.816162	-43.773087
1746	1.7460e+000	-294.067383	-43.804612
1747	1.7470e+000	-295.181274	-43.849158
1748	1.7480e+000	-296.379089	-43.886851
1749	1.7490e+000	-297.637939	-43.910837
1750	1.7500e+000	-298.820496	-43.963607
1751	1.7510e+000	-299.758911	-43.997188
1752	1.7520e+000	-298.728943	-43.980740
1753	1.7530e+000	-297.546387	-43.945789
1754	1.7540e+000	-296.173096	-43.935509
1755	1.7550e+000	-295.158386	-43.890963
1756	1.7560e+000	-293.731689	-43.885480
1757	1.7570e+000	-292.694092	-43.845046
1758	1.7580e+000	-291.671753	-43.819004
1759	1.7590e+000	-290.222168	-43.795017
1760	1.7600e+000	-289.146423	-43.768289
1761	1.7610e+000	-287.994385	-43.753898
1762	1.7620e+000	-286.781311	-43.698386
1763	1.7630e+000	-285.758972	-43.677827
1764	1.7640e+000	-284.301758	-43.646987
1765	1.7650e+000	-283.172607	-43.624371
1766	1.7660e+000	-281.860352	-43.599014
1767	1.7670e+000	-280.967712	-43.563377
1768	1.7680e+000	-279.174805	-43.553097
1769	1.7690e+000	-278.335571	-43.502383
1770	1.7700e+000	-277.206421	-43.485250
1771	1.7710e+000	-275.726318	-43.460578
1772	1.7720e+000	-274.589539	-43.426998
1773	1.7730e+000	-273.376465	-43.386563
1774	1.7740e+000	-272.125244	-43.366689
1775	1.7750e+000	-271.080017	-43.344759
1776	1.7760e+000	-269.874573	-43.308436
1777	1.7770e+000	-269.104004	-43.289247
1778	1.7780e+000	-267.585754	-43.253610
1779	1.7790e+000	-266.265869	-43.207008
1780	1.7800e+000	-264.984131	-43.176169
1781	1.7810e+000	-264.007568	-43.146014
1782	1.7820e+000	-262.725830	-43.114489
1783	1.7830e+000	-261.520386	-43.092559
1784	1.7840e+000	-260.498047	-43.065831
1785	1.7850e+000	-259.155273	-43.034306
1786	1.7860e+000	-257.812500	-42.996613
1787	1.7870e+000	-256.858826	-42.977424
1788	1.7880e+000	-255.607605	-42.934934
1789	1.7890e+000	-254.058838	-42.903409
1790	1.7900e+000	-252.967834	-42.871199
1791	1.7910e+000	-251.922607	-42.846527
1792	1.7920e+000	-250.610352	-42.811576
1793	1.7930e+000	-249.656677	-42.767029
1794	1.7940e+000	-248.451233	-42.737560
1795	1.7950e+000	-247.001648	-42.701238
1796	1.7960e+000	-245.994568	-42.671769
1797	1.7970e+000	-244.804382	-42.638874
1798	1.7980e+000	-243.568420	-42.601866
1799	1.7990e+000	-242.462158	-42.568285
1800	1.8000e+000	-241.134644	-42.536760
1801	1.8010e+000	-239.852905	-42.499067
1802	1.8020e+000	-238.456726	-42.457948
1803	1.8030e+000	-237.487793	-42.427793
1804	1.8040e+000	-236.312866	-42.405863
1805	1.8050e+000	-235.191345	-42.361317
1806	1.8060e+000	-233.863831	-42.340757
1807	1.8070e+000	-232.772827	-42.294840
1808	1.8080e+000	-231.613159	-42.255092
1809	1.8090e+000	-230.209351	-42.218084
1810	1.8100e+000	-229.171753	-42.176279
1811	1.8110e+000	-227.729797	-42.158461
1812	1.8120e+000	-226.737976	-42.122138
1813	1.8130e+000	-225.463867	-42.083760
1814	1.8140e+000	-224.464417	-42.030305
1815	1.8150e+000	-223.083496	-42.011116
1816	1.8160e+000	-221.992493	-41.966570
1817	1.8170e+000	-220.718384	-41.932303
1818	1.8180e+000	-219.543457	-41.916541
1819	1.8190e+000	-218.246460	-41.833617
1820	1.8200e+000	-217.109680	-41.813742
1821	1.8210e+000	-215.942383	-41.805518
1822	1.8220e+000	-214.706421	-41.754119
1823	1.8230e+000	-213.516235	-41.714370
1824	1.8240e+000	-212.356567	-41.689013
1825	1.8250e+000	-211.334229	-41.617054
1826	1.8260e+000	-209.960938	-41.604033
1827	1.8270e+000	-208.824158	-41.571137
1828	1.8280e+000	-207.786560	-41.516996
1829	1.8290e+000	-206.237793	-41.473821
1830	1.8300e+000	-205.177307	-41.443667
1831	1.8310e+000	-204.216003	-41.380617
1832	1.8320e+000	-202.476501	-41.342924
1833	1.8330e+000	-201.423645	-41.318252
1834	1.8340e+000	-200.256348	-41.269594
1835	1.8350e+000	-199.073792	-41.230530
1836	1.8360e+000	-197.914124	-41.182558
1837	1.8370e+000	-196.846008	-41.144180
1838	1.8380e+000	-195.915222	-41.119508
1839	1.8390e+000	-194.152832	-41.068794
1840	1.8400e+000	-193.267822	-41.002317
1841	1.8410e+000	-191.970825	-40.987925
1842	1.8420e+000	-190.727234	-40.937897
1843	1.8430e+000	-189.613342	-40.885127
1844	1.8440e+000	-188.423157	-40.843322
1845	1.8450e+000	-187.164307	-40.807685
1846	1.8460e+000	-186.065674	-40.759712
1847	1.8470e+000	-184.700012	-40.704886
1848	1.8480e+000	-183.448792	-40.680214
1849	1.8490e+000	-182.373047	-40.619220
1850	1.8500e+000	-181.243896	-40.589066
1851	1.8510e+000	-179.862976	-40.532184
1852	1.8520e+000	-178.863525	-40.479414
1853	1.8530e+000	-177.658081	-40.444463
1854	1.8540e+000	-176.429749	-40.414308
1855	1.8550e+000	-175.453186	-40.336867
1856	1.8560e+000	-174.102783	-40.301915
1857	1.8570e+000	-172.851563	-40.260795
1858	1.8580e+000	-171.752930	-40.208025
1859	1.8590e+000	-170.417786	-40.160738
1860	1.8600e+000	-169.250488	-40.110709
1861	1.8610e+000	-168.159485	-40.062736
1862	1.8620e+000	-166.725159	-40.003799
1863	1.8630e+000	-165.344238	-39.938007
1864	1.8640e+000	-164.428711	-39.903741
1865	1.8650e+000	-163.070679	-39.837265
1866	1.8660e+000	-161.819458	-39.798886
1867	1.8670e+000	-160.728455	-39.742004
1868	1.8680e+000	-159.561157	-39.692661
1869	1.8690e+000	-158.309937	-39.657024
1870	1.8700e+000	-157.302856	-39.579582
1871	1.8710e+000	-155.982971	-39.558337
1872	1.8720e+000	-154.846191	-39.499399
1873	1.8730e+000	-153.877258	-39.430181
1874	1.8740e+000	-152.183533	-39.379467
1875	1.8750e+000	-151.229858	-39.328753
1876	1.8760e+000	-149.963379	-39.256109
1877	1.8770e+000	-148.666382	-39.205395
1878	1.8780e+000	-147.453308	-39.152625
1879	1.8790e+000	-146.621704	-39.090260
1880	1.8800e+000	-145.095825	-39.014874
1881	1.8810e+000	-144.134521	-38.962104
1882	1.8820e+000	-142.768860	-38.891516
1883	1.8830e+000	-141.510010	-38.831207
1884	1.8840e+000	-140.319824	-38.777752
1885	1.8850e+000	-139.007568	-38.695513
1886	1.8860e+000	-137.802124	-38.635204
1887	1.8870e+000	-136.779785	-38.577637
1888	1.8880e+000	-135.597229	-38.515272
1889	1.8890e+000	-134.170532	-38.443999
1890	1.8900e+000	-133.247375	-38.393970
1891	1.8910e+000	-132.125854	-38.313787
1892	1.8920e+000	-130.523682	-38.254849
1893	1.8930e+000	-129.714966	-38.180834
1894	1.8940e+000	-128.410339	-38.098595
1895	1.8950e+000	-127.151489	-38.032803
1896	1.8960e+000	-126.007080	-37.950564
1897	1.8970e+000	-124.771118	-37.866955
1898	1.8980e+000	-123.352051	-37.794310
1899	1.8990e+000	-122.436523	-37.734002
1900	1.9000e+000	-121.093750	-37.642853
1901	1.9010e+000	-119.895935	-37.570209
1902	1.9020e+000	-118.980408	-37.499620
1903	1.9030e+000	-117.614746	-37.394766
1904	1.9040e+000	-116.294861	-37.320751
1905	1.9050e+000	-115.287781	-37.256330
1906	1.9060e+000	-113.975525	-37.154902
1907	1.9070e+000	-112.503052	-37.068551
1908	1.9080e+000	-111.732483	-36.982885
1909	1.9090e+000	-110.504150	-36.871177
1910	1.9100e+000	-109.062195	-36.776602
1911	1.9110e+000	-108.139038	-36.688881
1912	1.9120e+000	-106.819153	-36.597047
1913	1.9130e+000	-105.628967	-36.488081
1914	1.9140e+000	-104.415894	-36.396932
1915	1.9150e+000	-103.332520	-36.281112
1916	1.9160e+000	-101.776123	-36.184482
1917	1.9170e+000	-100.822449	-36.089907
1918	1.9180e+000	-99.403381	-35.974087
1919	1.9190e+000	-98.419189	-35.857581
1920	1.9200e+000	-97.351074	-35.727370
1921	1.9210e+000	-95.901489	-35.632110
1922	1.9220e+000	-94.841003	-35.512863
1923	1.9230e+000	-93.704224	-35.390190
1924	1.9240e+000	-92.109680	-35.261349
1925	1.9250e+000	-91.255188	-35.130452
1926	1.9260e+000	-90.179443	-34.992701
1927	1.9270e+000	-88.844299	-34.846727
1928	1.9280e+000	-87.783813	-34.727480
1929	1.9290e+000	-86.570740	-34.589045
1930	1.9300e+000	-85.014343	-34.412916
1931	1.9310e+000	-84.053040	-34.268312
1932	1.9320e+000	-82.710266	-34.110002
1933	1.9330e+000	-81.405640	-33.937986
1934	1.9340e+000	-80.390930	-33.780361
1935	1.9350e+000	-79.193115	-33.624107
1936	1.9360e+000	-77.941895	-33.437013
1937	1.9370e+000	-76.820374	-33.238954
1938	1.9380e+000	-75.752258	-33.051860
1939	1.9390e+000	-74.348450	-32.870249
1940	1.9400e+000	-73.112488	-32.669449
1941	1.9410e+000	-72.044373	-32.460425
1942	1.9420e+000	-70.877075	-32.243862
1943	1.9430e+000	-69.572449	-32.003998
1944	1.9440e+000	-68.244934	-31.785380
1945	1.9450e+000	-67.161560	-31.550313
1946	1.9460e+000	-66.268921	-31.298799
1947	1.9470e+000	-64.857483	-31.054138
1948	1.9480e+000	-63.446045	-30.783434
1949	1.9490e+000	-62.370300	-30.506563
1950	1.9500e+000	-61.332703	-30.213244
1951	1.9510e+000	-59.906006	-29.948023
1952	1.9520e+000	-58.853149	-29.654704
1953	1.9530e+000	-57.540894	-29.338084
1954	1.9540e+000	-56.503296	-29.025575
1955	1.9550e+000	-55.297852	-28.717179
1956	1.9560e+000	-53.993225	-28.388908
1957	1.9570e+000	-52.795410	-28.048987
1958	1.9580e+000	-51.589966	-27.683709
1959	1.9590e+000	-50.369263	-27.323913
1960	1.9600e+000	-49.293518	-26.944243
1961	1.9610e+000	-47.813416	-26.565943
1962	1.9620e+000	-46.707153	-26.191071
1963	1.9630e+000	-45.516968	-25.780561
1964	1.9640e+000	-44.281006	-25.370736
1965	1.9650e+000	-43.182373	-24.952003
1966	1.9660e+000	-41.915894	-24.529157
1967	1.9670e+000	-40.802002	-24.103570
1968	1.9680e+000	-39.703369	-23.633437
1969	1.9690e+000	-38.246155	-23.195514
1970	1.9700e+000	-37.162781	-22.728123
1971	1.9710e+000	-35.987854	-22.260046
1972	1.9720e+000	-34.873962	-21.785801
1973	1.9730e+000	-33.592224	-21.307444
1974	1.9740e+000	-32.348633	-20.799618
1975	1.9750e+000	-31.105042	-20.289050
1976	1.9760e+000	-29.838562	-19.792190
1977	1.9770e+000	-28.831482	-19.265860
1978	1.9780e+000	-27.389526	-18.729936
1979	1.9790e+000	-26.527405	-18.198809
1980	1.9800e+000	-25.138855	-17.636157
1981	1.9810e+000	-23.963928	-17.081044
1982	1.9820e+000	-22.933960	-16.542378
1983	1.9830e+000	-21.507263	-15.952313
1984	1.9840e+000	-20.339966	-15.358821
1985	1.9850e+000	-19.287109	-14.779722
1986	1.9860e+000	-18.058777	-14.164985
1987	1.9870e+000	-16.944885	-13.535171
1988	1.9880e+000	-15.464783	-12.928659
1989	1.9890e+000	-14.404297	-12.289936
1990	1.9900e+000	-13.153076	-11.640933
1991	1.9910e+000	-11.962891	-10.996042
1992	1.9920e+000	-10.604858	-10.318940
1993	1.9930e+000	-9.651184	-9.647322
1994	1.9940e+000	-8.300781	-8.956514
1995	1.9950e+000	-6.996155	-8.269133
1996	1.9960e+000	-6.111145	-7.563933
1997	1.9970e+000	-4.653931	-6.834748
1998	1.9980e+000	-3.532410	-6.103506
1999	1.9990e+000	-2.380371	-5.399677
2000	2.0000e+000	-1.197815	-4.671176
2001	2.0010e+000	0.122070	-3.950214

Center data before PMax,±Pr and ±Vc Calc.

PMax (µC/cm2):	4.40e+001
Pr (µC/cm2):	1.70e+001
-Pr (µC/cm2):	-3.95e+000
Vc:	5.46e-002
-Vc:	-5.10e-001
C (Max-Eff) (nF):	9.09e-001
K (Eff):	1.66e+003
Vert. (±Pr) Shift (µC/cm2):	6.55e+000
Horiz. Shift (±Vc):	-2.28e-001
Offset (µC/cm2):	-5.75e+000

A (Loop Area - µC/cm2·Volts):	4.87e+001



Hysteresis Version: 5.16.2 - Radiant Technologies, Inc., 1999 - 3/20/18

