»»»»»»»»»»»»»»»»»»»»»»»»»»»»»»»»»»»» Hysteresis ««««««««««««««««««««««««««««««««««««
»»»  Executed Version:	5.16.2
»»»  Vision Version:	5.16.10 (R)
»»»  Vision Compiled:	4/26/18
»»»  Driver Version:	5.16.6
»»»  Windows Version:	Windows 8
»»»  Processor Information:	x86 (AMD or Intel) - 8 Processors
»»»  Tester Name:	PPM21016-863
»»»  Tester S/N:	PPM21016-863
»»»  Internal Amp Type:	 RTI ML200V    
»»»  Internal Amp S/N:	 iAB2-0000     
»»»  Execution Count:	1
»»»»»»»»»»»»»»»»»»»»»»»»»»»»»»»»»»»»»»»»»»««««««««««««««««««««««««««««««««««««««««««

Stored:	6/19/2018 - 5:34:20
Configured:	06/19/18 05:20:53 AM
Executed:	06/19/18 05:33:53 AM

»»»»»»»»»»»»»»»»»»»»»»»»»»»»»»»»»»» Sample Info ««««««««««««««««««««««««««««««««««««
Sample Name:	Internal Reference Cap.
Lot Name:	N/A
Wafer Name:	N/A
Die Row/Column:	0/0
Capacitor Number:	0
Sample Area (cm2):	6.20e-005
Sample Thickness (µm):	1.00e-001

Mux Loop Adjustment:	Disabled

Amplifier:	Internal

»»»»»»»»»»»»»»»»»»»»»»»»»»»»»»»»»»» Tester Info «««««««««««««««««««««««««««««««««««
Tester Name:	PPM21016-863
Tester Serial Number:	PPM21016-863
Return Signal Amp. Level:	1.79 [Index: 2]

»»»»»»»»»»»»»»»»»»»»»»»»»»»»»»»» Hysteresis Info ««««««««««««««««««««««««««««««««««
Task Name:	Hyst-1
Volts:	3.00
Field:	300.00 (kV/cm)
Hysteresis Period (ms):	2.00e+000
Preset:	Enabled
Preset Delay (ms):	1.00e+003
Profile:	Double Bipolar

»»»»»»»»»»»»»»»»»»»»»»»»»»»»»»»»»»»»»» Data «««««««««««««««««««««««««««««««««««««««
Points:	2001

Valid Data

Point	Time (ms)	Field (kV/cm)	Measured Polarization
   1	1.0000e-003	0.106812	-31.810737
   2	2.0000e-003	1.022339	-31.755225
   3	3.0000e-003	2.433777	-31.762764
   4	4.0000e-003	3.433228	-31.739463
   5	5.0000e-003	4.562378	-31.721644
   6	6.0000e-003	5.935669	-31.688749
   7	7.0000e-003	7.072449	-31.669560
   8	8.0000e-003	8.140564	-31.645573
   9	9.0000e-003	9.483337	-31.600342
  10	1.0000e-002	10.650635	-31.564020
  11	1.1000e-002	12.008667	-31.531124
  12	1.2000e-002	13.420105	-31.483151
  13	1.3000e-002	14.190674	-31.438605
  14	1.4000e-002	15.762329	-31.383779
  15	1.5000e-002	16.822815	-31.325526
  16	1.6000e-002	17.829895	-31.254938
  17	1.7000e-002	19.393921	-31.200112
  18	1.8000e-002	20.408630	-31.119244
  19	1.9000e-002	21.598816	-31.029466
  20	2.0000e-002	22.598267	-30.939003
  21	2.1000e-002	23.689270	-30.803994
  22	2.2000e-002	25.131226	-30.730664
  23	2.3000e-002	26.344299	-30.613474
  24	2.4000e-002	27.381897	-30.488744
  25	2.5000e-002	28.411865	-30.346197
  26	2.6000e-002	29.716492	-30.196111
  27	2.7000e-002	31.036377	-30.032318
  28	2.8000e-002	32.363892	-29.835630
  29	2.9000e-002	33.538818	-29.623864
  30	3.0000e-002	34.805298	-29.428546
  31	3.1000e-002	36.010742	-29.174976
  32	3.2000e-002	37.162781	-28.917979
  33	3.3000e-002	38.452148	-28.632884
  34	3.4000e-002	39.131165	-28.334768
  35	3.5000e-002	40.473938	-27.970175
  36	3.6000e-002	41.831970	-27.626827
  37	3.7000e-002	43.045044	-27.188219
  38	3.8000e-002	44.395447	-26.715344
  39	3.9000e-002	45.867920	-26.189015
  40	4.0000e-002	46.691895	-25.675021
  41	4.1000e-002	47.775269	-25.080844
  42	4.2000e-002	48.973083	-24.429785
  43	4.3000e-002	50.170898	-23.710194
  44	4.4000e-002	51.406860	-22.937147
  45	4.5000e-002	52.635193	-22.099679
  46	4.6000e-002	53.733826	-21.225205
  47	4.7000e-002	54.954529	-20.239022
  48	4.8000e-002	56.449890	-19.212405
  49	4.9000e-002	57.312012	-18.073394
  50	5.0000e-002	58.670044	-16.892579
  51	5.1000e-002	59.867859	-15.652826
  52	5.2000e-002	61.019897	-14.350023
  53	5.3000e-002	62.202454	-12.964295
  54	5.4000e-002	63.545227	-11.525113
  55	5.5000e-002	64.559937	-10.070853
  56	5.6000e-002	65.734863	-8.572732
  57	5.7000e-002	66.864014	-7.022527
  58	5.8000e-002	68.450928	-5.433258
  59	5.9000e-002	69.274902	-3.829597
  60	6.0000e-002	70.625305	-2.204691
  61	6.1000e-002	71.495056	-0.607883
  62	6.2000e-002	72.944641	0.985498
  63	6.3000e-002	74.249268	2.560375
  64	6.4000e-002	75.401306	4.161294
  65	6.5000e-002	76.759338	5.706702
  66	6.6000e-002	77.873230	7.191117
  67	6.7000e-002	78.971863	8.663880
  68	6.8000e-002	80.177307	10.033845
  69	6.9000e-002	81.405640	11.390104
  70	7.0000e-002	82.580566	12.668235
  71	7.1000e-002	84.068298	13.937457
  72	7.2000e-002	85.075378	15.086062
  73	7.3000e-002	86.265564	16.233296
  74	7.4000e-002	87.127686	17.320222
  75	7.5000e-002	88.500977	18.342727
  76	7.6000e-002	89.630127	19.332337
  77	7.7000e-002	90.972900	20.265064
  78	7.8000e-002	92.117310	21.157357
  79	7.9000e-002	93.444824	22.038686
  80	8.0000e-002	94.581604	22.843943
  81	8.1000e-002	95.832825	23.643717
  82	8.2000e-002	97.259521	24.368106
  83	8.3000e-002	98.106384	25.069193
  84	8.4000e-002	99.479675	25.725049
  85	8.5000e-002	100.631714	26.348695
  86	8.6000e-002	101.997375	26.942872
  87	8.7000e-002	103.111267	27.510321
  88	8.8000e-002	104.537964	28.048987
  89	8.9000e-002	105.232239	28.524603
  90	9.0000e-002	106.849670	28.988568
  91	9.1000e-002	107.963562	29.399763
  92	9.2000e-002	109.207153	29.823979
  93	9.3000e-002	110.145569	30.186516
  94	9.4000e-002	111.610413	30.544256
  95	9.5000e-002	112.579346	30.882806
  96	9.6000e-002	114.036560	31.198056
  97	9.7000e-002	115.234375	31.485207
  98	9.8000e-002	116.416931	31.741519
  99	9.9000e-002	117.622375	32.007425
 100	1.0000e-001	118.942261	32.226729
 101	1.0100e-001	119.949341	32.447404
 102	1.0200e-001	121.253967	32.655742
 103	1.0300e-001	122.108459	32.825703
 104	1.0400e-001	123.420715	32.980587
 105	1.0500e-001	124.916077	33.177960
 106	1.0600e-001	126.007080	33.336270
 107	1.0700e-001	127.098083	33.466482
 108	1.0800e-001	128.456116	33.614512
 109	1.0900e-001	129.745483	33.729647
 110	1.1000e-001	130.752563	33.859859
 111	1.1100e-001	131.889343	33.971567
 112	1.1200e-001	133.018494	34.059288
 113	1.1300e-001	134.391785	34.158660
 114	1.1400e-001	135.673523	34.275851
 115	1.1500e-001	136.611938	34.354663
 116	1.1600e-001	137.809753	34.441700
 117	1.1700e-001	139.228821	34.521197
 118	1.1800e-001	140.098572	34.611660
 119	1.1900e-001	141.563416	34.682934
 120	1.2000e-001	142.898560	34.748725
 121	1.2100e-001	143.798828	34.819314
 122	1.2200e-001	144.821167	34.866601
 123	1.2300e-001	146.301270	34.930337
 124	1.2400e-001	147.514343	35.009834
 125	1.2500e-001	148.811340	35.061234
 126	1.2600e-001	150.001526	35.096185
 127	1.2700e-001	151.077271	35.168830
 128	1.2800e-001	152.359009	35.204467
 129	1.2900e-001	153.633118	35.267517
 130	1.3000e-001	154.785156	35.301097
 131	1.3100e-001	156.074524	35.362777
 132	1.3200e-001	157.066345	35.388819
 133	1.3300e-001	158.355713	35.464890
 134	1.3400e-001	159.484863	35.487506
 135	1.3500e-001	160.659790	35.539591
 136	1.3600e-001	161.804199	35.577283
 137	1.3700e-001	163.238525	35.636221
 138	1.3800e-001	164.688110	35.633480
 139	1.3900e-001	165.321350	35.677341
 140	1.4000e-001	166.839600	35.721202
 141	1.4100e-001	168.052673	35.756153
 142	1.4200e-001	169.227600	35.782881
 143	1.4300e-001	170.303345	35.832224
 144	1.4400e-001	171.722412	35.852784
 145	1.4500e-001	173.095703	35.904869
 146	1.4600e-001	173.896790	35.916519
 147	1.4700e-001	175.331116	35.962436
 148	1.4800e-001	176.322937	35.993961
 149	1.4900e-001	177.566528	36.008353
 150	1.5000e-001	178.855896	36.084424
 151	1.5100e-001	179.939270	36.085795
 152	1.5200e-001	181.076050	36.121432
 153	1.5300e-001	182.556152	36.147474
 154	1.5400e-001	183.731079	36.163922
 155	1.5500e-001	184.837341	36.188594
 156	1.5600e-001	186.119080	36.211209
 157	1.5700e-001	187.255859	36.254385
 158	1.5800e-001	188.156128	36.282483
 159	1.5900e-001	189.659119	36.317435
 160	1.6000e-001	190.940857	36.338680
 161	1.6100e-001	191.917419	36.369519
 162	1.6200e-001	193.069458	36.386652
 163	1.6300e-001	194.442749	36.405842
 164	1.6400e-001	195.480347	36.409268
 165	1.6500e-001	197.013855	36.452444
 166	1.6600e-001	198.013306	36.486025
 167	1.6700e-001	199.119568	36.510011
 168	1.6800e-001	200.775146	36.526459
 169	1.6900e-001	201.477051	36.552501
 170	1.7000e-001	202.758789	36.578544
 171	1.7100e-001	204.162598	36.597733
 172	1.7200e-001	205.406189	36.611439
 173	1.7300e-001	206.314087	36.653244
 174	1.7400e-001	207.504272	36.653929
 175	1.7500e-001	208.854675	36.684769
 176	1.7600e-001	209.976196	36.717665
 177	1.7700e-001	211.326599	36.740280
 178	1.7800e-001	212.333679	36.760840
 179	1.7900e-001	213.310242	36.771805
 180	1.8000e-001	214.790344	36.804701
 181	1.8100e-001	215.965271	36.829373
 182	1.8200e-001	217.033386	36.856786
 183	1.8300e-001	218.414307	36.894478
 184	1.8400e-001	219.551086	36.885569
 185	1.8500e-001	221.168518	36.910926
 186	1.8600e-001	221.939087	36.945192
 187	1.8700e-001	223.365784	36.973291
 188	1.8800e-001	224.533081	36.984256
 189	1.8900e-001	225.669861	37.006872
 190	1.9000e-001	226.989746	37.032914
 191	1.9100e-001	228.103638	37.043879
 192	1.9200e-001	229.476929	37.053474
 193	1.9300e-001	230.476379	37.089111
 194	1.9400e-001	231.781006	37.106244
 195	1.9500e-001	232.681274	37.117209
 196	1.9600e-001	234.046936	37.152846
 197	1.9700e-001	235.015869	37.183000
 198	1.9800e-001	236.602783	37.179574
 199	1.9900e-001	237.510681	37.200819
 200	2.0000e-001	238.731384	37.216581
 201	2.0100e-001	240.127563	37.196707
 202	2.0200e-001	241.424561	37.256330
 203	2.0300e-001	242.416382	37.276890
 204	2.0400e-001	243.484497	37.302247
 205	2.0500e-001	244.689941	37.324863
 206	2.0600e-001	246.063232	37.325548
 207	2.0700e-001	247.200012	37.350905
 208	2.0800e-001	248.191833	37.372150
 209	2.0900e-001	249.664307	37.391339
 210	2.1000e-001	251.113892	37.396822
 211	2.1100e-001	252.029419	37.435200
 212	2.1200e-001	253.067017	37.444109
 213	2.1300e-001	254.295349	37.461928
 214	2.1400e-001	255.462646	37.492767
 215	2.1500e-001	256.782532	37.504418
 216	2.1600e-001	257.987976	37.506474
 217	2.1700e-001	259.086609	37.533887
 218	2.1800e-001	260.406494	37.562670
 219	2.1900e-001	261.917114	37.594195
 220	2.2000e-001	262.992859	37.592139
 221	2.2100e-001	263.679504	37.594195
 222	2.2200e-001	265.319824	37.632574
 223	2.2300e-001	266.357422	37.656560
 224	2.2400e-001	267.562866	37.630518
 225	2.2500e-001	268.577576	37.682602
 226	2.2600e-001	270.027161	37.703162
 227	2.2700e-001	271.293640	37.705903
 228	2.2800e-001	272.399902	37.731946
 229	2.2900e-001	273.780823	37.779233
 230	2.3000e-001	274.864197	37.764841
 231	2.3100e-001	276.008606	37.792254
 232	2.3200e-001	277.008057	37.785401
 233	2.3300e-001	278.244019	37.833374
 234	2.3400e-001	279.815674	37.836115
 235	2.3500e-001	280.616760	37.851192
 236	2.3600e-001	282.203674	37.862843
 237	2.3700e-001	283.195496	37.889570
 238	2.3800e-001	284.263611	37.919725
 239	2.3900e-001	285.453796	37.920410
 240	2.4000e-001	286.888123	37.936173
 241	2.4100e-001	288.070679	37.954676
 242	2.4200e-001	289.222717	37.971124
 243	2.4300e-001	290.611267	37.981404
 244	2.4400e-001	291.610718	38.018412
 245	2.4500e-001	292.747498	38.034859
 246	2.4600e-001	294.395447	38.033489
 247	2.4700e-001	295.394897	38.023209
 248	2.4800e-001	296.363831	38.065699
 249	2.4900e-001	297.492981	38.086944
 250	2.5000e-001	298.759460	38.101336
 251	2.5100e-001	300.025940	38.110930
 252	2.5200e-001	298.767090	38.116413
 253	2.5300e-001	297.447205	38.085573
 254	2.5400e-001	296.432495	38.067755
 255	2.5500e-001	295.310974	38.071182
 256	2.5600e-001	294.212341	38.067070
 257	2.5700e-001	292.526245	38.042398
 258	2.5800e-001	291.717529	38.028691
 259	2.5900e-001	290.443420	38.019782
 260	2.6000e-001	288.787842	37.995796
 261	2.6100e-001	288.108826	37.959474
 262	2.6200e-001	286.926270	37.970439
 263	2.6300e-001	285.758972	37.952620
 264	2.6400e-001	284.309387	37.947823
 265	2.6500e-001	283.203125	37.941655
 266	2.6600e-001	281.845093	37.921095
 267	2.6700e-001	280.784607	37.903277
 268	2.6800e-001	279.510498	37.888885
 269	2.6900e-001	278.450012	37.875864
 270	2.7000e-001	277.236938	37.860787
 271	2.7100e-001	276.374817	37.871752
 272	2.7200e-001	274.742126	37.834059
 273	2.7300e-001	273.544312	37.807331
 274	2.7400e-001	272.407532	37.813499
 275	2.7500e-001	271.049500	37.794310
 276	2.7600e-001	269.981384	37.785401
 277	2.7700e-001	268.669128	37.778548
 278	2.7800e-001	267.509460	37.757988
 279	2.7900e-001	266.281128	37.731260
 280	2.8000e-001	264.915466	37.702477
 281	2.8100e-001	263.763428	37.709330
 282	2.8200e-001	262.863159	37.685344
 283	2.8300e-001	261.619568	37.685344
 284	2.8400e-001	260.612488	37.681232
 285	2.8500e-001	259.269714	37.674378
 286	2.8600e-001	258.010864	37.640797
 287	2.8700e-001	256.645203	37.635315
 288	2.8800e-001	255.676270	37.609273
 289	2.8900e-001	254.264832	37.603105
 290	2.9000e-001	253.158569	37.583230
 291	2.9100e-001	251.945496	37.547593
 292	2.9200e-001	250.686646	37.548964
 293	2.9300e-001	249.626160	37.539369
 294	2.9400e-001	248.245239	37.526348
 295	2.9500e-001	247.177124	37.504418
 296	2.9600e-001	246.070862	37.498935
 297	2.9700e-001	244.888306	37.483173
 298	2.9800e-001	243.583679	37.480431
 299	2.9900e-001	242.500305	37.438627
 300	3.0000e-001	241.180420	37.429717
 301	3.0100e-001	240.196228	37.409843
 302	3.0200e-001	238.914490	37.416696
 303	3.0300e-001	237.678528	37.389968
 304	3.0400e-001	236.366272	37.371465
 305	3.0500e-001	235.298157	37.374206
 306	3.0600e-001	233.871460	37.339940
 307	3.0700e-001	232.780457	37.329660
 308	3.0800e-001	231.384277	37.344052
 309	3.0900e-001	230.339050	37.298135
 310	3.1000e-001	229.179382	37.287855
 311	3.1100e-001	228.027344	37.262498
 312	3.1200e-001	226.867676	37.253589
 313	3.1300e-001	225.349426	37.229602
 314	3.1400e-001	224.357605	37.217952
 315	3.1500e-001	223.457336	37.200133
 316	3.1600e-001	222.206116	37.198077
 317	3.1700e-001	220.649719	37.145993
 318	3.1800e-001	219.619751	37.159699
 319	3.1900e-001	218.437195	37.145307
 320	3.2000e-001	217.155457	37.126118
 321	3.2100e-001	215.820313	37.145993
 322	3.2200e-001	214.866638	37.093908
 323	3.2300e-001	213.584900	37.089111
 324	3.2400e-001	212.417603	37.072663
 325	3.2500e-001	211.082458	37.052103
 326	3.2600e-001	209.869385	37.051418
 327	3.2700e-001	208.801270	37.021949
 328	3.2800e-001	207.801819	37.006872
 329	3.2900e-001	206.222534	37.002760
 330	3.3000e-001	205.032349	36.976717
 331	3.3100e-001	204.216003	36.970549
 332	3.3200e-001	202.774048	36.937654
 333	3.3300e-001	201.736450	36.906814
 334	3.3400e-001	200.050354	36.912297
 335	3.3500e-001	199.203491	36.897905
 336	3.3600e-001	198.059082	36.904758
 337	3.3700e-001	196.784973	36.856100
 338	3.3800e-001	195.365906	36.843079
 339	3.3900e-001	194.404602	36.844450
 340	3.4000e-001	193.199158	36.821834
 341	3.4100e-001	192.047119	36.809498
 342	3.4200e-001	190.711975	36.782085
 343	3.4300e-001	189.323425	36.762211
 344	3.4400e-001	188.461304	36.747133
 345	3.4500e-001	187.286377	36.749875
 346	3.4600e-001	186.256409	36.716979
 347	3.4700e-001	184.783936	36.706014
 348	3.4800e-001	183.853149	36.675174
 349	3.4900e-001	182.258606	36.674489
 350	3.5000e-001	181.190491	36.666950
 351	3.5100e-001	179.985046	36.626516
 352	3.5200e-001	178.733826	36.620348
 353	3.5300e-001	177.612305	36.608012
 354	3.5400e-001	176.414490	36.554557
 355	3.5500e-001	175.277710	36.577858
 356	3.5600e-001	174.034119	36.545648
 357	3.5700e-001	172.752380	36.544963
 358	3.5800e-001	171.913147	36.486025
 359	3.5900e-001	170.372009	36.492878
 360	3.6000e-001	169.197083	36.481913
 361	3.6100e-001	167.816162	36.462724
 362	3.6200e-001	166.717529	36.440793
 363	3.6300e-001	165.733337	36.407212
 364	3.6400e-001	164.382935	36.425031
 365	3.6500e-001	163.162231	36.398303
 366	3.6600e-001	161.865234	36.353757
 367	3.6700e-001	160.682678	36.363351
 368	3.6800e-001	159.454346	36.341421
 369	3.6900e-001	158.332825	36.308525
 370	3.7000e-001	157.249451	36.298246
 371	3.7100e-001	156.013489	36.294134
 372	3.7200e-001	154.685974	36.261923
 373	3.7300e-001	153.327942	36.246161
 374	3.7400e-001	152.275085	36.235881
 375	3.7500e-001	151.077271	36.219433
 376	3.7600e-001	149.658203	36.204356
 377	3.7700e-001	148.811340	36.165292
 378	3.7800e-001	147.422791	36.159125
 379	3.7900e-001	146.331787	36.142677
 380	3.8000e-001	145.347595	36.133082
 381	3.8100e-001	144.088745	36.119376
 382	3.8200e-001	142.631531	36.088536
 383	3.8300e-001	141.525269	36.060438
 384	3.8400e-001	140.167236	36.044675
 385	3.8500e-001	139.152527	36.029598
 386	3.8600e-001	137.962341	35.996017
 387	3.8700e-001	136.657715	35.998758
 388	3.8800e-001	135.322571	35.959695
 389	3.8900e-001	134.300232	35.952842
 390	3.9000e-001	133.224487	35.934338
 391	3.9100e-001	132.057190	35.910352
 392	3.9200e-001	130.775452	35.886365
 393	3.9300e-001	129.394531	35.863064
 394	3.9400e-001	128.387451	35.850043
 395	3.9500e-001	127.029419	35.802755
 396	3.9600e-001	125.968933	35.812350
 397	3.9700e-001	124.908447	35.782196
 398	3.9800e-001	123.435974	35.770545
 399	3.9900e-001	122.550964	35.749985
 400	4.0000e-001	121.337891	35.704069
 401	4.0100e-001	119.857788	35.710237
 402	4.0200e-001	118.858337	35.681453
 403	4.0300e-001	117.462158	35.670488
 404	4.0400e-001	116.432190	35.634851
 405	4.0500e-001	115.470886	35.629368
 406	4.0600e-001	114.196777	35.600585
 407	4.0700e-001	112.762451	35.583451
 408	4.0800e-001	111.602783	35.539591
 409	4.0900e-001	110.221863	35.539591
 410	4.1000e-001	109.123230	35.512178
 411	4.1100e-001	108.055115	35.489562
 412	4.1200e-001	106.605530	35.473114
 413	4.1300e-001	105.209351	35.447757
 414	4.1400e-001	104.309082	35.414861
 415	4.1500e-001	102.821350	35.399099
 416	4.1600e-001	102.088928	35.370315
 417	4.1700e-001	100.578308	35.360721
 418	4.1800e-001	99.555969	35.336734
 419	4.1900e-001	98.495483	35.312748
 420	4.2000e-001	96.908569	35.277111
 421	4.2100e-001	95.718384	35.247642
 422	4.2200e-001	94.863892	35.236677
 423	4.2300e-001	93.292236	35.194187
 424	4.2400e-001	92.338562	35.185963
 425	4.2500e-001	91.094971	35.167459
 426	4.2600e-001	89.950562	35.116745
 427	4.2700e-001	88.813782	35.106465
 428	4.2800e-001	87.638855	35.074940
 429	4.2900e-001	86.265564	35.066031
 430	4.3000e-001	85.304260	35.041359
 431	4.3100e-001	84.022522	35.011205
 432	4.3200e-001	82.664490	34.956379
 433	4.3300e-001	81.794739	34.959120
 434	4.3400e-001	80.467224	34.925539
 435	4.3500e-001	79.231262	34.903609
 436	4.3600e-001	78.132629	34.870028
 437	4.3700e-001	76.805115	34.863860
 438	4.3800e-001	75.454712	34.802181
 439	4.3900e-001	74.134827	34.758320
 440	4.4000e-001	73.143005	34.747355
 441	4.4100e-001	72.082520	34.728166
 442	4.4200e-001	70.785522	34.705550
 443	4.4300e-001	69.725037	34.653465
 444	4.4400e-001	68.443298	34.646612
 445	4.4500e-001	67.054749	34.604122
 446	4.4600e-001	66.085815	34.564373
 447	4.4700e-001	64.842224	34.520512
 448	4.4800e-001	63.659668	34.510232
 449	4.4900e-001	62.057495	34.462945
 450	4.5000e-001	61.233521	34.442385
 451	4.5100e-001	59.860229	34.393042
 452	4.5200e-001	58.677673	34.338901
 453	4.5300e-001	57.250977	34.329992
 454	4.5400e-001	55.900574	34.276536
 455	4.5500e-001	54.962158	34.241585
 456	4.5600e-001	53.817749	34.215542
 457	4.5700e-001	52.566528	34.160031
 458	4.5800e-001	51.490784	34.123024
 459	4.5900e-001	50.430298	34.073680
 460	4.6000e-001	49.163818	34.021595
 461	4.6100e-001	47.889709	33.989385
 462	4.6200e-001	46.798706	33.933874
 463	4.6300e-001	45.478821	33.896866
 464	4.6400e-001	44.517517	33.846838
 465	4.6500e-001	42.816162	33.811201
 466	4.6600e-001	41.999817	33.741297
 467	4.6700e-001	40.481567	33.671394
 468	4.6800e-001	39.588928	33.621366
 469	4.6900e-001	38.475037	33.539812
 470	4.7000e-001	37.017822	33.504860
 471	4.7100e-001	36.109924	33.447978
 472	4.7200e-001	34.866333	33.376704
 473	4.7300e-001	33.470154	33.298577
 474	4.7400e-001	32.196045	33.221136
 475	4.7500e-001	31.112671	33.148491
 476	4.7600e-001	29.823303	33.058714
 477	4.7700e-001	28.381348	32.970307
 478	4.7800e-001	27.618408	32.869564
 479	4.7900e-001	26.168823	32.813367
 480	4.8000e-001	25.001526	32.709198
 481	4.8100e-001	23.803711	32.589266
 482	4.8200e-001	22.750854	32.489894
 483	4.8300e-001	21.430969	32.380242
 484	4.8400e-001	20.256042	32.250715
 485	4.8500e-001	19.203186	32.122560
 486	4.8600e-001	17.967224	31.988236
 487	4.8700e-001	16.708374	31.833352
 488	4.8800e-001	15.617371	31.669560
 489	4.8900e-001	13.961792	31.513305
 490	4.9000e-001	13.374329	31.317988
 491	4.9100e-001	11.909485	31.138433
 492	4.9200e-001	10.757446	30.923926
 493	4.9300e-001	9.887695	30.714902
 494	4.9400e-001	8.232117	30.469555
 495	4.9500e-001	7.186890	30.217356
 496	4.9600e-001	6.103516	29.961729
 497	4.9700e-001	4.760742	29.664298
 498	4.9800e-001	3.517151	29.362755
 499	4.9900e-001	2.571106	29.057100
 500	5.0000e-001	1.091003	28.687025
 501	5.0100e-001	-0.190735	28.334768
 502	5.0200e-001	-0.930786	27.979769
 503	5.0300e-001	-2.319336	27.509636
 504	5.0400e-001	-3.707886	27.066916
 505	5.0500e-001	-4.646301	26.579650
 506	5.0600e-001	-6.034851	26.105405
 507	5.0700e-001	-7.301331	25.535900
 508	5.0800e-001	-8.361816	24.956115
 509	5.0900e-001	-9.422302	24.326986
 510	5.1000e-001	-10.787964	23.688948
 511	5.1100e-001	-11.756897	22.977581
 512	5.1200e-001	-13.099670	22.240856
 513	5.1300e-001	-14.572144	21.447250
 514	5.1400e-001	-15.571594	20.589908
 515	5.1500e-001	-16.860962	19.716804
 516	5.1600e-001	-17.890930	18.762146
 517	5.1700e-001	-18.959045	17.774593
 518	5.1800e-001	-20.225525	16.747290
 519	5.1900e-001	-21.537781	15.637749
 520	5.2000e-001	-22.399902	14.462416
 521	5.2100e-001	-23.963928	13.241167
 522	5.2200e-001	-25.001526	11.960979
 523	5.2300e-001	-26.008606	10.652009
 524	5.2400e-001	-27.343750	9.240239
 525	5.2500e-001	-28.739929	7.801056
 526	5.2600e-001	-29.731750	6.303621
 527	5.2700e-001	-31.127930	4.784255
 528	5.2800e-001	-32.211304	3.206636
 529	5.2900e-001	-33.531189	1.629703
 530	5.3000e-001	-34.599304	0.015077
 531	5.3100e-001	-35.766602	-1.641354
 532	5.3200e-001	-36.880493	-3.251182
 533	5.3300e-001	-38.108826	-4.889795
 534	5.3400e-001	-39.642334	-6.490714
 535	5.3500e-001	-40.611267	-8.106026
 536	5.3600e-001	-41.351318	-9.757659
 537	5.3700e-001	-43.029785	-11.314033
 538	5.3800e-001	-44.410706	-12.866979
 539	5.3900e-001	-45.356750	-14.349338
 540	5.4000e-001	-46.676636	-15.816619
 541	5.4100e-001	-47.706604	-17.228388
 542	5.4200e-001	-48.965454	-18.568199
 543	5.4300e-001	-50.575256	-19.868261
 544	5.4400e-001	-51.612854	-21.128574
 545	5.4500e-001	-52.459717	-22.316242
 546	5.4600e-001	-53.863525	-23.429210
 547	5.4700e-001	-55.183411	-24.492835
 548	5.4800e-001	-56.495667	-25.524934
 549	5.4900e-001	-57.540894	-26.459033
 550	5.5000e-001	-58.700562	-27.351326
 551	5.5100e-001	-60.050964	-28.194276
 552	5.5200e-001	-61.408997	-28.996106
 553	5.5300e-001	-62.309265	-29.740369
 554	5.5400e-001	-63.446045	-30.401708
 555	5.5500e-001	-64.849854	-30.989717
 556	5.5600e-001	-65.963745	-31.487948
 557	5.5700e-001	-66.886902	-31.920389
 558	5.5800e-001	-68.443298	-32.302115
 559	5.5900e-001	-69.633484	-32.594063
 560	5.6000e-001	-70.755005	-32.841466
 561	5.6100e-001	-72.059631	-33.028559
 562	5.6200e-001	-73.249817	-33.182072
 563	5.6300e-001	-74.310303	-33.333529
 564	5.6400e-001	-75.683594	-33.456202
 565	5.6500e-001	-76.774597	-33.545980
 566	5.6600e-001	-77.888489	-33.671394
 567	5.6700e-001	-79.315186	-33.744039
 568	5.6800e-001	-80.558777	-33.819425
 569	5.6900e-001	-81.489563	-33.885901
 570	5.7000e-001	-82.885742	-33.961287
 571	5.7100e-001	-83.557129	-34.012686
 572	5.7200e-001	-85.227966	-34.094240
 573	5.7300e-001	-86.563110	-34.134674
 574	5.7400e-001	-87.760925	-34.212116
 575	5.7500e-001	-88.676453	-34.271739
 576	5.7600e-001	-89.950562	-34.316285
 577	5.7700e-001	-91.331482	-34.374538
 578	5.7800e-001	-92.475891	-34.408804
 579	5.7900e-001	-93.521118	-34.462260
 580	5.8000e-001	-94.688416	-34.514344
 581	5.8100e-001	-95.794678	-34.564373
 582	5.8200e-001	-97.305298	-34.604807
 583	5.8300e-001	-98.526001	-34.644556
 584	5.8400e-001	-99.586487	-34.680878
 585	5.8500e-001	-100.769043	-34.732963
 586	5.8600e-001	-101.943970	-34.756949
 587	5.8700e-001	-103.546143	-34.805607
 588	5.8800e-001	-104.774475	-34.841244
 589	5.8900e-001	-105.789185	-34.870713
 590	5.9000e-001	-106.636047	-34.915945
 591	5.9100e-001	-107.963562	-34.955694
 592	5.9200e-001	-109.359741	-34.989960
 593	5.9300e-001	-110.412598	-35.019429
 594	5.9400e-001	-111.267090	-35.057122
 595	5.9500e-001	-112.998962	-35.111262
 596	5.9600e-001	-114.105225	-35.112633
 597	5.9700e-001	-115.646362	-35.153753
 598	5.9800e-001	-116.424561	-35.190075
 599	5.9900e-001	-118.331909	-35.198299
 600	6.0000e-001	-118.820190	-35.243530
 601	6.0100e-001	-120.399475	-35.288076
 602	6.0200e-001	-121.315002	-35.302468
 603	6.0300e-001	-122.688293	-35.325769
 604	6.0400e-001	-123.565674	-35.351126
 605	6.0500e-001	-125.030518	-35.390875
 606	6.0600e-001	-126.129150	-35.425141
 607	6.0700e-001	-127.243042	-35.449128
 608	6.0800e-001	-128.684998	-35.465575
 609	6.0900e-001	-129.798889	-35.488191
 610	6.1000e-001	-130.691528	-35.522457
 611	6.1100e-001	-131.958008	-35.547815
 612	6.1200e-001	-133.247375	-35.584137
 613	6.1300e-001	-134.506226	-35.607438
 614	6.1400e-001	-135.826111	-35.612235
 615	6.1500e-001	-136.718750	-35.659523
 616	6.1600e-001	-138.160706	-35.685565
 617	6.1700e-001	-139.343262	-35.708181
 618	6.1800e-001	-140.441895	-35.741076
 619	6.1900e-001	-141.654968	-35.747244
 620	6.2000e-001	-143.043518	-35.783566
 621	6.2100e-001	-144.157410	-35.815777
 622	6.2200e-001	-145.225525	-35.831539
 623	6.2300e-001	-146.415710	-35.857581
 624	6.2400e-001	-147.842407	-35.869232
 625	6.2500e-001	-148.735046	-35.891848
 626	6.2600e-001	-149.963379	-35.923373
 627	6.2700e-001	-151.397705	-35.983681
 628	6.2800e-001	-152.381897	-35.966548
 629	6.2900e-001	-153.900146	-36.002185
 630	6.3000e-001	-154.899597	-36.004926
 631	6.3100e-001	-156.219482	-36.026857
 632	6.3200e-001	-157.279968	-36.045361
 633	6.3300e-001	-158.653259	-36.085109
 634	6.3400e-001	-159.637451	-36.090592
 635	6.3500e-001	-160.621643	-36.109781
 636	6.3600e-001	-161.941528	-36.143362
 637	6.3700e-001	-163.215637	-36.161866
 638	6.3800e-001	-164.604187	-36.182426
 639	6.3900e-001	-165.809631	-36.205041
 640	6.4000e-001	-166.725159	-36.224230
 641	6.4100e-001	-167.900085	-36.242734
 642	6.4200e-001	-169.281006	-36.278371
 643	6.4300e-001	-170.379639	-36.292763
 644	6.4400e-001	-171.775818	-36.306469
 645	6.4500e-001	-173.080444	-36.321547
 646	6.4600e-001	-174.087524	-36.337309
 647	6.4700e-001	-175.163269	-36.368834
 648	6.4800e-001	-176.445007	-36.396932
 649	6.4900e-001	-177.566528	-36.392820
 650	6.5000e-001	-178.771973	-36.420233
 651	6.5100e-001	-180.198669	-36.435996
 652	6.5200e-001	-181.228638	-36.466150
 653	6.5300e-001	-182.388306	-36.479171
 654	6.5400e-001	-183.837891	-36.500416
 655	6.5500e-001	-184.738159	-36.503843
 656	6.5600e-001	-185.981750	-36.551816
 657	6.5700e-001	-187.271118	-36.571690
 658	6.5800e-001	-188.545227	-36.594306
 659	6.5900e-001	-189.743042	-36.588823
 660	6.6000e-001	-191.101074	-36.625146
 661	6.6100e-001	-191.986084	-36.640908
 662	6.6200e-001	-193.229675	-36.649817
 663	6.6300e-001	-194.419861	-36.695049
 664	6.6400e-001	-196.014404	-36.701217
 665	6.6500e-001	-196.731567	-36.700531
 666	6.6600e-001	-197.967529	-36.732742
 667	6.6700e-001	-198.936462	-36.763581
 668	6.6800e-001	-200.584412	-36.773861
 669	6.6900e-001	-201.835632	-36.790994
 670	6.7000e-001	-202.819824	-36.808127
 671	6.7100e-001	-204.154968	-36.842394
 672	6.7200e-001	-205.223083	-36.849932
 673	6.7300e-001	-206.527710	-36.864324
 674	6.7400e-001	-207.565308	-36.877345
 675	6.7500e-001	-209.014893	-36.891737
 676	6.7600e-001	-209.953308	-36.906814
 677	6.7700e-001	-211.364746	-36.920521
 678	6.7800e-001	-212.623596	-36.961640
 679	6.7900e-001	-213.638306	-36.965067
 680	6.8000e-001	-214.813232	-36.984256
 681	6.8100e-001	-216.079712	-36.999333
 682	6.8200e-001	-217.170715	-37.013040
 683	6.8300e-001	-218.414307	-37.045250
 684	6.8400e-001	-219.474792	-37.055530
 685	6.8500e-001	-220.588684	-37.069922
 686	6.8600e-001	-222.259521	-37.081572
 687	6.8700e-001	-223.136902	-37.109670
 688	6.8800e-001	-224.388123	-37.100076
 689	6.8900e-001	-225.570679	-37.145307
 690	6.9000e-001	-226.745605	-37.151475
 691	6.9100e-001	-228.240967	-37.161070
 692	6.9200e-001	-229.423523	-37.207672
 693	6.9300e-001	-230.369568	-37.204245
 694	6.9400e-001	-231.666565	-37.217952
 695	6.9500e-001	-232.994080	-37.247421
 696	6.9600e-001	-233.848572	-37.254959
 697	6.9700e-001	-235.107422	-37.257701
 698	6.9800e-001	-236.549377	-37.294023
 699	6.9900e-001	-237.579346	-37.313897
 700	7.0000e-001	-238.876343	-37.325548
 701	7.0100e-001	-240.051270	-37.343366
 702	7.0200e-001	-241.355896	-37.359129
 703	7.0300e-001	-242.454529	-37.391339
 704	7.0400e-001	-243.751526	-37.395451
 705	7.0500e-001	-245.101929	-37.404360
 706	7.0600e-001	-246.025085	-37.420808
 707	7.0700e-001	-247.123718	-37.448906
 708	7.0800e-001	-248.481750	-37.461928
 709	7.0900e-001	-249.649048	-37.477005
 710	7.1000e-001	-250.755310	-37.493453
 711	7.1100e-001	-252.151489	-37.490026
 712	7.1200e-001	-253.379822	-37.521551
 713	7.1300e-001	-254.623413	-37.531145
 714	7.1400e-001	-255.691528	-37.557873
 715	7.1500e-001	-257.072449	-37.575006
 716	7.1600e-001	-258.071899	-37.601049
 717	7.1700e-001	-259.429932	-37.607902
 718	7.1800e-001	-260.475159	-37.625720
 719	7.1900e-001	-261.901855	-37.639427
 720	7.2000e-001	-262.619019	-37.621608
 721	7.2100e-001	-264.190674	-37.651077
 722	7.2200e-001	-265.388489	-37.662728
 723	7.2300e-001	-266.387939	-37.689456
 724	7.2400e-001	-267.967224	-37.721666
 725	7.2500e-001	-268.753052	-37.720295
 726	7.2600e-001	-270.164490	-37.710015
 727	7.2700e-001	-271.232605	-37.739484
 728	7.2800e-001	-272.644043	-37.773751
 729	7.2900e-001	-273.612976	-37.785401
 730	7.3000e-001	-274.772644	-37.799108
 731	7.3100e-001	-276.138306	-37.797737
 732	7.3200e-001	-277.252197	-37.825835
 733	7.3300e-001	-278.465271	-37.857360
 734	7.3400e-001	-279.785156	-37.874493
 735	7.3500e-001	-280.868530	-37.860787
 736	7.3600e-001	-282.073975	-37.895053
 737	7.3700e-001	-283.691406	-37.896424
 738	7.3800e-001	-284.103394	-37.915613
 739	7.3900e-001	-285.636902	-37.940285
 740	7.4000e-001	-286.918640	-37.964271
 741	7.4100e-001	-288.131714	-37.963586
 742	7.4200e-001	-289.176941	-37.974551
 743	7.4300e-001	-290.382385	-37.995111
 744	7.4400e-001	-291.702271	-38.021153
 745	7.4500e-001	-293.182373	-38.028691
 746	7.4600e-001	-294.067383	-38.051307
 747	7.4700e-001	-295.295715	-38.058846
 748	7.4800e-001	-297.050476	-38.082147
 749	7.4900e-001	-297.653198	-38.084203
 750	7.5000e-001	-298.606873	-38.107504
 751	7.5100e-001	-300.231934	-38.139029
 752	7.5200e-001	-298.927307	-38.100651
 753	7.5300e-001	-297.775269	-38.111616
 754	7.5400e-001	-296.470642	-38.067755
 755	7.5500e-001	-295.394897	-38.078720
 756	7.5600e-001	-294.029236	-38.065014
 757	7.5700e-001	-293.022156	-38.032803
 758	7.5800e-001	-291.702271	-38.025950
 759	7.5900e-001	-290.603638	-38.010873
 760	7.6000e-001	-289.237976	-37.991684
 761	7.6100e-001	-288.192749	-37.999908
 762	7.6200e-001	-287.071228	-38.006761
 763	7.6300e-001	-285.697937	-37.963586
 764	7.6400e-001	-284.652710	-37.945082
 765	7.6500e-001	-283.309937	-37.932061
 766	7.6600e-001	-282.371521	-37.923837
 767	7.6700e-001	-280.975342	-37.916983
 768	7.6800e-001	-279.693604	-37.875179
 769	7.6900e-001	-278.465271	-37.882032
 770	7.7000e-001	-277.389526	-37.875864
 771	7.7100e-001	-276.123047	-37.851192
 772	7.7200e-001	-275.077820	-37.834744
 773	7.7300e-001	-273.727417	-37.825835
 774	7.7400e-001	-272.438049	-37.825150
 775	7.7500e-001	-271.362305	-37.801164
 776	7.7600e-001	-269.836426	-37.777862
 777	7.7700e-001	-268.936157	-37.768953
 778	7.7800e-001	-267.578125	-37.755247
 779	7.7900e-001	-266.578674	-37.735372
 780	7.8000e-001	-265.243530	-37.727148
 781	7.8100e-001	-263.877869	-37.683288
 782	7.8200e-001	-263.107300	-37.692197
 783	7.8300e-001	-261.581421	-37.686714
 784	7.8400e-001	-260.734558	-37.662043
 785	7.8500e-001	-259.346008	-37.655189
 786	7.8600e-001	-258.087158	-37.645595
 787	7.8700e-001	-256.767273	-37.624350
 788	7.8800e-001	-255.722046	-37.616126
 789	7.8900e-001	-254.463196	-37.600363
 790	7.9000e-001	-253.410339	-37.586657
 791	7.9100e-001	-252.120972	-37.572950
 792	7.9200e-001	-250.946045	-37.558558
 793	7.9300e-001	-249.809265	-37.556502
 794	7.9400e-001	-248.542786	-37.513327
 795	7.9500e-001	-247.184753	-37.510586
 796	7.9600e-001	-246.307373	-37.503047
 797	7.9700e-001	-244.812012	-37.484543
 798	7.9800e-001	-243.736267	-37.472893
 799	7.9900e-001	-242.584229	-37.448221
 800	8.0000e-001	-241.409302	-37.453018
 801	8.0100e-001	-240.051270	-37.442053
 802	8.0200e-001	-239.097595	-37.411899
 803	8.0300e-001	-237.876892	-37.412584
 804	8.0400e-001	-236.602783	-37.387227
 805	8.0500e-001	-235.527039	-37.363241
 806	8.0600e-001	-233.963013	-37.359814
 807	8.0700e-001	-232.727051	-37.341996
 808	8.0800e-001	-231.590271	-37.324863
 809	8.0900e-001	-230.560303	-37.309785
 810	8.1000e-001	-229.225159	-37.296764
 811	8.1100e-001	-227.935791	-37.285799
 812	8.1200e-001	-227.020264	-37.267295
 813	8.1300e-001	-226.028442	-37.250847
 814	8.1400e-001	-224.609375	-37.241253
 815	8.1500e-001	-223.258972	-37.219323
 816	8.1600e-001	-222.122192	-37.204931
 817	8.1700e-001	-220.947266	-37.198077
 818	8.1800e-001	-219.726563	-37.181630
 819	8.1900e-001	-218.544006	-37.181630
 820	8.2000e-001	-217.308044	-37.142566
 821	8.2100e-001	-215.866089	-37.135028
 822	8.2200e-001	-214.828491	-37.133657
 823	8.2300e-001	-213.462830	-37.089796
 824	8.2400e-001	-212.333679	-37.108985
 825	8.2500e-001	-211.250305	-37.077460
 826	8.2600e-001	-209.960938	-37.063068
 827	8.2700e-001	-208.679199	-37.046621
 828	8.2800e-001	-207.756042	-37.028117
 829	8.2900e-001	-206.512451	-37.026746
 830	8.3000e-001	-205.276489	-37.008928
 831	8.3100e-001	-203.842163	-36.985627
 832	8.3200e-001	-202.690125	-36.982885
 833	8.3300e-001	-201.721191	-36.953416
 834	8.3400e-001	-200.355530	-36.943136
 835	8.3500e-001	-199.363708	-36.922577
 836	8.3600e-001	-197.975159	-36.908185
 837	8.3700e-001	-197.105408	-36.902702
 838	8.3800e-001	-195.579529	-36.879401
 839	8.3900e-001	-194.175720	-36.843079
 840	8.4000e-001	-193.229675	-36.839652
 841	8.4100e-001	-192.230225	-36.867065
 842	8.4200e-001	-191.040039	-36.809498
 843	8.4300e-001	-189.682007	-36.808813
 844	8.4400e-001	-188.560486	-36.780714
 845	8.4500e-001	-187.049866	-36.783456
 846	8.4600e-001	-185.981750	-36.727944
 847	8.4700e-001	-185.089111	-36.751245
 848	8.4800e-001	-183.479309	-36.727944
 849	8.4900e-001	-182.472229	-36.699846
 850	8.5000e-001	-181.297302	-36.705329
 851	8.5100e-001	-180.023193	-36.675174
 852	8.5200e-001	-178.833008	-36.658041
 853	8.5300e-001	-177.642822	-36.649817
 854	8.5400e-001	-176.399231	-36.636111
 855	8.5500e-001	-175.178528	-36.605271
 856	8.5600e-001	-174.186707	-36.608698
 857	8.5700e-001	-172.828674	-36.581970
 858	8.5800e-001	-171.508789	-36.564837
 859	8.5900e-001	-170.646667	-36.545648
 860	8.6000e-001	-169.204712	-36.537424
 861	8.6100e-001	-168.022156	-36.529200
 862	8.6200e-001	-166.755676	-36.496304
 863	8.6300e-001	-165.725708	-36.486025
 864	8.6400e-001	-164.405823	-36.466836
 865	8.6500e-001	-163.223267	-36.461353
 866	8.6600e-001	-162.055969	-36.425031
 867	8.6700e-001	-160.995483	-36.425716
 868	8.6800e-001	-159.568787	-36.404471
 869	8.6900e-001	-158.630371	-36.352386
 870	8.7000e-001	-157.302856	-36.363351
 871	8.7100e-001	-155.982971	-36.351016
 872	8.7200e-001	-154.945374	-36.345533
 873	8.7300e-001	-153.526306	-36.310581
 874	8.7400e-001	-152.244568	-36.311267
 875	8.7500e-001	-151.161194	-36.286595
 876	8.7600e-001	-150.238037	-36.259182
 877	8.7700e-001	-148.818970	-36.257811
 878	8.7800e-001	-147.666931	-36.223545
 879	8.7900e-001	-146.568298	-36.216692
 880	8.8000e-001	-145.286560	-36.215321
 881	8.8100e-001	-143.966675	-36.185167
 882	8.8200e-001	-142.715454	-36.170090
 883	8.8300e-001	-141.746521	-36.157069
 884	8.8400e-001	-140.205383	-36.136509
 885	8.8500e-001	-139.480591	-36.125544
 886	8.8600e-001	-138.145447	-36.106354
 887	8.8700e-001	-136.779785	-36.081683
 888	8.8800e-001	-135.795593	-36.052214
 889	8.8900e-001	-134.376526	-36.052214
 890	8.9000e-001	-133.522034	-36.027542
 891	8.9100e-001	-131.835938	-36.020689
 892	8.9200e-001	-130.859375	-35.997388
 893	8.9300e-001	-129.920959	-35.956954
 894	8.9400e-001	-128.494263	-35.946674
 895	8.9500e-001	-127.510071	-35.936394
 896	8.9600e-001	-126.091003	-35.930226
 897	8.9700e-001	-124.488831	-35.939135
 898	8.9800e-001	-123.588562	-35.906925
 899	8.9900e-001	-122.543335	-35.861008
 900	9.0000e-001	-121.353149	-35.842504
 901	9.0100e-001	-120.277405	-35.831539
 902	9.0200e-001	-118.759155	-35.852099
 903	9.0300e-001	-117.668152	-35.802755
 904	9.0400e-001	-116.500854	-35.775342
 905	9.0500e-001	-115.119934	-35.773286
 906	9.0600e-001	-113.815308	-35.751356
 907	9.0700e-001	-112.892151	-35.732852
 908	9.0800e-001	-111.518860	-35.723258
 909	9.0900e-001	-110.427856	-35.679397
 910	9.1000e-001	-109.237671	-35.676656
 911	9.1100e-001	-108.177185	-35.675285
 912	9.1200e-001	-106.987000	-35.633480
 913	9.1300e-001	-105.499268	-35.615662
 914	9.1400e-001	-104.431152	-35.595102
 915	9.1500e-001	-103.126526	-35.570430
 916	9.1600e-001	-101.989746	-35.555353
 917	9.1700e-001	-100.761414	-35.545759
 918	9.1800e-001	-99.868774	-35.537535
 919	9.1900e-001	-98.602295	-35.484765
 920	9.2000e-001	-97.183228	-35.476541
 921	9.2100e-001	-96.092224	-35.457352
 922	9.2200e-001	-95.008850	-35.446386
 923	9.2300e-001	-93.841553	-35.414861
 924	9.2400e-001	-92.407227	-35.394302
 925	9.2500e-001	-91.384888	-35.364833
 926	9.2600e-001	-90.156555	-35.348385
 927	9.2700e-001	-88.630676	-35.340161
 928	9.2800e-001	-87.509155	-35.320287
 929	9.2900e-001	-86.425781	-35.295615
 930	9.3000e-001	-85.327148	-35.268887
 931	9.3100e-001	-84.060669	-35.242845
 932	9.3200e-001	-82.923889	-35.244215
 933	9.3300e-001	-81.710815	-35.200355
 934	9.3400e-001	-80.551147	-35.198984
 935	9.3500e-001	-79.040527	-35.168144
 936	9.3600e-001	-78.224182	-35.146214
 937	9.3700e-001	-76.774597	-35.127710
 938	9.3800e-001	-75.881958	-35.101668
 939	9.3900e-001	-74.707031	-35.042045
 940	9.4000e-001	-73.181152	-35.059178
 941	9.4100e-001	-71.990967	-35.033821
 942	9.4200e-001	-70.762634	-35.022170
 943	9.4300e-001	-69.396973	-35.005722
 944	9.4400e-001	-68.367004	-34.955694
 945	9.4500e-001	-67.390442	-34.941987
 946	9.4600e-001	-65.979004	-34.926910
 947	9.4700e-001	-64.994812	-34.896756
 948	9.4800e-001	-63.636780	-34.858377
 949	9.4900e-001	-62.446594	-34.850839
 950	9.5000e-001	-61.172485	-34.820685
 951	9.5100e-001	-59.951782	-34.798069
 952	9.5200e-001	-58.876038	-34.782992
 953	9.5300e-001	-57.632446	-34.745299
 954	9.5400e-001	-56.427002	-34.737075
 955	9.5500e-001	-55.107117	-34.683620
 956	9.5600e-001	-53.916931	-34.680193
 957	9.5700e-001	-52.963257	-34.652780
 958	9.5800e-001	-51.559448	-34.636332
 959	9.5900e-001	-50.468445	-34.602066
 960	9.6000e-001	-49.217224	-34.576709
 961	9.6100e-001	-48.042297	-34.540387
 962	9.6200e-001	-46.989441	-34.521197
 963	9.6300e-001	-45.715332	-34.503379
 964	9.6400e-001	-44.738770	-34.496526
 965	9.6500e-001	-43.289185	-34.429364
 966	9.6600e-001	-42.343140	-34.416343
 967	9.6700e-001	-40.969849	-34.387559
 968	9.6800e-001	-39.741516	-34.356034
 969	9.6900e-001	-38.230896	-34.329306
 970	9.7000e-001	-37.254333	-34.271739
 971	9.7100e-001	-36.125183	-34.281334
 972	9.7200e-001	-34.759521	-34.242270
 973	9.7300e-001	-33.576965	-34.200465
 974	9.7400e-001	-32.409668	-34.156604
 975	9.7500e-001	-31.379700	-34.136730
 976	9.7600e-001	-30.044556	-34.099723
 977	9.7700e-001	-28.915405	-34.044896
 978	9.7800e-001	-27.717590	-34.022281
 979	9.7900e-001	-26.397705	-34.003777
 980	9.8000e-001	-24.856567	-33.946895
 981	9.8100e-001	-23.735046	-33.918111
 982	9.8200e-001	-22.827148	-33.876307
 983	9.8300e-001	-21.575928	-33.826963
 984	9.8400e-001	-20.385742	-33.796809
 985	9.8500e-001	-19.355774	-33.755689
 986	9.8600e-001	-17.883301	-33.683045
 987	9.8700e-001	-16.815186	-33.661114
 988	9.8800e-001	-15.525818	-33.615198
 989	9.8900e-001	-14.350891	-33.565169
 990	9.9000e-001	-13.191223	-33.511714
 991	9.9100e-001	-12.115479	-33.446608
 992	9.9200e-001	-10.841370	-33.406173
 993	9.9300e-001	-9.788513	-33.347921
 994	9.9400e-001	-8.537292	-33.323249
 995	9.9500e-001	-7.209778	-33.229360
 996	9.9600e-001	-6.172180	-33.151918
 997	9.9700e-001	-5.111694	-33.090239
 998	9.9800e-001	-3.425598	-33.020335
 999	9.9900e-001	-2.479553	-32.975789
1000	1.0000e+000	-1.319885	-32.892180
1001	1.0010e+000	0.129700	-32.774304
1002	1.0020e+000	0.991821	-32.686582
1003	1.0030e+000	2.120972	-32.585154
1004	1.0040e+000	3.562927	-32.490579
1005	1.0050e+000	4.661560	-32.417249
1006	1.0060e+000	5.821228	-32.302115
1007	1.0070e+000	6.942749	-32.183553
1008	1.0080e+000	8.186340	-32.106797
1009	1.0090e+000	9.643555	-31.962193
1010	1.0100e+000	10.734558	-31.856653
1011	1.0110e+000	12.130737	-31.757281
1012	1.0120e+000	12.947083	-31.615419
1013	1.0130e+000	14.289856	-31.513991
1014	1.0140e+000	15.350342	-31.407765
1015	1.0150e+000	16.830444	-31.280295
1016	1.0160e+000	17.761230	-31.154195
1017	1.0170e+000	18.936157	-30.995200
1018	1.0180e+000	20.103455	-30.865673
1019	1.0190e+000	21.507263	-30.721070
1020	1.0200e+000	22.834778	-30.562760
1021	1.0210e+000	23.788452	-30.421583
1022	1.0220e+000	24.856567	-30.218726
1023	1.0230e+000	26.008606	-30.050822
1024	1.0240e+000	27.519226	-29.826720
1025	1.0250e+000	28.671265	-29.616326
1026	1.0260e+000	29.884338	-29.366182
1027	1.0270e+000	31.021118	-29.114668
1028	1.0280e+000	32.485962	-28.791879
1029	1.0290e+000	33.454895	-28.469091
1030	1.0300e+000	34.584045	-28.092848
1031	1.0310e+000	35.804749	-27.698786
1032	1.0320e+000	36.994934	-27.244415
1033	1.0330e+000	38.414001	-26.768800
1034	1.0340e+000	39.474487	-26.239729
1035	1.0350e+000	40.611267	-25.661314
1036	1.0360e+000	41.641235	-25.007514
1037	1.0370e+000	43.060303	-24.340693
1038	1.0380e+000	44.311523	-23.592318
1039	1.0390e+000	45.585632	-22.786375
1040	1.0400e+000	46.646118	-21.899565
1041	1.0410e+000	47.904968	-20.953816
1042	1.0420e+000	49.224854	-19.945017
1043	1.0430e+000	50.331116	-18.868371
1044	1.0440e+000	51.429749	-17.720452
1045	1.0450e+000	52.558899	-16.531413
1046	1.0460e+000	53.657532	-15.211477
1047	1.0470e+000	54.992676	-13.853848
1048	1.0480e+000	56.259155	-12.428371
1049	1.0490e+000	57.319641	-10.956978
1050	1.0500e+000	58.509827	-9.442410
1051	1.0510e+000	59.730530	-7.862050
1052	1.0520e+000	61.157227	-6.243997
1053	1.0530e+000	62.072754	-4.625945
1054	1.0540e+000	63.621521	-2.974311
1055	1.0550e+000	64.773560	-1.311712
1056	1.0560e+000	65.673828	0.323473
1057	1.0570e+000	66.848755	1.939470
1058	1.0580e+000	68.260193	3.569173
1059	1.0590e+000	69.076538	5.128288
1060	1.0600e+000	70.716858	6.633262
1061	1.0610e+000	72.021484	8.145089
1062	1.0620e+000	72.746277	9.581531
1063	1.0630e+000	74.302673	10.978909
1064	1.0640e+000	75.126648	12.293362
1065	1.0650e+000	76.423645	13.561899
1066	1.0660e+000	77.804565	14.752309
1067	1.0670e+000	79.139709	15.897487
1068	1.0680e+000	80.070496	16.990581
1069	1.0690e+000	81.542969	18.017198
1070	1.0700e+000	82.473755	18.998583
1071	1.0710e+000	83.862305	19.913492
1072	1.0720e+000	85.182190	20.796191
1073	1.0730e+000	86.166382	21.652162
1074	1.0740e+000	87.478638	22.446454
1075	1.0750e+000	88.851929	23.192773
1076	1.0760e+000	89.981079	23.921274
1077	1.0770e+000	90.950012	24.601802
1078	1.0780e+000	92.285156	25.267252
1079	1.0790e+000	93.505859	25.901178
1080	1.0800e+000	94.505310	26.494670
1081	1.0810e+000	96.023560	27.055951
1082	1.0820e+000	97.175598	27.591875
1083	1.0830e+000	98.434448	28.096960
1084	1.0840e+000	99.617004	28.587652
1085	1.0850e+000	100.700378	29.050247
1086	1.0860e+000	101.699829	29.464183
1087	1.0870e+000	103.088379	29.847965
1088	1.0880e+000	104.301453	30.212558
1089	1.0890e+000	105.407715	30.553850
1090	1.0900e+000	106.613159	30.875268
1091	1.0910e+000	107.910156	31.171328
1092	1.0920e+000	108.695984	31.435178
1093	1.0930e+000	110.404968	31.705197
1094	1.0940e+000	111.518860	31.958767
1095	1.0950e+000	112.579346	32.176015
1096	1.0960e+000	114.074707	32.369277
1097	1.0970e+000	115.150452	32.582413
1098	1.0980e+000	116.264343	32.767450
1099	1.0990e+000	117.607117	32.939467
1100	1.1000e+000	119.140625	33.120393
1101	1.1010e+000	119.728088	33.262941
1102	1.1020e+000	120.994568	33.386984
1103	1.1030e+000	122.253418	33.541183
1104	1.1040e+000	123.146057	33.657002
1105	1.1050e+000	124.961853	33.772137
1106	1.1060e+000	126.052856	33.898922
1107	1.1070e+000	126.800537	34.005833
1108	1.1080e+000	128.417969	34.096981
1109	1.1090e+000	129.638672	34.203207
1110	1.1100e+000	130.638123	34.286131
1111	1.1110e+000	131.950378	34.388244
1112	1.1120e+000	133.155823	34.441014
1113	1.1130e+000	134.284973	34.529421
1114	1.1140e+000	135.757446	34.602066
1115	1.1150e+000	136.459351	34.639759
1116	1.1160e+000	137.947083	34.743243
1117	1.1170e+000	139.099121	34.802866
1118	1.1180e+000	140.419006	34.849468
1119	1.1190e+000	141.639709	34.924169
1120	1.1200e+000	142.784119	34.975568
1121	1.1210e+000	143.913269	35.040674
1122	1.1220e+000	145.164490	35.082479
1123	1.1230e+000	146.232605	35.142787
1124	1.1240e+000	147.651672	35.199669
1125	1.1250e+000	148.872375	35.244215
1126	1.1260e+000	149.818420	35.298356
1127	1.1270e+000	151.107788	35.338790
1128	1.1280e+000	152.366638	35.381281
1129	1.1290e+000	153.678894	35.455296
1130	1.1300e+000	154.701233	35.474485
1131	1.1310e+000	156.082153	35.503954
1132	1.1320e+000	157.135010	35.540276
1133	1.1330e+000	158.264160	35.572486
1134	1.1340e+000	159.507751	35.634165
1135	1.1350e+000	160.713196	35.660893
1136	1.1360e+000	161.994934	35.687621
1137	1.1370e+000	163.139343	35.715034
1138	1.1380e+000	164.192200	35.755468
1139	1.1390e+000	165.473938	35.786993
1140	1.1400e+000	166.770935	35.824001
1141	1.1410e+000	167.854309	35.874029
1142	1.1420e+000	169.090271	35.856211
1143	1.1430e+000	170.196533	35.922687
1144	1.1440e+000	171.630859	35.948730
1145	1.1450e+000	172.691345	35.991220
1146	1.1460e+000	174.072266	36.024801
1147	1.1470e+000	175.132751	36.027542
1148	1.1480e+000	176.322937	36.083053
1149	1.1490e+000	177.566528	36.107725
1150	1.1500e+000	178.619385	36.128285
1151	1.1510e+000	180.030823	36.161866
1152	1.1520e+000	180.862427	36.194076
1153	1.1530e+000	182.174683	36.202985
1154	1.1540e+000	183.654785	36.234510
1155	1.1550e+000	184.913635	36.259867
1156	1.1560e+000	186.126709	36.294134
1157	1.1570e+000	186.973572	36.340050
1158	1.1580e+000	188.171387	36.343477
1159	1.1590e+000	189.666748	36.362666
1160	1.1600e+000	190.681458	36.385282
1161	1.1610e+000	192.123413	36.431884
1162	1.1620e+000	193.275452	36.455185
1163	1.1630e+000	194.221497	36.459982
1164	1.1640e+000	195.884705	36.496304
1165	1.1650e+000	196.647644	36.525088
1166	1.1660e+000	198.280334	36.535368
1167	1.1670e+000	199.172974	36.553872
1168	1.1680e+000	200.569153	36.584026
1169	1.1690e+000	201.881409	36.601159
1170	1.1700e+000	202.560425	36.628572
1171	1.1710e+000	204.048157	36.654615
1172	1.1720e+000	205.139160	36.677916
1173	1.1730e+000	206.321716	36.699846
1174	1.1740e+000	207.557678	36.700531
1175	1.1750e+000	208.450317	36.766323
1176	1.1760e+000	210.105896	36.759469
1177	1.1770e+000	211.112976	36.795792
1178	1.1780e+000	212.402344	36.815666
1179	1.1790e+000	213.523865	36.806757
1180	1.1800e+000	214.813232	36.867751
1181	1.1810e+000	216.186523	36.893793
1182	1.1820e+000	216.995239	36.896534
1183	1.1830e+000	218.368530	36.906129
1184	1.1840e+000	219.665527	36.939710
1185	1.1850e+000	220.817566	36.947248
1186	1.1860e+000	222.145081	36.969864
1187	1.1870e+000	223.060608	36.999333
1188	1.1880e+000	224.502563	37.049362
1189	1.1890e+000	225.418091	37.035655
1190	1.1900e+000	226.737976	37.062383
1191	1.1910e+000	227.653503	37.082943
1192	1.1920e+000	229.347229	37.087740
1193	1.1930e+000	230.293274	37.122006
1194	1.1940e+000	231.422424	37.143251
1195	1.1950e+000	232.788086	37.161755
1196	1.1960e+000	234.359741	37.166552
1197	1.1970e+000	234.962463	37.184371
1198	1.1980e+000	236.732483	37.208357
1199	1.1990e+000	237.403870	37.230973
1200	1.2000e+000	238.952637	37.265239
1201	1.2010e+000	240.036011	37.250847
1202	1.2020e+000	241.439819	37.293338
1203	1.2030e+000	242.416382	37.344737
1204	1.2040e+000	243.591309	37.324177
1205	1.2050e+000	245.079041	37.339254
1206	1.2060e+000	245.880127	37.354332
1207	1.2070e+000	246.986389	37.372150
1208	1.2080e+000	248.435974	37.405046
1209	1.2090e+000	249.191284	37.428347
1210	1.2100e+000	250.923157	37.442053
1211	1.2110e+000	251.861572	37.451648
1212	1.2120e+000	253.074646	37.458501
1213	1.2130e+000	254.524231	37.508530
1214	1.2140e+000	255.599976	37.507159
1215	1.2150e+000	256.736755	37.521551
1216	1.2160e+000	257.995605	37.539369
1217	1.2170e+000	259.353638	37.561985
1218	1.2180e+000	260.261536	37.586657
1219	1.2190e+000	261.497498	37.598307
1220	1.2200e+000	262.954712	37.612699
1221	1.2210e+000	263.992310	37.615440
1222	1.2220e+000	265.197754	37.664784
1223	1.2230e+000	266.395569	37.669581
1224	1.2240e+000	267.662048	37.679861
1225	1.2250e+000	268.814087	37.717554
1226	1.2260e+000	269.882202	37.710701
1227	1.2270e+000	271.034241	37.734687
1228	1.2280e+000	272.514343	37.751135
1229	1.2290e+000	273.490906	37.772380
1230	1.2300e+000	274.482727	37.788828
1231	1.2310e+000	275.924683	37.803905
1232	1.2320e+000	277.252197	37.799108
1233	1.2330e+000	278.373718	37.829262
1234	1.2340e+000	279.716492	37.862157
1235	1.2350e+000	280.937195	37.875864
1236	1.2360e+000	281.936646	37.890256
1237	1.2370e+000	283.317566	37.906704
1238	1.2380e+000	284.400940	37.914928
1239	1.2390e+000	285.720825	37.934802
1240	1.2400e+000	286.773682	37.934802
1241	1.2410e+000	287.956238	37.981404
1242	1.2420e+000	289.138794	37.967012
1243	1.2430e+000	290.397644	37.999223
1244	1.2440e+000	291.633606	38.030062
1245	1.2450e+000	292.884827	38.030747
1246	1.2460e+000	293.983459	38.043083
1247	1.2470e+000	295.310974	38.069811
1248	1.2480e+000	296.394348	38.078035
1249	1.2490e+000	297.615051	38.103392
1250	1.2500e+000	299.079895	38.124637
1251	1.2510e+000	300.018311	38.134232
1252	1.2520e+000	298.591614	38.106133
1253	1.2530e+000	297.706604	38.092427
1254	1.2540e+000	296.043396	38.097909
1255	1.2550e+000	295.188904	38.075979
1256	1.2560e+000	294.128418	38.060902
1257	1.2570e+000	292.694092	38.041713
1258	1.2580e+000	291.305542	38.027321
1259	1.2590e+000	290.390015	38.014300
1260	1.2600e+000	289.237976	38.002649
1261	1.2610e+000	287.887573	37.999223
1262	1.2620e+000	286.697388	37.995111
1263	1.2630e+000	285.491943	37.970439
1264	1.2640e+000	284.332275	37.958103
1265	1.2650e+000	283.126831	37.949194
1266	1.2660e+000	282.051086	37.934802
1267	1.2670e+000	280.952454	37.908760
1268	1.2680e+000	280.059814	37.912186
1269	1.2690e+000	278.480530	37.894368
1270	1.2700e+000	277.267456	37.886829
1271	1.2710e+000	276.176453	37.861472
1272	1.2720e+000	274.559021	37.848451
1273	1.2730e+000	273.536682	37.830633
1274	1.2740e+000	272.193909	37.821038
1275	1.2750e+000	271.148682	37.799793
1276	1.2760e+000	269.989014	37.788142
1277	1.2770e+000	268.669128	37.781974
1278	1.2780e+000	267.517090	37.761415
1279	1.2790e+000	266.334534	37.755247
1280	1.2800e+000	265.258789	37.742226
1281	1.2810e+000	263.847351	37.726463
1282	1.2820e+000	262.702942	37.714813
1283	1.2830e+000	261.489868	37.703162
1284	1.2840e+000	260.459900	37.679861
1285	1.2850e+000	259.231567	37.671637
1286	1.2860e+000	258.193970	37.659301
1287	1.2870e+000	256.706238	37.650392
1288	1.2880e+000	255.241394	37.618867
1289	1.2890e+000	254.486084	37.601049
1290	1.2900e+000	253.097534	37.596251
1291	1.2910e+000	252.120972	37.579118
1292	1.2920e+000	250.877380	37.570894
1293	1.2930e+000	249.694824	37.553076
1294	1.2940e+000	248.489380	37.540740
1295	1.2950e+000	247.573853	37.509215
1296	1.2960e+000	246.047974	37.525663
1297	1.2970e+000	244.773865	37.481802
1298	1.2980e+000	243.705750	37.468781
1299	1.2990e+000	242.057800	37.458501
1300	1.3000e+000	241.020203	37.439997
1301	1.3010e+000	239.845276	37.422179
1302	1.3020e+000	238.967896	37.417381
1303	1.3030e+000	237.678528	37.405731
1304	1.3040e+000	236.404419	37.385857
1305	1.3050e+000	235.275269	37.357758
1306	1.3060e+000	234.046936	37.344052
1307	1.3070e+000	232.780457	37.343366
1308	1.3080e+000	231.697083	37.363241
1309	1.3090e+000	230.415344	37.302932
1310	1.3100e+000	229.217529	37.294023
1311	1.3110e+000	228.073120	37.280316
1312	1.3120e+000	226.936340	37.267295
1313	1.3130e+000	225.738525	37.246050
1314	1.3140e+000	224.617004	37.217952
1315	1.3150e+000	223.449707	37.226176
1316	1.3160e+000	222.076416	37.204245
1317	1.3170e+000	220.794678	37.174776
1318	1.3180e+000	219.718933	37.174091
1319	1.3190e+000	218.345642	37.156958
1320	1.3200e+000	217.109680	37.149419
1321	1.3210e+000	216.239929	37.120636
1322	1.3220e+000	214.958191	37.111726
1323	1.3230e+000	213.432312	37.128174
1324	1.3240e+000	212.646484	37.089796
1325	1.3250e+000	211.181641	37.061698
1326	1.3260e+000	209.861755	37.047306
1327	1.3270e+000	208.885193	37.030173
1328	1.3280e+000	207.756042	37.021264
1329	1.3290e+000	206.504822	36.988368
1330	1.3300e+000	205.444336	37.011669
1331	1.3310e+000	204.017639	36.969179
1332	1.3320e+000	202.323914	36.955472
1333	1.3330e+000	201.698303	36.952046
1334	1.3340e+000	200.462341	36.926003
1335	1.3350e+000	199.066162	36.904073
1336	1.3360e+000	197.959900	36.893793
1337	1.3370e+000	196.800232	36.880772
1338	1.3380e+000	195.663452	36.860212
1339	1.3390e+000	194.427490	36.835540
1340	1.3400e+000	193.145752	36.822519
1341	1.3410e+000	191.940308	36.806757
1342	1.3420e+000	190.681458	36.780029
1343	1.3430e+000	189.720154	36.767008
1344	1.3440e+000	188.087463	36.747133
1345	1.3450e+000	187.591553	36.767693
1346	1.3460e+000	186.065674	36.719035
1347	1.3470e+000	184.631348	36.709441
1348	1.3480e+000	183.563232	36.705329
1349	1.3490e+000	182.449341	36.670377
1350	1.3500e+000	181.114197	36.640223
1351	1.3510e+000	179.885864	36.631314
1352	1.3520e+000	178.764343	36.616236
1353	1.3530e+000	177.619934	36.621719
1354	1.3540e+000	176.330566	36.594306
1355	1.3550e+000	175.140381	36.577858
1356	1.3560e+000	174.087524	36.547704
1357	1.3570e+000	172.744751	36.547704
1358	1.3580e+000	171.569824	36.520291
1359	1.3590e+000	170.372009	36.499731
1360	1.3600e+000	169.410706	36.468206
1361	1.3610e+000	168.006897	36.457241
1362	1.3620e+000	166.969299	36.449702
1363	1.3630e+000	165.435791	36.441478
1364	1.3640e+000	164.299011	36.407212
1365	1.3650e+000	163.223267	36.404471
1366	1.3660e+000	162.063599	36.388708
1367	1.3670e+000	160.652161	36.365407
1368	1.3680e+000	159.492493	36.346218
1369	1.3690e+000	158.416748	36.327715
1370	1.3700e+000	156.967163	36.324973
1371	1.3710e+000	155.952454	36.288651
1372	1.3720e+000	154.953003	36.267406
1373	1.3730e+000	153.610229	36.275630
1374	1.3740e+000	152.214050	36.235196
1375	1.3750e+000	151.123047	36.234510
1376	1.3760e+000	150.047302	36.196132
1377	1.3770e+000	148.490906	36.180370
1378	1.3780e+000	147.499084	36.163922
1379	1.3790e+000	146.118164	36.157069
1380	1.3800e+000	145.095825	36.125544
1381	1.3810e+000	143.692017	36.111152
1382	1.3820e+000	142.646790	36.077571
1383	1.3830e+000	141.487122	36.073459
1384	1.3840e+000	140.289307	36.041934
1385	1.3850e+000	138.893127	36.024801
1386	1.3860e+000	138.107300	36.008353
1387	1.3870e+000	136.779785	35.983681
1388	1.3880e+000	135.574341	35.959695
1389	1.3890e+000	134.475708	35.942562
1390	1.3900e+000	133.247375	35.933653
1391	1.3910e+000	132.141113	35.911037
1392	1.3920e+000	130.653381	35.891848
1393	1.3930e+000	129.768372	35.863749
1394	1.3940e+000	128.501892	35.863749
1395	1.3950e+000	127.105713	35.843190
1396	1.3960e+000	125.892639	35.824686
1397	1.3970e+000	124.877930	35.771231
1398	1.3980e+000	123.695374	35.780140
1399	1.3990e+000	122.398376	35.766433
1400	1.4000e+000	121.284485	35.736279
1401	1.4010e+000	119.941711	35.722572
1402	1.4020e+000	118.446350	35.705439
1403	1.4030e+000	117.698669	35.680768
1404	1.4040e+000	116.264343	35.651984
1405	1.4050e+000	115.165710	35.624571
1406	1.4060e+000	114.135742	35.617718
1407	1.4070e+000	112.876892	35.608123
1408	1.4080e+000	111.724854	35.578654
1409	1.4090e+000	110.145569	35.551926
1410	1.4100e+000	109.306335	35.511492
1411	1.4110e+000	108.139038	35.516290
1412	1.4120e+000	106.895447	35.484079
1413	1.4130e+000	105.751038	35.462834
1414	1.4140e+000	104.537964	35.437477
1415	1.4150e+000	103.073120	35.434051
1416	1.4160e+000	102.073669	35.390190
1417	1.4170e+000	100.708008	35.362091
1418	1.4180e+000	99.456787	35.347014
1419	1.4190e+000	98.625183	35.329196
1420	1.4200e+000	97.396851	35.302468
1421	1.4210e+000	95.840454	35.284650
1422	1.4220e+000	94.963074	35.266831
1423	1.4230e+000	93.582153	35.220229
1424	1.4240e+000	92.399597	35.205152
1425	1.4250e+000	91.217041	35.148955
1426	1.4260e+000	89.988708	35.145529
1427	1.4270e+000	88.623047	35.145529
1428	1.4280e+000	87.661743	35.119486
1429	1.4290e+000	86.395264	35.068087
1430	1.4300e+000	85.350037	35.030394
1431	1.4310e+000	83.915710	35.029709
1432	1.4320e+000	82.702637	34.992016
1433	1.4330e+000	81.504822	34.972827
1434	1.4340e+000	80.131531	34.901553
1435	1.4350e+000	78.918457	34.920057
1436	1.4360e+000	77.857971	34.898126
1437	1.4370e+000	76.713562	34.861119
1438	1.4380e+000	75.630188	34.822055
1439	1.4390e+000	74.554443	34.807663
1440	1.4400e+000	73.348999	34.780250
1441	1.4410e+000	71.838379	34.754208
1442	1.4420e+000	70.625305	34.717200
1443	1.4430e+000	69.641113	34.658262
1444	1.4440e+000	68.359375	34.634961
1445	1.4450e+000	67.298889	34.621255
1446	1.4460e+000	66.017151	34.591786
1447	1.4470e+000	64.773560	34.558205
1448	1.4480e+000	63.438416	34.517086
1449	1.4490e+000	62.324524	34.490358
1450	1.4500e+000	60.829163	34.436217
1451	1.4510e+000	59.951782	34.424567
1452	1.4520e+000	58.654785	34.388930
1453	1.4530e+000	57.167053	34.362202
1454	1.4540e+000	56.381226	34.306005
1455	1.4550e+000	55.099487	34.253235
1456	1.4560e+000	53.947449	34.212116
1457	1.4570e+000	52.680969	34.186073
1458	1.4580e+000	51.391602	34.141527
1459	1.4590e+000	50.247192	34.105205
1460	1.4600e+000	49.247742	34.049008
1461	1.4610e+000	47.958374	34.016798
1462	1.4620e+000	46.653748	33.960602
1463	1.4630e+000	45.379639	33.921538
1464	1.4640e+000	44.075012	33.866027
1465	1.4650e+000	43.167114	33.793382
1466	1.4660e+000	42.045593	33.783788
1467	1.4670e+000	40.496826	33.715940
1468	1.4680e+000	39.489746	33.696066
1469	1.4690e+000	38.146973	33.605603
1470	1.4700e+000	37.086487	33.532959
1471	1.4710e+000	35.728455	33.495951
1472	1.4720e+000	34.820557	33.426733
1473	1.4730e+000	33.164978	33.356830
1474	1.4740e+000	32.325745	33.282815
1475	1.4750e+000	30.960083	33.210170
1476	1.4760e+000	29.891968	33.138211
1477	1.4770e+000	28.755188	33.069679
1478	1.4780e+000	27.458191	32.968251
1479	1.4790e+000	26.252747	32.872305
1480	1.4800e+000	25.283813	32.808570
1481	1.4810e+000	23.513794	32.666708
1482	1.4820e+000	22.636414	32.588581
1483	1.4830e+000	21.537781	32.472761
1484	1.4840e+000	20.278931	32.367906
1485	1.4850e+000	19.226074	32.251401
1486	1.4860e+000	18.173218	32.110224
1487	1.4870e+000	16.380310	31.962193
1488	1.4880e+000	15.502930	31.825814
1489	1.4890e+000	14.152527	31.653112
1490	1.4900e+000	13.244629	31.503711
1491	1.4910e+000	11.856079	31.325526
1492	1.4920e+000	10.765076	31.102110
1493	1.4930e+000	9.475708	30.900625
1494	1.4940e+000	8.422852	30.682691
1495	1.4950e+000	7.308960	30.470241
1496	1.4960e+000	6.050110	30.187887
1497	1.4970e+000	4.669189	29.926778
1498	1.4980e+000	3.700256	29.639627
1499	1.4990e+000	2.067566	29.305873
1500	1.5000e+000	1.144409	29.019407
1501	1.5010e+000	-0.015259	28.650702
1502	1.5020e+000	-1.304626	28.288851
1503	1.5030e+000	-2.212524	27.899586
1504	1.5040e+000	-3.524780	27.487706
1505	1.5050e+000	-4.669189	27.047042
1506	1.5060e+000	-5.645752	26.535789
1507	1.5070e+000	-7.049561	26.031390
1508	1.5080e+000	-8.369446	25.468052
1509	1.5090e+000	-9.704590	24.925960
1510	1.5100e+000	-10.665894	24.279013
1511	1.5110e+000	-11.970520	23.602597
1512	1.5120e+000	-13.092041	22.863132
1513	1.5130e+000	-14.434814	22.142855
1514	1.5140e+000	-15.655518	21.312241
1515	1.5150e+000	-16.769409	20.458326
1516	1.5160e+000	-17.913818	19.557809
1517	1.5170e+000	-18.905640	18.606577
1518	1.5180e+000	-20.324707	17.557345
1519	1.5190e+000	-21.316528	16.510853
1520	1.5200e+000	-22.682190	15.397885
1521	1.5210e+000	-23.605347	14.205419
1522	1.5220e+000	-25.100708	12.971149
1523	1.5230e+000	-26.466370	11.670402
1524	1.5240e+000	-27.404785	10.329220
1525	1.5250e+000	-28.556824	8.913339
1526	1.5260e+000	-29.693604	7.465247
1527	1.5270e+000	-30.982971	5.942454
1528	1.5280e+000	-32.257080	4.392934
1529	1.5290e+000	-33.370972	2.831763
1530	1.5300e+000	-34.286499	1.198634
1531	1.5310e+000	-35.926819	-0.399545
1532	1.5320e+000	-37.109375	-2.046381
1533	1.5330e+000	-38.131714	-3.665804
1534	1.5340e+000	-39.543152	-5.338683
1535	1.5350e+000	-40.664673	-6.967015
1536	1.5360e+000	-41.770935	-8.554228
1537	1.5370e+000	-43.121338	-10.173652
1538	1.5380e+000	-44.258118	-11.704668
1539	1.5390e+000	-45.524597	-13.219922
1540	1.5400e+000	-46.676636	-14.700224
1541	1.5410e+000	-47.660828	-16.145575
1542	1.5420e+000	-48.980713	-17.538841
1543	1.5430e+000	-50.292969	-18.888931
1544	1.5440e+000	-51.300049	-20.149244
1545	1.5450e+000	-52.879333	-21.389683
1546	1.5460e+000	-53.703308	-22.555421
1547	1.5470e+000	-54.931641	-23.629325
1548	1.5480e+000	-56.427002	-24.683355
1549	1.5490e+000	-57.403564	-25.675021
1550	1.5500e+000	-58.479309	-26.613231
1551	1.5510e+000	-59.715271	-27.532252
1552	1.5520e+000	-61.065674	-28.337509
1553	1.5530e+000	-62.583923	-29.105758
1554	1.5540e+000	-63.468933	-29.812328
1555	1.5550e+000	-64.758301	-30.462017
1556	1.5560e+000	-66.040039	-31.067159
1557	1.5570e+000	-67.108154	-31.560593
1558	1.5580e+000	-68.466187	-32.001257
1559	1.5590e+000	-69.511414	-32.348717
1560	1.5600e+000	-70.747375	-32.649575
1561	1.5610e+000	-71.929932	-32.894921
1562	1.5620e+000	-73.402405	-33.081329
1563	1.5630e+000	-74.485779	-33.254717
1564	1.5640e+000	-75.584412	-33.400691
1565	1.5650e+000	-76.690674	-33.498007
1566	1.5660e+000	-77.926636	-33.617254
1567	1.5670e+000	-79.040527	-33.693325
1568	1.5680e+000	-80.688477	-33.781046
1569	1.5690e+000	-81.840515	-33.883160
1570	1.5700e+000	-82.901001	-33.936615
1571	1.5710e+000	-84.037781	-34.016798
1572	1.5720e+000	-84.869385	-34.083275
1573	1.5730e+000	-86.448669	-34.101778
1574	1.5740e+000	-87.638855	-34.191556
1575	1.5750e+000	-88.745117	-34.263515
1576	1.5760e+000	-89.988708	-34.300523
1577	1.5770e+000	-91.369629	-34.382076
1578	1.5780e+000	-92.300415	-34.432105
1579	1.5790e+000	-93.627930	-34.465001
1580	1.5800e+000	-94.703674	-34.505435
1581	1.5810e+000	-95.954895	-34.565058
1582	1.5820e+000	-97.869873	-34.596583
1583	1.5830e+000	-98.686218	-34.655521
1584	1.5840e+000	-99.525452	-34.699382
1585	1.5850e+000	-100.898743	-34.718571
1586	1.5860e+000	-102.066040	-34.761061
1587	1.5870e+000	-103.302002	-34.823426
1588	1.5880e+000	-104.629517	-34.861804
1589	1.5890e+000	-105.720520	-34.894700
1590	1.5900e+000	-106.872559	-34.920057
1591	1.5910e+000	-108.177185	-34.970085
1592	1.5920e+000	-109.130859	-35.009149
1593	1.5930e+000	-110.473633	-35.025597
1594	1.5940e+000	-111.770630	-35.068087
1595	1.5950e+000	-112.701416	-35.076311
1596	1.5960e+000	-114.097595	-35.121542
1597	1.5970e+000	-115.303040	-35.169515
1598	1.5980e+000	-116.500854	-35.188704
1599	1.5990e+000	-117.614746	-35.227082
1600	1.6000e+000	-118.904114	-35.275740
1601	1.6010e+000	-120.071411	-35.277796
1602	1.6020e+000	-121.330261	-35.299727
1603	1.6030e+000	-122.467041	-35.351812
1604	1.6040e+000	-123.657227	-35.379910
1605	1.6050e+000	-124.702454	-35.397728
1606	1.6060e+000	-125.869751	-35.439533
1607	1.6070e+000	-127.098083	-35.450498
1608	1.6080e+000	-128.578186	-35.499842
1609	1.6090e+000	-129.730225	-35.506695
1610	1.6100e+000	-131.080627	-35.543017
1611	1.6110e+000	-132.125854	-35.556724
1612	1.6120e+000	-133.193970	-35.581395
1613	1.6130e+000	-134.323120	-35.620459
1614	1.6140e+000	-135.414124	-35.641019
1615	1.6150e+000	-136.985779	-35.661578
1616	1.6160e+000	-137.817383	-35.694474
1617	1.6170e+000	-139.350891	-35.715719
1618	1.6180e+000	-140.541077	-35.719831
1619	1.6190e+000	-142.059326	-35.773286
1620	1.6200e+000	-142.700195	-35.793161
1621	1.6210e+000	-144.172668	-35.813035
1622	1.6220e+000	-145.324707	-35.827427
1623	1.6230e+000	-146.484375	-35.847302
1624	1.6240e+000	-147.773743	-35.892533
1625	1.6250e+000	-149.330139	-35.900757
1626	1.6260e+000	-150.123596	-35.919946
1627	1.6270e+000	-151.191711	-35.960380
1628	1.6280e+000	-152.748108	-35.965178
1629	1.6290e+000	-153.724670	-36.000814
1630	1.6300e+000	-154.563904	-36.039193
1631	1.6310e+000	-155.967712	-36.037822
1632	1.6320e+000	-157.081604	-36.067291
1633	1.6330e+000	-158.332825	-36.085109
1634	1.6340e+000	-159.812927	-36.115264
1635	1.6350e+000	-160.728455	-36.130341
1636	1.6360e+000	-162.124634	-36.150901
1637	1.6370e+000	-163.452148	-36.167348
1638	1.6380e+000	-164.283752	-36.201615
1639	1.6390e+000	-165.740967	-36.224916
1640	1.6400e+000	-166.984558	-36.237937
1641	1.6410e+000	-168.136597	-36.253699
1642	1.6420e+000	-169.319153	-36.276315
1643	1.6430e+000	-170.455933	-36.305784
1644	1.6440e+000	-171.745300	-36.313323
1645	1.6450e+000	-173.057556	-36.325659
1646	1.6460e+000	-173.881531	-36.369519
1647	1.6470e+000	-174.903870	-36.381855
1648	1.6480e+000	-176.506042	-36.420233
1649	1.6490e+000	-177.894592	-36.421604
1650	1.6500e+000	-178.726196	-36.438737
1651	1.6510e+000	-180.061340	-36.459982
1652	1.6520e+000	-181.243896	-36.472318
1653	1.6530e+000	-182.601929	-36.485339
1654	1.6540e+000	-183.746338	-36.520291
1655	1.6550e+000	-184.921265	-36.536739
1656	1.6560e+000	-186.126709	-36.539480
1657	1.6570e+000	-187.393188	-36.574432
1658	1.6580e+000	-188.453674	-36.597047
1659	1.6590e+000	-189.491272	-36.612124
1660	1.6600e+000	-190.864563	-36.640223
1661	1.6610e+000	-192.276001	-36.655985
1662	1.6620e+000	-193.473816	-36.677916
1663	1.6630e+000	-194.496155	-36.697105
1664	1.6640e+000	-195.701599	-36.717665
1665	1.6650e+000	-196.769714	-36.702587
1666	1.6660e+000	-198.081970	-36.745078
1667	1.6670e+000	-199.218750	-36.769064
1668	1.6680e+000	-200.309753	-36.790994
1669	1.6690e+000	-201.728821	-36.801959
1670	1.6700e+000	-202.598572	-36.829373
1671	1.6710e+000	-204.093933	-36.837596
1672	1.6720e+000	-205.413818	-36.858156
1673	1.6730e+000	-206.253052	-36.866380
1674	1.6740e+000	-207.740784	-36.893793
1675	1.6750e+000	-208.984375	-36.906814
1676	1.6760e+000	-210.197449	-36.928059
1677	1.6770e+000	-211.288452	-36.957528
1678	1.6780e+000	-212.234497	-36.967123
1679	1.6790e+000	-213.783264	-36.956158
1680	1.6800e+000	-214.752197	-36.993851
1681	1.6810e+000	-216.064453	-37.014410
1682	1.6820e+000	-217.163086	-37.030858
1683	1.6830e+000	-218.322754	-37.047991
1684	1.6840e+000	-219.573975	-37.067866
1685	1.6850e+000	-220.726013	-37.095964
1686	1.6860e+000	-222.045898	-37.113782
1687	1.6870e+000	-223.220825	-37.126118
1688	1.6880e+000	-224.555969	-37.135713
1689	1.6890e+000	-225.570679	-37.165867
1690	1.6900e+000	-226.585388	-37.160385
1691	1.6910e+000	-227.996826	-37.192595
1692	1.6920e+000	-229.316711	-37.204245
1693	1.6930e+000	-230.255127	-37.211099
1694	1.6940e+000	-231.933594	-37.243309
1695	1.6950e+000	-232.666016	-37.263183
1696	1.6960e+000	-234.085083	-37.276890
1697	1.6970e+000	-235.343933	-37.289226
1698	1.6980e+000	-236.412048	-37.315953
1699	1.6990e+000	-237.709045	-37.319380
1700	1.7000e+000	-238.876343	-37.342681
1701	1.7010e+000	-240.234375	-37.359814
1702	1.7020e+000	-241.371155	-37.331030
1703	1.7030e+000	-242.446899	-37.389968
1704	1.7040e+000	-243.774414	-37.379003
1705	1.7050e+000	-244.934082	-37.418067
1706	1.7060e+000	-246.124268	-37.445480
1707	1.7070e+000	-247.230530	-37.452333
1708	1.7080e+000	-248.565674	-37.465354
1709	1.7090e+000	-249.740601	-37.490711
1710	1.7100e+000	-251.014709	-37.492767
1711	1.7110e+000	-252.593994	-37.508530
1712	1.7120e+000	-253.517151	-37.540055
1713	1.7130e+000	-254.631042	-37.550335
1714	1.7140e+000	-255.889893	-37.556502
1715	1.7150e+000	-257.049561	-37.588027
1716	1.7160e+000	-258.056641	-37.635315
1717	1.7170e+000	-259.262085	-37.627776
1718	1.7180e+000	-260.581970	-37.623664
1719	1.7190e+000	-261.665344	-37.627776
1720	1.7200e+000	-262.809753	-37.655189
1721	1.7210e+000	-263.923645	-37.673008
1722	1.7220e+000	-265.296936	-37.694938
1723	1.7230e+000	-266.036987	-37.723722
1724	1.7240e+000	-267.684937	-37.727148
1725	1.7250e+000	-268.890381	-37.744967
1726	1.7260e+000	-270.301819	-37.739484
1727	1.7270e+000	-271.484375	-37.762100
1728	1.7280e+000	-272.506714	-37.783345
1729	1.7290e+000	-273.689270	-37.797052
1730	1.7300e+000	-274.810791	-37.813499
1731	1.7310e+000	-276.054382	-37.832688
1732	1.7320e+000	-277.526855	-37.847766
1733	1.7330e+000	-278.495789	-37.854619
1734	1.7340e+000	-279.869080	-37.858731
1735	1.7350e+000	-281.036377	-37.910130
1736	1.7360e+000	-281.921387	-37.915613
1737	1.7370e+000	-283.210754	-37.926578
1738	1.7380e+000	-284.500122	-37.927949
1739	1.7390e+000	-285.545349	-37.976607
1740	1.7400e+000	-286.964417	-37.969754
1741	1.7410e+000	-288.208008	-37.993055
1742	1.7420e+000	-289.306641	-37.991684
1743	1.7430e+000	-290.626526	-38.015670
1744	1.7440e+000	-291.786194	-38.000593
1745	1.7450e+000	-292.831421	-38.038286
1746	1.7460e+000	-294.158936	-38.070496
1747	1.7470e+000	-295.455933	-38.070496
1748	1.7480e+000	-297.119141	-38.106819
1749	1.7490e+000	-297.904968	-38.112986
1750	1.7500e+000	-299.133301	-38.128749
1751	1.7510e+000	-299.865723	-38.134232
1752	1.7520e+000	-298.942566	-38.123952
1753	1.7530e+000	-298.027039	-38.073238
1754	1.7540e+000	-296.539307	-38.095168
1755	1.7550e+000	-295.188904	-38.081462
1756	1.7560e+000	-294.158936	-38.065014
1757	1.7570e+000	-292.816162	-38.051307
1758	1.7580e+000	-291.725159	-38.040342
1759	1.7590e+000	-290.771484	-38.028006
1760	1.7600e+000	-289.390564	-38.009502
1761	1.7610e+000	-288.208008	-38.005390
1762	1.7620e+000	-286.987305	-38.006076
1763	1.7630e+000	-285.774231	-37.976607
1764	1.7640e+000	-284.240723	-37.983460
1765	1.7650e+000	-283.172607	-37.951935
1766	1.7660e+000	-281.913757	-37.946452
1767	1.7670e+000	-281.005859	-37.919039
1768	1.7680e+000	-279.739380	-37.914242
1769	1.7690e+000	-278.663635	-37.880661
1770	1.7700e+000	-277.076721	-37.876549
1771	1.7710e+000	-276.275635	-37.882032
1772	1.7720e+000	-275.024414	-37.820353
1773	1.7730e+000	-273.971558	-37.841598
1774	1.7740e+000	-272.552490	-37.821038
1775	1.7750e+000	-271.224976	-37.803220
1776	1.7760e+000	-270.362854	-37.799108
1777	1.7770e+000	-268.920898	-37.792940
1778	1.7780e+000	-267.868042	-37.764841
1779	1.7790e+000	-266.578674	-37.769639
1780	1.7800e+000	-265.251160	-37.738114
1781	1.7810e+000	-264.022827	-37.731946
1782	1.7820e+000	-262.947083	-37.723036
1783	1.7830e+000	-261.756897	-37.711386
1784	1.7840e+000	-260.490417	-37.703847
1785	1.7850e+000	-259.719849	-37.669581
1786	1.7860e+000	-258.163452	-37.656560
1787	1.7870e+000	-256.782532	-37.640112
1788	1.7880e+000	-255.905151	-37.638741
1789	1.7890e+000	-254.638672	-37.612699
1790	1.7900e+000	-253.425598	-37.609958
1791	1.7910e+000	-252.059937	-37.591454
1792	1.7920e+000	-251.037598	-37.561300
1793	1.7930e+000	-249.649048	-37.558558
1794	1.7940e+000	-248.306274	-37.551705
1795	1.7950e+000	-247.131348	-37.533887
1796	1.7960e+000	-246.131897	-37.522236
1797	1.7970e+000	-245.086670	-37.506474
1798	1.7980e+000	-243.698120	-37.480431
1799	1.7990e+000	-242.500305	-37.479061
1800	1.8000e+000	-241.516113	-37.422864
1801	1.8010e+000	-240.158081	-37.450277
1802	1.8020e+000	-238.891602	-37.433144
1803	1.8030e+000	-237.800598	-37.408472
1804	1.8040e+000	-236.305237	-37.414640
1805	1.8050e+000	-235.206604	-37.387227
1806	1.8060e+000	-233.963013	-37.374891
1807	1.8070e+000	-232.727051	-37.359129
1808	1.8080e+000	-231.681824	-37.318695
1809	1.8090e+000	-230.560303	-37.320751
1810	1.8100e+000	-229.286194	-37.315953
1811	1.8110e+000	-227.912903	-37.304303
1812	1.8120e+000	-226.806641	-37.285114
1813	1.8130e+000	-225.769043	-37.276890
1814	1.8140e+000	-224.296570	-37.252903
1815	1.8150e+000	-223.297119	-37.252218
1816	1.8160e+000	-222.213745	-37.230288
1817	1.8170e+000	-220.649719	-37.220693
1818	1.8180e+000	-219.665527	-37.198763
1819	1.8190e+000	-218.444824	-37.171350
1820	1.8200e+000	-217.361450	-37.176147
1821	1.8210e+000	-215.942383	-37.159014
1822	1.8220e+000	-214.706421	-37.122006
1823	1.8230e+000	-213.699341	-37.123377
1824	1.8240e+000	-212.585449	-37.098705
1825	1.8250e+000	-211.425781	-37.090481
1826	1.8260e+000	-209.922791	-37.073348
1827	1.8270e+000	-208.862305	-37.065810
1828	1.8280e+000	-207.794189	-37.091167
1829	1.8290e+000	-206.481934	-37.013725
1830	1.8300e+000	-205.421448	-37.002074
1831	1.8310e+000	-204.200745	-37.008242
1832	1.8320e+000	-202.674866	-37.004130
1833	1.8330e+000	-201.721191	-36.977403
1834	1.8340e+000	-200.477600	-36.966438
1835	1.8350e+000	-199.111938	-36.933542
1836	1.8360e+000	-198.257446	-36.928745
1837	1.8370e+000	-196.838379	-36.921206
1838	1.8380e+000	-195.732117	-36.897220
1839	1.8390e+000	-194.702148	-36.877345
1840	1.8400e+000	-193.214417	-36.860897
1841	1.8410e+000	-191.909790	-36.845820
1842	1.8420e+000	-191.116333	-36.829373
1843	1.8430e+000	-189.857483	-36.825946
1844	1.8440e+000	-188.598633	-36.802645
1845	1.8450e+000	-187.461853	-36.786882
1846	1.8460e+000	-186.050415	-36.771805
1847	1.8470e+000	-184.783936	-36.769064
1848	1.8480e+000	-183.822632	-36.746448
1849	1.8490e+000	-182.594299	-36.721091
1850	1.8500e+000	-181.190491	-36.719035
1851	1.8510e+000	-180.084229	-36.696419
1852	1.8520e+000	-178.840637	-36.684769
1853	1.8530e+000	-177.551270	-36.673804
1854	1.8540e+000	-176.429749	-36.650503
1855	1.8550e+000	-175.376892	-36.627887
1856	1.8560e+000	-174.095154	-36.621034
1857	1.8570e+000	-172.454834	-36.584026
1858	1.8580e+000	-171.585083	-36.598418
1859	1.8590e+000	-169.769287	-36.586767
1860	1.8600e+000	-169.204712	-36.544277
1861	1.8610e+000	-168.228149	-36.544963
1862	1.8620e+000	-166.717529	-36.510696
1863	1.8630e+000	-165.649414	-36.503158
1864	1.8640e+000	-164.665222	-36.483283
1865	1.8650e+000	-163.124084	-36.452444
1866	1.8660e+000	-162.246704	-36.438737
1867	1.8670e+000	-160.873413	-36.440793
1868	1.8680e+000	-159.324646	-36.427772
1869	1.8690e+000	-158.454895	-36.402415
1870	1.8700e+000	-157.379150	-36.383911
1871	1.8710e+000	-155.982971	-36.367463
1872	1.8720e+000	-154.869080	-36.353757
1873	1.8730e+000	-153.678894	-36.341421
1874	1.8740e+000	-152.313232	-36.351701
1875	1.8750e+000	-151.214600	-36.305099
1876	1.8760e+000	-150.039673	-36.293448
1877	1.8770e+000	-149.078369	-36.268091
1878	1.8780e+000	-147.850037	-36.268091
1879	1.8790e+000	-146.469116	-36.241364
1880	1.8800e+000	-145.057678	-36.218748
1881	1.8810e+000	-144.050598	-36.218062
1882	1.8820e+000	-142.913818	-36.173516
1883	1.8830e+000	-141.479492	-36.176943
1884	1.8840e+000	-140.373230	-36.155698
1885	1.8850e+000	-139.160156	-36.135823
1886	1.8860e+000	-137.886047	-36.102243
1887	1.8870e+000	-136.642456	-36.078941
1888	1.8880e+000	-135.597229	-36.083053
1889	1.8890e+000	-134.162903	-36.067976
1890	1.8900e+000	-133.193970	-36.046731
1891	1.8910e+000	-131.973267	-36.022745
1892	1.8920e+000	-130.691528	-36.008353
1893	1.8930e+000	-130.020142	-36.013836
1894	1.8940e+000	-128.547668	-35.989849
1895	1.8950e+000	-127.326965	-35.961751
1896	1.8960e+000	-126.342773	-35.937079
1897	1.8970e+000	-124.916077	-35.930911
1898	1.8980e+000	-123.344421	-35.902128
1899	1.8990e+000	-122.329712	-35.891162
1900	1.9000e+000	-121.322632	-35.882938
1901	1.9010e+000	-120.063782	-35.840448
1902	1.9020e+000	-118.843079	-35.847302
1903	1.9030e+000	-117.584229	-35.800014
1904	1.9040e+000	-115.951538	-35.786993
1905	1.9050e+000	-115.379333	-35.782196
1906	1.9060e+000	-113.922119	-35.767804
1907	1.9070e+000	-112.754822	-35.739020
1908	1.9080e+000	-111.656189	-35.731482
1909	1.9090e+000	-110.527039	-35.705439
1910	1.9100e+000	-109.275818	-35.683509
1911	1.9110e+000	-108.154297	-35.662949
1912	1.9120e+000	-106.796265	-35.637592
1913	1.9130e+000	-105.346680	-35.628683
1914	1.9140e+000	-104.339600	-35.610864
1915	1.9150e+000	-103.225708	-35.598529
1916	1.9160e+000	-102.012634	-35.562892
1917	1.9170e+000	-100.791931	-35.547815
1918	1.9180e+000	-99.624634	-35.533423
1919	1.9190e+000	-98.579407	-35.532052
1920	1.9200e+000	-97.198486	-35.495044
1921	1.9210e+000	-96.199036	-35.472429
1922	1.9220e+000	-94.619751	-35.447072
1923	1.9230e+000	-93.513489	-35.432680
1924	1.9240e+000	-92.018127	-35.434051
1925	1.9250e+000	-91.156006	-35.397728
1926	1.9260e+000	-89.996338	-35.366889
1927	1.9270e+000	-89.027405	-35.351812
1928	1.9280e+000	-87.692261	-35.336734
1929	1.9290e+000	-86.334229	-35.306580
1930	1.9300e+000	-85.243225	-35.305209
1931	1.9310e+000	-84.205627	-35.268202
1932	1.9320e+000	-82.794189	-35.245586
1933	1.9330e+000	-81.596375	-35.220229
1934	1.9340e+000	-80.444336	-35.214061
1935	1.9350e+000	-79.025269	-35.182536
1936	1.9360e+000	-77.972412	-35.163347
1937	1.9370e+000	-76.889038	-35.135249
1938	1.9380e+000	-75.759888	-35.111262
1939	1.9390e+000	-74.577332	-35.089332
1940	1.9400e+000	-72.952271	-35.078367
1941	1.9410e+000	-72.044373	-35.051639
1942	1.9420e+000	-70.755005	-35.016688
1943	1.9430e+000	-69.702148	-35.021485
1944	1.9440e+000	-68.321228	-34.991331
1945	1.9450e+000	-66.932678	-34.963232
1946	1.9460e+000	-66.123962	-34.965288
1947	1.9470e+000	-64.758301	-34.911147
1948	1.9480e+000	-63.575745	-34.914574
1949	1.9490e+000	-62.393188	-34.891958
1950	1.9500e+000	-61.164856	-34.853580
1951	1.9510e+000	-59.959412	-34.810405
1952	1.9520e+000	-58.486938	-34.795328
1953	1.9530e+000	-57.563782	-34.757635
1954	1.9540e+000	-56.274414	-34.735704
1955	1.9550e+000	-55.313110	-34.741187
1956	1.9560e+000	-54.054260	-34.689787
1957	1.9570e+000	-52.696228	-34.677452
1958	1.9580e+000	-51.689148	-34.650039
1959	1.9590e+000	-50.460815	-34.630164
1960	1.9600e+000	-49.285889	-34.595213
1961	1.9610e+000	-47.981262	-34.582877
1962	1.9620e+000	-47.103882	-34.524624
1963	1.9630e+000	-45.555115	-34.521197
1964	1.9640e+000	-44.677734	-34.480763
1965	1.9650e+000	-43.128967	-34.458833
1966	1.9660e+000	-41.961670	-34.432105
1967	1.9670e+000	-40.603638	-34.381391
1968	1.9680e+000	-39.619446	-34.361517
1969	1.9690e+000	-38.383484	-34.329306
1970	1.9700e+000	-37.513733	-34.303949
1971	1.9710e+000	-36.125183	-34.279963
1972	1.9720e+000	-34.660339	-34.236788
1973	1.9730e+000	-33.630371	-34.205948
1974	1.9740e+000	-32.493591	-34.180591
1975	1.9750e+000	-31.158447	-34.147695
1976	1.9760e+000	-30.227661	-34.111373
1977	1.9770e+000	-28.732300	-34.063400
1978	1.9780e+000	-27.473450	-34.066142
1979	1.9790e+000	-26.702881	-34.006518
1980	1.9800e+000	-25.497437	-33.944154
1981	1.9810e+000	-23.986816	-33.922909
1982	1.9820e+000	-22.979736	-33.889328
1983	1.9830e+000	-21.652222	-33.845467
1984	1.9840e+000	-20.294189	-33.793382
1985	1.9850e+000	-19.592285	-33.778305
1986	1.9860e+000	-18.074036	-33.717996
1987	1.9870e+000	-16.937256	-33.687842
1988	1.9880e+000	-15.869141	-33.622051
1989	1.9890e+000	-14.343262	-33.586414
1990	1.9900e+000	-13.153076	-33.521308
1991	1.9910e+000	-12.130737	-33.490468
1992	1.9920e+000	-10.803223	-33.410285
1993	1.9930e+000	-9.750366	-33.369851
1994	1.9940e+000	-8.537292	-33.323249
1995	1.9950e+000	-7.057190	-33.247178
1996	1.9960e+000	-6.004333	-33.171107
1997	1.9970e+000	-5.027771	-33.106686
1998	1.9980e+000	-3.326416	-33.026503
1999	1.9990e+000	-2.304077	-32.913425
2000	2.0000e+000	-1.373291	-32.876417
2001	2.0010e+000	-0.160217	-32.777730

Center data before PMax,±Pr and ±Vc Calc.

PMax (µC/cm2):	3.81e+001
Pr (µC/cm2):	2.87e+001
-Pr (µC/cm2):	-3.28e+001
Vc:	6.55e-001
-Vc:	-3.55e-001
C (Max-Eff) (nF):	7.88e-001
K (Eff):	1.44e+003
Vert. (±Pr) Shift (µC/cm2):	-2.06e+000
Horiz. Shift (±Vc):	1.50e-001
Offset (µC/cm2):	3.18e+001

A (Loop Area - µC/cm2·Volts):	6.92e+001



Hysteresis Version: 5.16.2 - Radiant Technologies, Inc., 1999 - 3/20/18

