»»»»»»»»»»»»»»»»»»»»»»»»»»»»»»»»»»»» Hysteresis ««««««««««««««««««««««««««««««««««««
»»»  Executed Version:	5.16.2
»»»  Vision Version:	5.16.10 (R)
»»»  Vision Compiled:	4/26/18
»»»  Driver Version:	5.16.6
»»»  Windows Version:	Windows 8
»»»  Processor Information:	x86 (AMD or Intel) - 8 Processors
»»»  Tester Name:	PPM21016-863
»»»  Tester S/N:	PPM21016-863
»»»  Internal Amp Type:	 RTI ML200V    
»»»  Internal Amp S/N:	 iAB2-0000     
»»»  Execution Count:	1
»»»»»»»»»»»»»»»»»»»»»»»»»»»»»»»»»»»»»»»»»»««««««««««««««««««««««««««««««««««««««««««

Stored:	5/8/2018 - 15:30:6
Configured:	05/08/18 02:20:49 PM
Executed:	05/08/18 03:29:44 PM

»»»»»»»»»»»»»»»»»»»»»»»»»»»»»»»»»»» Sample Info ««««««««««««««««««««««««««««««««««««
Sample Name:	Internal Reference Cap.
Lot Name:	N/A
Wafer Name:	N/A
Die Row/Column:	0/0
Capacitor Number:	0
Sample Area (cm2):	7.85e-005
Sample Thickness (µm):	8.00e-002

Mux Loop Adjustment:	Disabled

Amplifier:	Internal

»»»»»»»»»»»»»»»»»»»»»»»»»»»»»»»»»»» Tester Info «««««««««««««««««««««««««««««««««««
Tester Name:	PPM21016-863
Tester Serial Number:	PPM21016-863
Return Signal Amp. Level:	0.19 [Index: 3]

»»»»»»»»»»»»»»»»»»»»»»»»»»»»»»»» Hysteresis Info ««««««««««««««««««««««««««««««««««
Task Name:	Hyst-2
Volts:	2.40
Field:	300.00 (kV/cm)
Hysteresis Period (ms):	2.00e+000
Preset:	DisabledProfile:	Double Bipolar

»»»»»»»»»»»»»»»»»»»»»»»»»»»»»»»»»»»»»» Data «««««««««««««««««««««««««««««««««««««««
Points:	2001

Valid Data

Point	Time (ms)	Field (kV/cm)	Measured Polarization
   1	1.0000e-003	0.190735	-29.975332
   2	2.0000e-003	1.249313	-30.005989
   3	3.0000e-003	2.565384	-29.965112
   4	4.0000e-003	3.576279	-30.036647
   5	5.0000e-003	4.720688	-29.888469
   6	6.0000e-003	6.017685	-29.847592
   7	7.0000e-003	7.314682	-29.929345
   8	8.0000e-003	8.487701	-29.837373
   9	9.0000e-003	9.593964	-29.791387
  10	1.0000e-002	10.204315	-29.903798
  11	1.1000e-002	12.416840	-29.765839
  12	1.2000e-002	13.160706	-29.919126
  13	1.3000e-002	14.352798	-29.653428
  14	1.4000e-002	15.649796	-29.898688
  15	1.5000e-002	17.166138	-29.939565
  16	1.6000e-002	17.986298	-29.760729
  17	1.7000e-002	19.340515	-29.719853
  18	1.8000e-002	20.599365	-29.719853
  19	1.9000e-002	21.867752	-29.653428
  20	2.0000e-002	22.983551	-29.770949
  21	2.1000e-002	23.698807	-29.939565
  22	2.2000e-002	25.367737	-29.622771
  23	2.3000e-002	26.521683	-29.622771
  24	2.4000e-002	27.656555	-29.929345
  25	2.5000e-002	28.505325	-29.326415
  26	2.6000e-002	29.582977	-29.704524
  27	2.7000e-002	31.223297	-29.382621
  28	2.8000e-002	32.472610	-29.423497
  29	2.9000e-002	33.845901	-29.638100
  30	3.0000e-002	34.790039	-29.433716
  31	3.1000e-002	36.010742	-29.469483
  32	3.2000e-002	37.546158	-29.362182
  33	3.3000e-002	38.375854	-29.285539
  34	3.4000e-002	39.625168	-29.295758
  35	3.5000e-002	40.855408	-29.214005
  36	3.6000e-002	41.809082	-29.091375
  37	3.7000e-002	43.468475	-29.101594
  38	3.8000e-002	44.212341	-29.050498
  39	3.9000e-002	45.766830	-29.060717
  40	4.0000e-002	46.787262	-28.907430
  41	4.1000e-002	48.131943	-28.544650
  42	4.2000e-002	49.314499	-28.769471
  43	4.3000e-002	50.630569	-28.631513
  44	4.4000e-002	51.641464	-28.651951
  45	4.5000e-002	52.871704	-28.570198
  46	4.6000e-002	54.063797	-28.457787
  47	4.7000e-002	55.246353	-28.616184
  48	4.8000e-002	56.552887	-28.197199
  49	4.9000e-002	57.773590	-28.452678
  50	5.0000e-002	58.755875	-28.079679
  51	5.1000e-002	60.062408	-27.977487
  52	5.2000e-002	61.635971	-27.890624
  53	5.3000e-002	62.437057	-27.788433
  54	5.4000e-002	63.724518	-27.808871
  55	5.5000e-002	65.135956	-27.359228
  56	5.6000e-002	66.194534	-27.676022
  57	5.7000e-002	67.434311	-27.440982
  58	5.8000e-002	68.521500	-27.134407
  59	5.9000e-002	69.713593	-27.262146
  60	6.0000e-002	70.819855	-27.006668
  61	6.1000e-002	72.298050	-27.006668
  62	6.2000e-002	73.337555	-26.761408
  63	6.3000e-002	74.329376	-26.669435
  64	6.4000e-002	75.960159	-26.531477
  65	6.5000e-002	76.866150	-26.291327
  66	6.6000e-002	78.048706	-26.398628
  67	6.7000e-002	79.593658	-25.478904
  68	6.8000e-002	80.499649	-26.046067
  69	6.9000e-002	81.586838	-25.933656
  70	7.0000e-002	82.960129	-25.647520
  71	7.1000e-002	82.483292	-26.516148
  72	7.2000e-002	85.458755	-25.627082
  73	7.3000e-002	86.345673	-25.392041
  74	7.4000e-002	87.699890	-25.054809
  75	7.5000e-002	88.863373	-25.310288
  76	7.6000e-002	90.198517	-24.845317
  77	7.7000e-002	91.161728	-24.538742
  78	7.8000e-002	92.191696	-24.288373
  79	7.9000e-002	93.727112	-24.247496
  80	8.0000e-002	95.033646	-24.078880
  81	8.1000e-002	96.168518	-23.767196
  82	8.2000e-002	96.788406	-23.910264
  83	8.3000e-002	98.457336	-23.399306
  84	8.4000e-002	99.391937	-23.123389
  85	8.5000e-002	101.032257	-23.297115
  86	8.6000e-002	102.157593	-22.791267
  87	8.7000e-002	103.120804	-22.500021
  88	8.8000e-002	104.703903	-22.157679
  89	8.9000e-002	105.552673	-21.866433
  90	9.0000e-002	106.935501	-21.718256
  91	9.1000e-002	107.936859	-21.335037
  92	9.2000e-002	109.186172	-21.094887
  93	9.3000e-002	110.435486	-20.732107
  94	9.4000e-002	111.703873	-20.583930
  95	9.5000e-002	112.762451	-20.323341
  96	9.6000e-002	113.992691	-19.822603
  97	9.7000e-002	114.936829	-19.623329
  98	9.8000e-002	116.491318	-19.183906
  99	9.9000e-002	117.588043	-18.841564
 100	1.0000e-001	118.885040	-18.371483
 101	1.0100e-001	121.145248	-17.686800
 102	1.0200e-001	121.231079	-17.932059
 103	1.0300e-001	122.575760	-17.242267
 104	1.0400e-001	123.548508	-16.945911
 105	1.0500e-001	124.826431	-16.532035
 106	1.0600e-001	126.123428	-16.077283
 107	1.0700e-001	127.172470	-15.530558
 108	1.0800e-001	128.479004	-15.029820
 109	1.0900e-001	129.575729	-14.651711
 110	1.1000e-001	130.929947	-14.099877
 111	1.1100e-001	132.207870	-13.553152
 112	1.1200e-001	133.180618	-13.026866
 113	1.1300e-001	134.315491	-12.454593
 114	1.1400e-001	135.755539	-11.984512
 115	1.1500e-001	136.814117	-11.008583
 116	1.1600e-001	138.578415	-10.364776
 117	1.1700e-001	139.226913	-9.976448
 118	1.1800e-001	140.380859	-9.301984
 119	1.1900e-001	141.572952	-8.714383
 120	1.2000e-001	142.946243	-7.963275
 121	1.2100e-001	144.042969	-6.854497
 122	1.2200e-001	145.177841	-6.358868
 123	1.2300e-001	146.636963	-5.755938
 124	1.2400e-001	147.705078	-4.774899
 125	1.2500e-001	148.839951	-3.962477
 126	1.2600e-001	150.032043	-3.124506
 127	1.2700e-001	151.071548	-2.235440
 128	1.2800e-001	152.425766	-1.259511
 129	1.2900e-001	153.665543	-0.227376
 130	1.3000e-001	154.514313	0.707676
 131	1.3100e-001	155.706406	1.918646
 132	1.3200e-001	157.308578	2.909904
 133	1.3300e-001	158.205032	4.044230
 134	1.3400e-001	159.444809	5.122351
 135	1.3500e-001	160.493851	6.323101
 136	1.3600e-001	161.743164	7.626043
 137	1.3700e-001	162.944794	8.745040
 138	1.3800e-001	164.270401	10.221708
 139	1.3900e-001	165.367126	12.127580
 140	1.4000e-001	166.778564	12.837811
 141	1.4100e-001	167.598724	14.110096
 142	1.4200e-001	168.952942	15.857571
 143	1.4300e-001	170.240402	17.354677
 144	1.4400e-001	171.556473	18.780249
 145	1.4500e-001	172.662735	20.742327
 146	1.4600e-001	173.530579	22.029940
 147	1.4700e-001	175.170898	23.460621
 148	1.4800e-001	176.134109	24.911741
 149	1.4900e-001	177.516937	26.557025
 150	1.5000e-001	178.709030	28.166541
 151	1.5100e-001	179.452896	29.791387
 152	1.5200e-001	181.102753	31.344698
 153	1.5300e-001	182.065964	32.857133
 154	1.5400e-001	183.267593	34.451321
 155	1.5500e-001	184.659958	35.912660
 156	1.5600e-001	186.185837	37.328012
 157	1.5700e-001	186.939240	39.049940
 158	1.5800e-001	188.589096	40.194485
 159	1.5900e-001	189.418793	41.712029
 160	1.6000e-001	190.324783	43.014971
 161	1.6100e-001	191.841125	44.292365
 162	1.6200e-001	192.842484	45.390924
 163	1.6300e-001	193.977356	46.433278
 164	1.6400e-001	195.608139	47.511399
 165	1.6500e-001	196.819305	48.466890
 166	1.6600e-001	197.906494	49.442819
 167	1.6700e-001	199.317932	50.439186
 168	1.6800e-001	200.281143	50.873500
 169	1.6900e-001	201.644897	51.563293
 170	1.7000e-001	202.798843	52.064032
 171	1.7100e-001	203.981400	52.631195
 172	1.7200e-001	205.297470	53.183029
 173	1.7300e-001	206.422806	53.418069
 174	1.7400e-001	207.672119	53.837055
 175	1.7500e-001	209.465027	54.363341
 176	1.7600e-001	209.617615	54.332684
 177	1.7700e-001	211.277008	54.567724
 178	1.7800e-001	212.678909	54.812984
 179	1.7900e-001	213.613510	55.002038
 180	1.8000e-001	214.929581	55.150216
 181	1.8100e-001	216.217041	55.410804
 182	1.8200e-001	217.370987	55.487448
 183	1.8300e-001	218.410492	55.732708
 184	1.8400e-001	219.764709	55.742927
 185	1.8500e-001	220.918655	55.681612
 186	1.8600e-001	222.101212	55.829790
 187	1.8700e-001	223.388672	55.931981
 188	1.8800e-001	224.475861	55.952419
 189	1.8900e-001	225.706100	56.197679
 190	1.9000e-001	227.890015	56.550240
 191	1.9100e-001	228.128433	56.560459
 192	1.9200e-001	229.234695	56.371405
 193	1.9300e-001	230.731964	56.172131
 194	1.9400e-001	231.704712	56.545130
 195	1.9500e-001	232.992172	56.524692
 196	1.9600e-001	234.212875	56.519582
 197	1.9700e-001	235.233307	56.504254
 198	1.9800e-001	236.320496	56.631993
 199	1.9900e-001	237.760544	56.795500
 200	2.0000e-001	238.838196	56.780171
 201	2.0100e-001	239.887238	56.769952
 202	2.0200e-001	241.508484	56.902801
 203	2.0300e-001	242.557526	56.918129
 204	2.0400e-001	243.911743	56.841486
 205	2.0500e-001	245.227814	57.158280
 206	2.0600e-001	246.124268	57.515950
 207	2.0700e-001	247.325897	57.081636
 208	2.0800e-001	249.004364	57.240033
 209	2.0900e-001	249.624252	57.219594
 210	2.1000e-001	250.921249	57.362663
 211	2.1100e-001	252.246857	57.434197
 212	2.1200e-001	253.496170	57.347334
 213	2.1300e-001	254.468918	57.495512
 214	2.1400e-001	255.775452	57.383101
 215	2.1500e-001	256.805420	57.546607
 216	2.1600e-001	258.102417	57.592594
 217	2.1700e-001	259.313583	57.628361
 218	2.1800e-001	260.496140	57.791867
 219	2.1900e-001	260.801315	57.464854
 220	2.2000e-001	263.280869	57.812305
 221	2.2100e-001	264.081955	57.986031
 222	2.2200e-001	265.169144	57.863401
 223	2.2300e-001	266.981125	57.914497
 224	2.2400e-001	267.839432	58.200633
 225	2.2500e-001	268.840790	58.093332
 226	2.2600e-001	270.137787	58.042236
 227	2.2700e-001	271.282196	58.215962
 228	2.2800e-001	272.417068	58.251729
 229	2.2900e-001	273.942947	58.123990
 230	2.3000e-001	275.144577	58.496989
 231	2.3100e-001	276.145935	58.451002
 232	2.3200e-001	277.853012	58.640057
 233	2.3300e-001	278.615952	58.542975
 234	2.3400e-001	279.340744	58.537865
 235	2.3500e-001	281.190872	58.706481
 236	2.3600e-001	282.192230	58.486769
 237	2.3700e-001	283.460617	58.721810
 238	2.3800e-001	284.690857	58.803563
 239	2.3900e-001	285.768509	58.859769
 240	2.4000e-001	286.951065	58.926193
 241	2.4100e-001	288.372040	58.844440
 242	2.4200e-001	289.316177	59.115247
 243	2.4300e-001	290.489197	59.207220
 244	2.4400e-001	291.833878	59.401384
 245	2.4500e-001	292.892456	59.232768
 246	2.4600e-001	294.179916	59.237877
 247	2.4700e-001	295.448303	59.386055
 248	2.4800e-001	296.449661	59.391165
 249	2.4900e-001	298.175812	59.728397
 250	2.5000e-001	298.891068	59.432041
 251	2.5100e-001	300.188065	59.370726
 252	2.5200e-001	299.177170	59.661972
 253	2.5300e-001	298.147202	59.615986
 254	2.5400e-001	296.716690	59.631315
 255	2.5500e-001	295.467377	59.784602
 256	2.5600e-001	294.389725	59.677301
 257	2.5700e-001	293.092728	59.682410
 258	2.5800e-001	291.814804	59.825479
 259	2.5900e-001	290.956497	59.820369
 260	2.6000e-001	289.621353	59.661972
 261	2.6100e-001	288.372040	59.871465
 262	2.6200e-001	287.199020	60.065629
 263	2.6300e-001	285.987854	59.702849
 264	2.6400e-001	284.452438	59.692630
 265	2.6500e-001	283.803940	59.830588
 266	2.6600e-001	282.344818	59.948108
 267	2.6700e-001	281.171799	59.805040
 268	2.6800e-001	280.084610	59.988985
 269	2.6900e-001	278.749466	59.881684
 270	2.7000e-001	277.557373	60.004314
 271	2.7100e-001	276.422501	60.045190
 272	2.7200e-001	275.144577	59.922560
 273	2.7300e-001	274.028778	59.942999
 274	2.7400e-001	272.483826	59.953218
 275	2.7500e-001	271.606445	59.988985
 276	2.7600e-001	270.338058	59.759054
 277	2.7700e-001	269.050598	60.080957
 278	2.7800e-001	267.686844	60.086067
 279	2.7900e-001	266.609192	60.040081
 280	2.8000e-001	265.588760	60.070738
 281	2.8100e-001	264.463425	59.958328
 282	2.8200e-001	263.156891	60.556148
 283	2.8300e-001	262.041092	60.137163
 284	2.8400e-001	260.858536	60.050300
 285	2.8500e-001	259.637833	60.080957
 286	2.8600e-001	258.455276	60.086067
 287	2.8700e-001	257.253647	60.121834
 288	2.8800e-001	256.052017	60.178039
 289	2.8900e-001	254.602432	59.978766
 290	2.9000e-001	253.505707	60.091177
 291	2.9100e-001	252.256393	60.188258
 292	2.9200e-001	251.073837	60.111615
 293	2.9300e-001	250.730515	60.111615
 294	2.9400e-001	248.861313	60.060519
 295	2.9500e-001	247.564316	60.178039
 296	2.9600e-001	246.391296	60.561258
 297	2.9700e-001	245.313644	60.203587
 298	2.9800e-001	243.988037	60.060519
 299	2.9900e-001	242.786407	60.157601
 300	3.0000e-001	241.708755	60.162711
 301	3.0100e-001	240.373611	60.096286
 302	3.0200e-001	239.200592	60.213806
 303	3.0300e-001	238.170624	60.167820
 304	3.0400e-001	236.511230	60.096286
 305	3.0500e-001	235.605240	60.193368
 306	3.0600e-001	234.727859	60.086067
 307	3.0700e-001	233.125687	60.096286
 308	3.0800e-001	231.523514	59.988985
 309	3.0900e-001	231.075287	60.111615
 310	3.1000e-001	229.482651	60.111615
 311	3.1100e-001	228.424072	60.193368
 312	3.1200e-001	227.193832	60.193368
 313	3.1300e-001	225.915909	60.806517
 314	3.1400e-001	224.857330	60.080957
 315	3.1500e-001	223.579407	60.218916
 316	3.1600e-001	222.139359	60.239354
 317	3.1700e-001	221.166611	59.973656
 318	3.1800e-001	220.079422	60.178039
 319	3.1900e-001	218.572617	59.988985
 320	3.2000e-001	217.580795	60.065629
 321	3.2100e-001	216.407776	60.218916
 322	3.2200e-001	214.843750	60.024752
 323	3.2300e-001	214.233398	60.208697
 324	3.2400e-001	212.841034	59.794821
 325	3.2500e-001	211.648941	60.198478
 326	3.2600e-001	210.256577	60.034971
 327	3.2700e-001	209.112167	60.091177
 328	3.2800e-001	207.853317	60.096286
 329	3.2900e-001	206.527710	60.101396
 330	3.3000e-001	205.411911	60.045190
 331	3.3100e-001	204.334259	60.080957
 332	3.3200e-001	203.142166	60.126944
 333	3.3300e-001	202.131271	60.132053
 334	3.3400e-001	200.843811	59.988985
 335	3.3500e-001	199.451447	60.075848
 336	3.3600e-001	198.545456	60.004314
 337	3.3700e-001	197.763443	60.336436
 338	3.3800e-001	196.037292	59.963437
 339	3.3900e-001	194.807053	60.080957
 340	3.4000e-001	193.405151	60.157601
 341	3.4100e-001	192.461014	59.881684
 342	3.4200e-001	191.230774	60.106505
 343	3.4300e-001	190.181732	60.137163
 344	3.4400e-001	188.846588	59.656863
 345	3.4500e-001	187.492371	60.009423
 346	3.4600e-001	186.538696	59.953218
 347	3.4700e-001	185.041428	59.973656
 348	3.4800e-001	183.258057	59.774383
 349	3.4900e-001	182.790756	60.188258
 350	3.5000e-001	181.570053	59.968547
 351	3.5100e-001	180.959702	60.448847
 352	3.5200e-001	179.738998	60.070738
 353	3.5300e-001	178.060532	59.958328
 354	3.5400e-001	176.839828	59.851026
 355	3.5500e-001	175.476074	59.856136
 356	3.5600e-001	174.608231	60.014533
 357	3.5700e-001	172.920227	59.871465
 358	3.5800e-001	172.004700	59.871465
 359	3.5900e-001	170.640945	59.820369
 360	3.6000e-001	169.372559	59.743725
 361	3.6100e-001	168.418884	59.759054
 362	3.6200e-001	167.541504	59.825479
 363	3.6300e-001	166.168213	59.932780
 364	3.6400e-001	165.061951	59.784602
 365	3.6500e-001	163.612366	59.881684
 366	3.6600e-001	162.343979	59.759054
 367	3.6700e-001	160.856247	59.713068
 368	3.6800e-001	160.102844	59.845917
 369	3.6900e-001	157.337189	59.053932
 370	3.7000e-001	157.613754	59.907232
 371	3.7100e-001	156.135559	59.713068
 372	3.7200e-001	155.258179	59.723287
 373	3.7300e-001	154.104233	59.718177
 374	3.7400e-001	152.864456	59.621095
 375	3.7500e-001	151.443481	59.288973
 376	3.7600e-001	150.623322	59.692630
 377	3.7700e-001	149.126053	59.646643
 378	3.7800e-001	147.886276	59.575109
 379	3.7900e-001	147.113800	59.391165
 380	3.8000e-001	145.692825	59.559781
 381	3.8100e-001	144.357681	59.615986
 382	3.8200e-001	143.165588	59.564890
 383	3.8300e-001	142.030716	59.554671
 384	3.8400e-001	141.010284	59.529123
 385	3.8500e-001	139.675140	59.539342
 386	3.8600e-001	138.492584	59.401384
 387	3.8700e-001	137.128830	59.677301
 388	3.8800e-001	136.041641	59.437151
 389	3.8900e-001	134.840012	59.626205
 390	3.9000e-001	133.581161	59.508685
 391	3.9100e-001	132.427216	59.442260
 392	3.9200e-001	131.320953	59.416712
 393	3.9300e-001	129.909515	59.396274
 394	3.9400e-001	129.051208	59.309411
 395	3.9500e-001	127.658844	59.309411
 396	3.9600e-001	126.457214	59.391165
 397	3.9700e-001	124.912262	59.232768
 398	3.9800e-001	124.216080	59.518904
 399	3.9900e-001	122.652054	59.242987
 400	4.0000e-001	121.650696	59.232768
 401	4.0100e-001	120.277405	59.268535
 402	4.0200e-001	119.266510	59.212329
 403	4.0300e-001	118.026733	59.273644
 404	4.0400e-001	116.767883	59.268535
 405	4.0500e-001	115.976334	59.508685
 406	4.0600e-001	114.297867	58.972179
 407	4.0700e-001	113.115311	59.059042
 408	4.0800e-001	112.180710	59.135686
 409	4.0900e-001	111.198425	59.360507
 410	4.1000e-001	109.672546	59.013056
 411	4.1100e-001	108.537674	59.151014
 412	4.1200e-001	107.393265	59.115247
 413	4.1300e-001	106.153488	59.115247
 414	4.1400e-001	104.866028	59.105028
 415	4.1500e-001	103.731155	59.048823
 416	4.1600e-001	102.357864	58.895536
 417	4.1700e-001	101.613998	59.048823
 418	4.1800e-001	99.973679	59.018165
 419	4.1900e-001	98.972321	58.869988
 420	4.2000e-001	97.618103	58.967070
 421	4.2100e-001	96.368790	58.885316
 422	4.2200e-001	95.214844	59.028385
 423	4.2300e-001	95.205307	58.926193
 424	4.2400e-001	93.250275	58.767796
 425	4.2500e-001	91.609955	58.742248
 426	4.2600e-001	90.532303	58.793344
 427	4.2700e-001	89.311600	58.747358
 428	4.2800e-001	88.119507	58.726920
 429	4.2900e-001	86.450577	58.767796
 430	4.3000e-001	85.906982	58.742248
 431	4.3100e-001	84.552765	58.798454
 432	4.3200e-001	83.389282	58.732029
 433	4.3300e-001	82.025528	58.706481
 434	4.3400e-001	80.785751	58.634947
 435	4.3500e-001	79.822540	58.471441
 436	4.3600e-001	78.315735	58.522536
 437	4.3700e-001	77.304840	58.793344
 438	4.3800e-001	76.284409	58.491879
 439	4.3900e-001	74.987411	58.420345
 440	4.4000e-001	73.614120	58.384578
 441	4.4100e-001	71.516037	58.297715
 442	4.4200e-001	71.287155	58.568523
 443	4.4300e-001	70.180893	58.384578
 444	4.4400e-001	68.960190	58.093332
 445	4.4500e-001	67.491531	58.578742
 446	4.4600e-001	66.385269	58.272167
 447	4.4700e-001	65.460205	58.246619
 448	4.4800e-001	64.086914	58.261948
 449	4.4900e-001	62.847137	58.241510
 450	4.5000e-001	62.046051	58.297715
 451	4.5100e-001	60.310364	58.267058
 452	4.5200e-001	59.299469	58.083113
 453	4.5300e-001	58.088303	58.359030
 454	4.5400e-001	56.943893	58.200633
 455	4.5500e-001	55.665970	58.057565
 456	4.5600e-001	54.502487	58.123990
 457	4.5700e-001	53.358078	58.042236
 458	4.5800e-001	52.089691	57.950264
 459	4.5900e-001	51.574707	58.343701
 460	4.6000e-001	49.543381	57.950264
 461	4.6100e-001	48.637390	57.914497
 462	4.6200e-001	47.492981	57.541498
 463	4.6300e-001	45.537949	57.837853
 464	4.6400e-001	44.736862	58.011579
 465	4.6500e-001	43.506622	57.653908
 466	4.6600e-001	42.343140	57.705004
 467	4.6700e-001	41.189194	57.735662
 468	4.6800e-001	40.159225	57.745881
 469	4.6900e-001	38.290024	57.643689
 470	4.7000e-001	37.755966	57.536388
 471	4.7100e-001	36.592484	57.618141
 472	4.7200e-001	35.333633	57.689675
 473	4.7300e-001	33.845901	57.546607
 474	4.7400e-001	32.806396	57.521059
 475	4.7500e-001	31.518936	57.505731
 476	4.7600e-001	30.355453	57.429087
 477	4.7700e-001	28.953552	57.224704
 478	4.7800e-001	27.866364	57.531279
 479	4.7900e-001	26.617050	57.301348
 480	4.8000e-001	25.787354	57.163389
 481	4.8100e-001	24.032593	57.250252
 482	4.8200e-001	23.345947	57.234923
 483	4.8300e-001	22.087097	57.219594
 484	4.8400e-001	20.513535	57.153170
 485	4.8500e-001	19.645691	57.173608
 486	4.8600e-001	18.253326	57.142951
 487	4.8700e-001	17.118454	57.015211
 488	4.8800e-001	16.040802	57.061198
 489	4.8900e-001	14.848709	56.974335
 490	4.9000e-001	13.332367	56.974335
 491	4.9100e-001	12.502670	57.040759
 492	4.9200e-001	11.272430	56.872143
 493	4.9300e-001	9.670258	56.780171
 494	4.9400e-001	8.888245	56.892582
 495	4.9500e-001	6.704330	56.402062
 496	4.9600e-001	6.494522	56.790390
 497	4.9700e-001	5.216599	56.759733
 498	4.9800e-001	3.852844	56.586007
 499	4.9900e-001	2.593994	56.928349
 500	5.0000e-001	1.516342	56.637103
 501	5.0100e-001	0.467300	56.580897
 502	5.0200e-001	-0.791550	56.534911
 503	5.0300e-001	-1.897812	56.361186
 504	5.0400e-001	-2.479553	56.601336
 505	5.0500e-001	-4.434586	56.325419
 506	5.0600e-001	-5.731583	56.381624
 507	5.0700e-001	-6.589890	56.207898
 508	5.0800e-001	-7.047653	56.586007
 509	5.0900e-001	-9.241104	56.095488
 510	5.1000e-001	-10.175705	55.896214
 511	5.1100e-001	-11.806488	55.952419
 512	5.1200e-001	-12.435913	56.366295
 513	5.1300e-001	-13.532639	56.090378
 514	5.1400e-001	-15.411377	55.860447
 515	5.1500e-001	-16.326904	55.804242
 516	5.1600e-001	-17.375946	55.610078
 517	5.1700e-001	-18.739700	55.640735
 518	5.1800e-001	-19.798279	55.640735
 519	5.1900e-001	-21.228790	55.441462
 520	5.2000e-001	-22.144318	55.221750
 521	5.2100e-001	-23.441315	55.359709
 522	5.2200e-001	-24.480820	55.308613
 523	5.2300e-001	-25.892258	55.078682
 524	5.2400e-001	-27.275085	55.175764
 525	5.2500e-001	-28.209686	54.848751
 526	5.2600e-001	-29.668808	55.012257
 527	5.2700e-001	-30.469894	54.904956
 528	5.2800e-001	-31.538010	54.608601
 529	5.2900e-001	-33.025742	54.445094
 530	5.3000e-001	-34.341812	54.322464
 531	5.3100e-001	-35.266876	54.061876
 532	5.3200e-001	-36.792755	53.964794
 533	5.3300e-001	-37.975311	53.785959
 534	5.3400e-001	-38.995743	53.581576
 535	5.3500e-001	-40.330887	53.331207
 536	5.3600e-001	-41.484833	53.050180
 537	5.3700e-001	-42.953491	52.723167
 538	5.3800e-001	-43.830872	52.595428
 539	5.3900e-001	-44.965744	52.370606
 540	5.4000e-001	-45.185089	52.421702
 541	5.4100e-001	-47.550201	51.670594
 542	5.4200e-001	-48.646927	51.292485
 543	5.4300e-001	-49.839020	51.103431
 544	5.4400e-001	-50.945282	50.597583
 545	5.4500e-001	-52.223206	50.275680
 546	5.4600e-001	-53.462982	50.122392
 547	5.4700e-001	-54.740906	49.223107
 548	5.4800e-001	-55.599213	48.737697
 549	5.4900e-001	-57.067871	48.190972
 550	5.5000e-001	-58.126450	47.439865
 551	5.5100e-001	-59.280396	46.790948
 552	5.5200e-001	-60.710907	46.234005
 553	5.5300e-001	-61.731339	45.324500
 554	5.5400e-001	-62.837601	44.563173
 555	5.5500e-001	-64.182281	43.577025
 556	5.5600e-001	-65.507889	42.575548
 557	5.5700e-001	-66.461563	42.003275
 558	5.5800e-001	-67.720413	40.639018
 559	5.5900e-001	-68.721771	39.433158
 560	5.6000e-001	-69.961548	38.298832
 561	5.6100e-001	-70.924759	37.205383
 562	5.6200e-001	-72.240829	35.856454
 563	5.6300e-001	-73.757172	34.119198
 564	5.6400e-001	-74.691772	32.989982
 565	5.6500e-001	-75.979233	31.503095
 566	5.6600e-001	-77.171326	30.077523
 567	5.6700e-001	-78.163147	28.232966
 568	5.6800e-001	-79.278946	26.792065
 569	5.6900e-001	-80.795288	24.973056
 570	5.7000e-001	-82.006454	23.159156
 571	5.7100e-001	-83.312988	21.437229
 572	5.7200e-001	-84.218979	19.797055
 573	5.7300e-001	-85.678101	17.773662
 574	5.7400e-001	-87.146759	15.929105
 575	5.7500e-001	-87.909698	14.038562
 576	5.7600e-001	-89.025497	12.122471
 577	5.7700e-001	-90.370178	10.114407
 578	5.7800e-001	-91.648102	8.244302
 579	5.7900e-001	-92.573166	6.384416
 580	5.8000e-001	-93.698502	4.468325
 581	5.8100e-001	-95.205307	2.593110
 582	5.8200e-001	-96.330643	0.952936
 583	5.8300e-001	-97.389221	-1.223744
 584	5.8400e-001	-98.781586	-2.664644
 585	5.8500e-001	-100.259781	-4.361024
 586	5.8600e-001	-101.251602	-5.950102
 587	5.8700e-001	-102.472305	-7.416551
 588	5.8800e-001	-103.359222	-8.908547
 589	5.8900e-001	-105.094910	-10.293242
 590	5.9000e-001	-106.153488	-11.519541
 591	5.9100e-001	-107.173920	-12.664086
 592	5.9200e-001	-108.480453	-14.283822
 593	5.9300e-001	-109.539032	-14.743684
 594	5.9400e-001	-110.778809	-15.607202
 595	5.9500e-001	-112.037659	-16.434953
 596	5.9600e-001	-113.325119	-17.186061
 597	5.9700e-001	-114.784241	-17.911621
 598	5.9800e-001	-116.081238	-18.821126
 599	5.9900e-001	-116.853714	-19.286097
 600	6.0000e-001	-118.103027	-19.822603
 601	6.0100e-001	-119.447708	-20.226259
 602	6.0200e-001	-120.573044	-20.635025
 603	6.0300e-001	-121.603012	-20.793422
 604	6.0400e-001	-122.957230	-21.508763
 605	6.0500e-001	-124.320984	-21.840886
 606	6.0600e-001	-125.532150	-22.198556
 607	6.0700e-001	-126.724243	-22.459144
 608	6.0800e-001	-127.897263	-22.801486
 609	6.0900e-001	-128.917694	-23.138718
 610	6.1000e-001	-130.186081	-23.394197
 611	6.1100e-001	-131.521225	-23.624128
 612	6.1200e-001	-132.522583	-23.961360
 613	6.1300e-001	-133.972168	-24.083990
 614	6.1400e-001	-135.059357	-24.426331
 615	6.1500e-001	-136.365891	-24.686920
 616	6.1600e-001	-137.424469	-24.819769
 617	6.1700e-001	-138.826370	-25.054809
 618	6.1800e-001	-139.760971	-25.279631
 619	6.1900e-001	-140.514374	-25.202987
 620	6.2000e-001	-142.240524	-25.443137
 621	6.2100e-001	-143.451691	-25.744602
 622	6.2200e-001	-144.920349	-26.260669
 623	6.2300e-001	-145.635605	-26.189135
 624	6.2400e-001	-146.913528	-26.327094
 625	6.2500e-001	-148.382187	-26.511039
 626	6.2600e-001	-149.450302	-26.694983
 627	6.2700e-001	-150.680542	-26.868709
 628	6.2800e-001	-151.834488	-26.950462
 629	6.2900e-001	-153.121948	-27.154845
 630	6.3000e-001	-153.951645	-27.108859
 631	6.3100e-001	-155.687332	-27.430762
 632	6.3200e-001	-156.517029	-27.492077
 633	6.3300e-001	-157.833099	-27.757775
 634	6.3400e-001	-159.006119	-28.079679
 635	6.3500e-001	-158.910751	-27.456310
 636	6.3600e-001	-161.533356	-28.130774
 637	6.3700e-001	-162.715912	-27.967268
 638	6.3800e-001	-163.974762	-28.447568
 639	6.3900e-001	-165.147781	-28.723485
 640	6.4000e-001	-166.282654	-28.677499
 641	6.4100e-001	-167.331696	-28.621294
 642	6.4200e-001	-168.476105	-28.989183
 643	6.4300e-001	-170.087814	-29.070937
 644	6.4400e-001	-170.955658	-29.106704
 645	6.4500e-001	-172.166824	-29.290648
 646	6.4600e-001	-173.645020	-29.392840
 647	6.4700e-001	-174.560547	-29.423497
 648	6.4800e-001	-175.733566	-29.505251
 649	6.4900e-001	-177.345276	-29.873140
 650	6.5000e-001	-178.337097	-29.893578
 651	6.5100e-001	-178.489685	-29.730072
 652	6.5200e-001	-180.807114	-30.297235
 653	6.5300e-001	-181.922913	-30.097961
 654	6.5400e-001	-182.905197	-30.164386
 655	6.5500e-001	-184.402466	-30.511837
 656	6.5600e-001	-185.527802	-30.639577
 657	6.5700e-001	-186.538696	-30.639577
 658	6.5800e-001	-187.854767	-30.808193
 659	6.5900e-001	-189.085007	-30.644686
 660	6.6000e-001	-190.181732	-30.956370
 661	6.6100e-001	-191.507339	-31.033014
 662	6.6200e-001	-192.623138	-31.165863
 663	6.6300e-001	-193.691254	-31.237397
 664	6.6400e-001	-195.198059	-31.375356
 665	6.6500e-001	-196.323395	-31.564410
 666	6.6600e-001	-197.372437	-31.646163
 667	6.6700e-001	-198.831558	-31.809670
 668	6.6800e-001	-199.823380	-31.835217
 669	6.6900e-001	-201.053619	-31.952738
 670	6.7000e-001	-202.226639	-32.039601
 671	6.7100e-001	-203.380585	-32.131573
 672	6.7200e-001	-204.563141	-32.218436
 673	6.7300e-001	-206.003189	-32.315518
 674	6.7400e-001	-206.918716	-32.514791
 675	6.7500e-001	-207.796097	-32.570997
 676	6.7600e-001	-209.045410	-32.581216
 677	6.7700e-001	-210.475922	-32.662969
 678	6.7800e-001	-212.192535	-33.127940
 679	6.7900e-001	-212.907791	-33.005311
 680	6.8000e-001	-214.328766	-33.179036
 681	6.8100e-001	-215.482712	-33.286337
 682	6.8200e-001	-216.579437	-33.199474
 683	6.8300e-001	-217.828751	-33.449844
 684	6.8400e-001	-218.963623	-33.536707
 685	6.8500e-001	-220.317841	-33.669556
 686	6.8600e-001	-221.538544	-33.771747
 687	6.8700e-001	-222.549438	-33.827952
 688	6.8800e-001	-223.846436	-33.894377
 689	6.8900e-001	-225.048065	-34.103870
 690	6.9000e-001	-226.335526	-34.221390
 691	6.9100e-001	-227.413177	-34.308253
 692	6.9200e-001	-228.691101	-34.461540
 693	6.9300e-001	-229.921341	-34.456430
 694	6.9400e-001	-231.952667	-35.314839
 695	6.9500e-001	-232.133865	-34.369568
 696	6.9600e-001	-233.392715	-35.212648
 697	6.9700e-001	-234.622955	-34.844758
 698	6.9800e-001	-236.463547	-35.376154
 699	6.9900e-001	-236.873627	-35.038922
 700	7.0000e-001	-238.304138	-35.345497
 701	7.0100e-001	-239.601135	-35.427250
 702	7.0200e-001	-240.736008	-35.457907
 703	7.0300e-001	-241.832733	-35.611195
 704	7.0400e-001	-242.795944	-35.600976
 705	7.0500e-001	-244.226456	-35.866673
 706	7.0600e-001	-245.428085	-35.989303
 707	7.0700e-001	-246.667862	-35.984194
 708	7.0800e-001	-247.945786	-36.147700
 709	7.0900e-001	-249.309540	-36.209015
 710	7.1000e-001	-250.349045	-36.357193
 711	7.1100e-001	-251.464844	-36.796616
 712	7.1200e-001	-252.532959	-36.602453
 713	7.1300e-001	-254.554749	-37.036767
 714	7.1400e-001	-254.964828	-36.873260
 715	7.1500e-001	-256.338120	-37.077643
 716	7.1600e-001	-257.387161	-36.934575
 717	7.1700e-001	-259.008408	-37.343341
 718	7.1800e-001	-259.647369	-37.149177
 719	7.1900e-001	-261.087418	-37.471081
 720	7.2000e-001	-262.403488	-37.532395
 721	7.2100e-001	-263.481140	-37.701012
 722	7.2200e-001	-265.045166	-38.002477
 723	7.2300e-001	-266.036987	-37.920723
 724	7.2400e-001	-266.695023	-37.808313
 725	7.2500e-001	-268.287659	-38.109778
 726	7.2600e-001	-269.536972	-37.440423
 727	7.2700e-001	-270.500183	-38.416352
 728	7.2800e-001	-271.730423	-38.467448
 729	7.2900e-001	-273.084641	-38.661612
 730	7.3000e-001	-274.181366	-38.881324
 731	7.3100e-001	-275.449753	-38.830228
 732	7.3200e-001	-276.660919	-39.177679
 733	7.3300e-001	-277.757645	-39.167460
 734	7.3400e-001	-279.130936	-39.264542
 735	7.3500e-001	-280.342102	-39.428048
 736	7.3600e-001	-281.438828	-39.514911
 737	7.3700e-001	-282.859802	-39.657979
 738	7.3800e-001	-283.880234	-39.749952
 739	7.3900e-001	-285.062790	-40.092293
 740	7.4000e-001	-286.369324	-40.051417
 741	7.4100e-001	-287.561417	-39.984992
 742	7.4200e-001	-288.505554	-40.352882
 743	7.4300e-001	-289.831161	-40.383539
 744	7.4400e-001	-290.679932	-40.393758
 745	7.4500e-001	-292.158127	-40.644128
 746	7.4600e-001	-293.626785	-40.945593
 747	7.4700e-001	-294.981003	-41.083551
 748	7.4800e-001	-295.696259	-41.129537
 749	7.4900e-001	-297.126770	-41.267496
 750	7.5000e-001	-298.414230	-41.379907
 751	7.5100e-001	-299.434662	-41.666043
 752	7.5200e-001	-298.652649	-41.620057
 753	7.5300e-001	-297.508240	-41.691591
 754	7.5400e-001	-296.020508	-41.788673
 755	7.5500e-001	-295.085907	-41.911303
 756	7.5600e-001	-293.865204	-41.671153
 757	7.5700e-001	-292.377472	-41.993056
 758	7.5800e-001	-291.538239	-42.120795
 759	7.5900e-001	-290.975571	-42.749273
 760	7.6000e-001	-289.001465	-42.325178
 761	7.6100e-001	-287.475586	-42.131015
 762	7.6200e-001	-286.483765	-42.289411
 763	7.6300e-001	-285.310745	-42.504014
 764	7.6400e-001	-284.004211	-42.529561
 765	7.6500e-001	-282.926559	-42.667520
 766	7.6600e-001	-281.600952	-42.922999
 767	7.6700e-001	-280.590057	-42.733945
 768	7.6800e-001	-279.407501	-42.693068
 769	7.6900e-001	-277.957916	-42.754383
 770	7.7000e-001	-276.947021	-42.871903
 771	7.7100e-001	-275.812149	-42.744164
 772	7.7200e-001	-274.448395	-43.030300
 773	7.7300e-001	-273.370743	-43.045629
 774	7.7400e-001	-272.922516	-43.336875
 775	7.7500e-001	-270.671844	-43.076286
 776	7.7600e-001	-269.870758	-43.224464
 777	7.7700e-001	-268.402100	-43.163149
 778	7.7800e-001	-267.353058	-43.377751
 779	7.7900e-001	-266.160965	-43.520819
 780	7.8000e-001	-264.921188	-43.474833
 781	7.8100e-001	-263.710022	-43.474833
 782	7.8200e-001	-262.279510	-43.433957
 783	7.8300e-001	-261.659622	-43.633230
 784	7.8400e-001	-260.162354	-43.490162
 785	7.8500e-001	-258.827209	-43.525929
 786	7.8600e-001	-257.835388	-43.546367
 787	7.8700e-001	-256.824493	-43.873380
 788	7.8800e-001	-255.336761	-43.837613
 789	7.8900e-001	-255.622864	-44.466091
 790	7.9000e-001	-252.723694	-43.740531
 791	7.9100e-001	-251.941681	-43.863161
 792	7.9200e-001	-250.587463	-43.929585
 793	7.9300e-001	-249.404907	-43.893818
 794	7.9400e-001	-248.107910	-44.067544
 795	7.9500e-001	-246.858597	-44.108421
 796	7.9600e-001	-245.552063	-44.072654
 797	7.9700e-001	-244.617462	-44.052215
 798	7.9800e-001	-243.349075	-44.174845
 799	7.9900e-001	-242.071152	-44.169736
 800	8.0000e-001	-240.402222	-43.551477
 801	8.0100e-001	-239.820480	-44.047106
 802	8.0200e-001	-238.742828	-44.277037
 803	8.0300e-001	-237.264633	-44.343461
 804	8.0400e-001	-235.557556	-43.914257
 805	8.0500e-001	-234.823227	-44.471201
 806	8.0600e-001	-233.573914	-44.363900
 807	8.0700e-001	-232.725143	-44.547844
 808	8.0800e-001	-231.304169	-44.420105
 809	8.0900e-001	-230.083466	-44.425214
 810	8.1000e-001	-229.024887	-44.517187
 811	8.1100e-001	-227.861404	-44.517187
 812	8.1200e-001	-226.640701	-44.527406
 813	8.1300e-001	-225.381851	-44.583611
 814	8.1400e-001	-224.208832	-44.716460
 815	8.1500e-001	-222.845078	-45.503335
 816	8.1600e-001	-221.805573	-44.466091
 817	8.1700e-001	-220.851898	-44.675584
 818	8.1800e-001	-219.402313	-44.736899
 819	8.1900e-001	-217.924118	-44.660255
 820	8.2000e-001	-217.533112	-44.890186
 821	8.2100e-001	-215.721130	-44.767556
 822	8.2200e-001	-214.805603	-44.854419
 823	8.2300e-001	-213.460922	-44.813542
 824	8.2400e-001	-212.316513	-44.537625
 825	8.2500e-001	-211.029053	-44.808433
 826	8.2600e-001	-209.817886	-44.879967
 827	8.2700e-001	-208.549500	-44.895295
 828	8.2800e-001	-207.672119	-44.813542
 829	8.2900e-001	-206.212997	-44.905515
 830	8.3000e-001	-204.601288	-44.757337
 831	8.3100e-001	-203.866959	-44.854419
 832	8.3200e-001	-202.550888	-44.890186
 833	8.3300e-001	-201.234818	-44.956610
 834	8.3400e-001	-200.052261	-44.890186
 835	8.3500e-001	-198.869705	-44.966830
 836	8.3600e-001	-197.353363	-44.910624
 837	8.3700e-001	-196.638107	-44.971939
 838	8.3800e-001	-195.598602	-45.150774
 839	8.3900e-001	-193.958282	-44.844200
 840	8.4000e-001	-192.890167	-45.053692
 841	8.4100e-001	-191.764832	-44.966830
 842	8.4200e-001	-190.544128	-44.966830
 843	8.4300e-001	-189.208984	-44.915734
 844	8.4400e-001	-188.236237	-45.079240
 845	8.4500e-001	-186.891556	-44.961720
 846	8.4600e-001	-185.947418	-44.997487
 847	8.4700e-001	-184.631348	-45.028144
 848	8.4800e-001	-183.496475	-45.125226
 849	8.4900e-001	-182.323456	-45.017925
 850	8.5000e-001	-180.377960	-44.879967
 851	8.5100e-001	-179.843903	-45.074131
 852	8.5200e-001	-178.232193	-45.222308
 853	8.5300e-001	-177.297592	-45.002597
 854	8.5400e-001	-176.868439	-45.334719
 855	8.5500e-001	-174.951553	-45.063912
 856	8.5600e-001	-173.635483	-45.191651
 857	8.5700e-001	-172.986984	-45.166103
 858	8.5800e-001	-171.356201	-44.997487
 859	8.5900e-001	-170.278549	-44.931063
 860	8.6000e-001	-168.819427	-45.288733
 861	8.6100e-001	-167.436600	-44.910624
 862	8.6200e-001	-166.625977	-45.053692
 863	8.6300e-001	-165.271759	-44.997487
 864	8.6400e-001	-164.155960	-45.038364
 865	8.6500e-001	-162.563324	-44.813542
 866	8.6600e-001	-161.952972	-45.069021
 867	8.6700e-001	-160.722733	-45.181432
 868	8.6800e-001	-159.082413	-44.946391
 869	8.6900e-001	-158.195496	-44.905515
 870	8.7000e-001	-156.459808	-44.854419
 871	8.7100e-001	-155.725479	-44.869748
 872	8.7200e-001	-153.980255	-44.420105
 873	8.7300e-001	-153.512955	-44.885076
 874	8.7400e-001	-152.196884	-45.186541
 875	8.7500e-001	-150.957108	-45.028144
 876	8.7600e-001	-149.984360	-44.982158
 877	8.7700e-001	-148.506165	-44.849309
 878	8.7800e-001	-147.352219	-44.849309
 879	8.7900e-001	-146.217346	-44.823761
 880	8.8000e-001	-144.119263	-44.522296
 881	8.8100e-001	-143.947601	-44.813542
 882	8.8200e-001	-142.660141	-44.833981
 883	8.8300e-001	-141.372681	-44.731789
 884	8.8400e-001	-140.361786	-44.823761
 885	8.8500e-001	-139.322281	-45.109898
 886	8.8600e-001	-137.825012	-44.634707
 887	8.8700e-001	-136.499405	-44.900405
 888	8.8800e-001	-135.431290	-44.736899
 889	8.8900e-001	-134.077072	-44.629597
 890	8.9000e-001	-134.315491	-45.324500
 891	8.9100e-001	-132.131577	-44.552954
 892	8.9200e-001	-130.453110	-44.772666
 893	8.9300e-001	-129.337311	-44.573392
 894	8.9400e-001	-128.097534	-44.506968
 895	8.9500e-001	-127.124786	-44.583611
 896	8.9600e-001	-125.780106	-44.573392
 897	8.9700e-001	-124.502182	-44.552954
 898	8.9800e-001	-123.462677	-44.435434
 899	8.9900e-001	-122.146606	-44.323023
 900	9.0000e-001	-121.030807	-44.328132
 901	9.0100e-001	-119.628906	-44.236160
 902	9.0200e-001	-118.255615	-44.169736
 903	9.0300e-001	-117.158890	-44.195283
 904	9.0400e-001	-116.157532	-44.333242
 905	9.0500e-001	-115.060806	-44.011339
 906	9.0600e-001	-114.221573	-44.277037
 907	9.0700e-001	-112.619400	-44.307694
 908	9.0800e-001	-111.446381	-43.898928
 909	9.0900e-001	-110.235214	-44.128859
 910	9.1000e-001	-108.623505	-43.950024
 911	9.1100e-001	-107.784271	-44.133969
 912	9.1200e-001	-106.716156	-43.939805
 913	9.1300e-001	-105.304718	-44.082873
 914	9.1400e-001	-104.217529	-44.006229
 915	9.1500e-001	-103.044510	-43.955133
 916	9.1600e-001	-101.594925	-43.832504
 917	9.1700e-001	-100.555420	-44.016448
 918	9.1800e-001	-99.287033	-43.939805
 919	9.1900e-001	-97.951889	-43.817175
 920	9.2000e-001	-96.855164	-43.771189
 921	9.2100e-001	-95.891953	-44.149297
 922	9.2200e-001	-94.499588	-43.725202
 923	9.2300e-001	-93.259811	-43.704764
 924	9.2400e-001	-92.048645	-43.643449
 925	9.2500e-001	-90.599060	-43.602573
 926	9.2600e-001	-90.894699	-43.939805
 927	9.2700e-001	-88.491440	-43.372642
 928	9.2800e-001	-87.366104	-43.454395
 929	9.2900e-001	-86.240768	-43.510600
 930	9.3000e-001	-84.943771	-43.367532
 931	9.3100e-001	-83.761215	-43.295998
 932	9.3200e-001	-82.588196	-43.163149
 933	9.3300e-001	-81.319809	-43.357313
 934	9.3400e-001	-80.041885	-43.275560
 935	9.3500e-001	-78.811646	-43.178478
 936	9.3600e-001	-77.695847	-43.122272
 937	9.3700e-001	-76.417923	-42.958766
 938	9.3800e-001	-75.302124	-43.076286
 939	9.3900e-001	-74.176788	-43.178478
 940	9.4000e-001	-73.013306	-42.938328
 941	9.4100e-001	-71.916580	-42.999643
 942	9.4200e-001	-70.543289	-42.984314
 943	9.4300e-001	-69.084167	-42.866794
 944	9.4400e-001	-68.120956	-42.805479
 945	9.4500e-001	-67.100525	-42.631753
 946	9.4600e-001	-65.574646	-42.452918
 947	9.4700e-001	-64.630508	-42.611315
 948	9.4800e-001	-63.371658	-42.759492
 949	9.4900e-001	-62.217712	-42.498904
 950	9.5000e-001	-60.958862	-42.447808
 951	9.5100e-001	-59.595108	-42.478466
 952	9.5200e-001	-58.498383	-41.952179
 953	9.5300e-001	-57.382584	-42.258754
 954	9.5400e-001	-55.818558	-42.447808
 955	9.5500e-001	-54.988861	-42.207658
 956	9.5600e-001	-54.073334	-42.366055
 957	9.5700e-001	-52.518845	-42.141234
 958	9.5800e-001	-51.250458	-42.110576
 959	9.5900e-001	-50.201416	-42.064590
 960	9.6000e-001	-48.904419	-41.906193
 961	9.6100e-001	-47.855377	-41.931741
 962	9.6200e-001	-47.121048	-42.207658
 963	9.6300e-001	-45.499802	-41.712029
 964	9.6400e-001	-44.116974	-41.737577
 965	9.6500e-001	-42.772293	-41.599619
 966	9.6600e-001	-41.790009	-41.614947
 967	9.6700e-001	-40.864944	-41.773344
 968	9.6800e-001	-39.300919	-41.405455
 969	9.6900e-001	-38.127899	-41.436112
 970	9.7000e-001	-37.002563	-41.405455
 971	9.7100e-001	-36.554337	-41.742687
 972	9.7200e-001	-34.151077	-41.175524
 973	9.7300e-001	-33.330917	-41.195962
 974	9.7400e-001	-32.129288	-41.098880
 975	9.7500e-001	-31.013489	-41.139757
 976	9.7600e-001	-29.802322	-40.986469
 977	9.7700e-001	-28.505325	-41.042675
 978	9.7800e-001	-27.475357	-41.037565
 979	9.7900e-001	-26.063919	-40.853620
 980	9.8000e-001	-24.795532	-40.582813
 981	9.8100e-001	-24.061203	-40.894497
 982	9.8200e-001	-22.878647	-40.945593
 983	9.8300e-001	-21.448135	-40.618580
 984	9.8400e-001	-20.132065	-40.317115
 985	9.8500e-001	-19.254684	-40.516388
 986	9.8600e-001	-17.929077	-40.470402
 987	9.8700e-001	-16.555786	-40.291567
 988	9.8800e-001	-15.344620	-40.281348
 989	9.8900e-001	-14.066696	-40.214923
 990	9.9000e-001	-13.027191	-40.102513
 991	9.9100e-001	-11.863708	-40.184266
 992	9.9200e-001	-10.366440	-39.944116
 993	9.9300e-001	-9.241104	-39.969664
 994	9.9400e-001	-8.192062	-39.780609
 995	9.9500e-001	-6.904602	-39.831705
 996	9.9600e-001	-5.607605	-39.663089
 997	9.9700e-001	-5.273819	-39.703966
 998	9.9800e-001	-3.213882	-39.668199
 999	9.9900e-001	-2.260208	-39.029501
1000	1.0000e+000	-0.934601	-39.433158
1001	1.0010e+000	0.696182	-39.024392
1002	1.0020e+000	1.182556	-39.208337
1003	1.0030e+000	2.489090	-39.141912
1004	1.0040e+000	3.986359	-39.090816
1005	1.0050e+000	4.692078	-38.983515
1006	1.0060e+000	6.046295	-38.973296
1007	1.0070e+000	7.333755	-38.784242
1008	1.0080e+000	8.544922	-38.835338
1009	1.0090e+000	10.099411	-38.283503
1010	1.0100e+000	10.709763	-38.774023
1011	1.0110e+000	12.159348	-38.452119
1012	1.0120e+000	13.227463	-38.457229
1013	1.0130e+000	14.467239	-38.329489
1014	1.0140e+000	15.621185	-38.375476
1015	1.0150e+000	16.956329	-38.293722
1016	1.0160e+000	18.224716	-38.048463
1017	1.0170e+000	18.663406	-38.186421
1018	1.0180e+000	21.123886	-37.665244
1019	1.0190e+000	21.810532	-37.910504
1020	1.0200e+000	23.078918	-37.879847
1021	1.0210e+000	24.089813	-37.649916
1022	1.0220e+000	25.272369	-37.634587
1023	1.0230e+000	26.502609	-37.532395
1024	1.0240e+000	27.656555	-37.491519
1025	1.0250e+000	28.791428	-37.358670
1026	1.0260e+000	30.231476	-37.588601
1027	1.0270e+000	31.232834	-37.149177
1028	1.0280e+000	32.529831	-37.092972
1029	1.0290e+000	33.588409	-37.041876
1030	1.0300e+000	35.200119	-36.980561
1031	1.0310e+000	36.077499	-37.118520
1032	1.0320e+000	36.840439	-37.082753
1033	1.0330e+000	38.242340	-36.760849
1034	1.0340e+000	39.510727	-36.786397
1035	1.0350e+000	40.864944	-36.582014
1036	1.0360e+000	42.247772	-36.530918
1037	1.0370e+000	43.201447	-36.239673
1038	1.0380e+000	44.384003	-36.418508
1039	1.0390e+000	45.671463	-36.224344
1040	1.0400e+000	46.844482	-36.060837
1041	1.0410e+000	48.131943	-35.933098
1042	1.0420e+000	49.676895	-35.999522
1043	1.0430e+000	50.392151	-35.703167
1044	1.0440e+000	51.794052	-35.703167
1045	1.0450e+000	52.967072	-35.575428
1046	1.0460e+000	53.911209	-35.754263
1047	1.0470e+000	55.265427	-35.575428
1048	1.0480e+000	56.056976	-35.483455
1049	1.0490e+000	57.563782	-35.268853
1050	1.0500e+000	58.879852	-35.033812
1051	1.0510e+000	59.957504	-34.880525
1052	1.0520e+000	61.502457	-34.711909
1053	1.0530e+000	62.284470	-34.834539
1054	1.0540e+000	63.543320	-34.527964
1055	1.0550e+000	65.155029	-34.415554
1056	1.0560e+000	66.080093	-34.027226
1057	1.0570e+000	67.281723	-34.134527
1058	1.0580e+000	68.454742	-34.098760
1059	1.0590e+000	69.694519	-33.572474
1060	1.0600e+000	70.848465	-33.689994
1061	1.0610e+000	72.059631	-33.587802
1062	1.0620e+000	73.223114	-33.628679
1063	1.0630e+000	75.531006	-32.749832
1064	1.0640e+000	75.826645	-33.173927
1065	1.0650e+000	77.018738	-32.295079
1066	1.0660e+000	78.115463	-32.744722
1067	1.0670e+000	79.202652	-32.616983
1068	1.0680e+000	80.289841	-32.427928
1069	1.0690e+000	81.586838	-32.264422
1070	1.0700e+000	82.950592	-32.116244
1071	1.0710e+000	83.894730	-31.952738
1072	1.0720e+000	85.258484	-31.702369
1073	1.0730e+000	86.212158	-31.503095
1074	1.0740e+000	87.327957	-31.390684
1075	1.0750e+000	88.787079	-31.043233
1076	1.0760e+000	90.122223	-30.879727
1077	1.0770e+000	91.133118	-30.614029
1078	1.0780e+000	92.391968	-30.287016
1079	1.0790e+000	93.927383	-30.062194
1080	1.0800e+000	94.842911	-29.975332
1081	1.0810e+000	96.158981	-29.704524
1082	1.0820e+000	97.188950	-29.546127
1083	1.0830e+000	98.333359	-29.290648
1084	1.0840e+000	99.678040	-28.774581
1085	1.0850e+000	100.831985	-28.641732
1086	1.0860e+000	102.119446	-28.483335
1087	1.0870e+000	103.340149	-28.181870
1088	1.0880e+000	104.150772	-27.778214
1089	1.0890e+000	105.571747	-27.481858
1090	1.0900e+000	107.107162	-27.272366
1091	1.0910e+000	107.955933	-26.884038
1092	1.0920e+000	109.586716	-26.618340
1093	1.0930e+000	110.416412	-26.516148
1094	1.0940e+000	111.770630	-25.821246
1095	1.0950e+000	112.829208	-25.586205
1096	1.0960e+000	114.173889	-25.049700
1097	1.0970e+000	115.156174	-24.743125
1098	1.0980e+000	116.510391	-24.339469
1099	1.0990e+000	117.645264	-23.930702
1100	1.1000e+000	118.656158	-23.557703
1101	1.1010e+000	120.067596	-23.062074
1102	1.1020e+000	121.088028	-22.607322
1103	1.1030e+000	122.375488	-22.213885
1104	1.1040e+000	123.701096	-21.631393
1105	1.1050e+000	124.826431	-21.197079
1106	1.1060e+000	125.980377	-20.675902
1107	1.1070e+000	127.305984	-20.302903
1108	1.1080e+000	128.393173	-19.521138
1109	1.1090e+000	129.632950	-19.224782
1110	1.1100e+000	130.414963	-18.473674
1111	1.1110e+000	132.236481	-17.702128
1112	1.1120e+000	133.142471	-17.078760
1113	1.1130e+000	134.410858	-16.363419
1114	1.1140e+000	135.431290	-15.668517
1115	1.1150e+000	136.537552	-15.004272
1116	1.1160e+000	137.767792	-14.242945
1117	1.1170e+000	139.074326	-13.471399
1118	1.1180e+000	140.342712	-12.577223
1119	1.1190e+000	141.534805	-11.836334
1120	1.1200e+000	142.974854	-11.090336
1121	1.1210e+000	144.033432	-9.915134
1122	1.1220e+000	145.235062	-8.928985
1123	1.1230e+000	146.331787	-8.223864
1124	1.1240e+000	147.495270	-7.171291
1125	1.1250e+000	148.906708	-6.507046
1126	1.1260e+000	149.793625	-4.989502
1127	1.1270e+000	151.166916	-4.059559
1128	1.1280e+000	152.273178	-2.869027
1129	1.1290e+000	153.474808	-1.821564
1130	1.1300e+000	154.724121	-0.441978
1131	1.1310e+000	155.830383	0.927388
1132	1.1320e+000	156.974792	2.041276
1133	1.1330e+000	157.756805	3.415752
1134	1.1340e+000	159.559250	4.902639
1135	1.1350e+000	160.579681	6.108499
1136	1.1360e+000	162.000656	7.329688
1137	1.1370e+000	163.469315	9.291765
1138	1.1380e+000	164.070129	10.461858
1139	1.1390e+000	165.424347	12.015170
1140	1.1400e+000	166.673660	13.450961
1141	1.1410e+000	168.256760	14.907190
1142	1.1420e+000	168.848038	16.501378
1143	1.1430e+000	170.040131	18.253963
1144	1.1440e+000	171.422958	19.740849
1145	1.1450e+000	172.939301	21.605845
1146	1.1460e+000	173.873901	23.077403
1147	1.1470e+000	174.951553	24.625605
1148	1.1480e+000	176.467896	26.250450
1149	1.1490e+000	177.259445	27.732227
1150	1.1500e+000	178.518295	29.270210
1151	1.1510e+000	179.901123	30.900165
1152	1.1520e+000	181.112289	32.249093
1153	1.1530e+000	182.075500	33.669556
1154	1.1540e+000	183.429718	35.161552
1155	1.1550e+000	184.621811	36.433837
1156	1.1560e+000	185.728073	37.465971
1157	1.1570e+000	187.349319	39.065268
1158	1.1580e+000	188.341141	39.918568
1159	1.1590e+000	189.428329	40.853620
1160	1.1600e+000	190.963745	41.778454
1161	1.1610e+000	191.965103	42.841246
1162	1.1620e+000	193.214417	43.352203
1163	1.1630e+000	194.463730	44.072654
1164	1.1640e+000	195.789337	44.604050
1165	1.1650e+000	196.752548	45.048583
1166	1.1660e+000	198.144913	45.488006
1167	1.1670e+000	199.432373	45.876334
1168	1.1680e+000	200.729370	46.387292
1169	1.1690e+000	201.892853	46.463936
1170	1.1700e+000	202.980042	46.678538
1171	1.1710e+000	204.286575	46.806277
1172	1.1720e+000	204.753876	46.494593
1173	1.1730e+000	206.670761	47.296797
1174	1.1740e+000	207.452774	47.409207
1175	1.1750e+000	209.054947	47.414317
1176	1.1760e+000	209.922791	47.567604
1177	1.1770e+000	211.181641	47.608481
1178	1.1780e+000	212.516785	47.710672
1179	1.1790e+000	213.813782	47.817973
1180	1.1800e+000	214.900970	47.904836
1181	1.1810e+000	216.045380	47.986589
1182	1.1820e+000	217.266083	48.226739
1183	1.1830e+000	218.515396	47.782206
1184	1.1840e+000	219.860077	48.150096
1185	1.1850e+000	220.842361	48.160315
1186	1.1860e+000	222.320557	48.139877
1187	1.1870e+000	223.388672	48.190972
1188	1.1880e+000	223.913193	48.165425
1189	1.1890e+000	225.696564	48.431123
1190	1.1900e+000	226.984024	48.793902
1191	1.1910e+000	228.290558	48.466890
1192	1.1920e+000	229.263306	48.492437
1193	1.1930e+000	230.541229	48.635506
1194	1.1940e+000	232.324600	48.799012
1195	1.1950e+000	233.001709	48.732588
1196	1.1960e+000	234.231949	48.829670
1197	1.1970e+000	235.385895	49.059600
1198	1.1980e+000	236.415863	48.814341
1199	1.1990e+000	237.913132	48.809231
1200	1.2000e+000	239.171982	49.100477
1201	1.2010e+000	240.144730	48.982957
1202	1.2020e+000	241.508484	49.039162
1203	1.2030e+000	241.889954	48.625286
1204	1.2040e+000	244.035721	49.146463
1205	1.2050e+000	245.170593	49.401942
1206	1.2060e+000	246.086121	49.355956
1207	1.2070e+000	247.249603	49.340627
1208	1.2080e+000	248.756409	49.417271
1209	1.2090e+000	250.062943	49.550120
1210	1.2100e+000	250.978470	49.432600
1211	1.2110e+000	252.265930	49.376394
1212	1.2120e+000	253.372192	49.565449
1213	1.2130e+000	254.621506	49.734065
1214	1.2140e+000	255.756378	49.734065
1215	1.2150e+000	257.005692	49.785160
1216	1.2160e+000	257.997513	49.831147
1217	1.2170e+000	259.389877	49.999763
1218	1.2180e+000	260.620117	49.458147
1219	1.2190e+000	261.564255	49.877133
1220	1.2200e+000	262.775421	49.897571
1221	1.2210e+000	264.368057	50.091735
1222	1.2220e+000	265.216827	50.132612
1223	1.2230e+000	266.609192	50.086625
1224	1.2240e+000	267.667770	50.086625
1225	1.2250e+000	268.859863	50.280789
1226	1.2260e+000	270.042419	50.357433
1227	1.2270e+000	271.444321	50.362543
1228	1.2280e+000	272.703171	50.372762
1229	1.2290e+000	273.714066	50.490282
1230	1.2300e+000	274.438858	50.188817
1231	1.2310e+000	276.155472	50.531159
1232	1.2320e+000	277.376175	50.633350
1233	1.2330e+000	278.606415	50.817295
1234	1.2340e+000	279.960632	50.735542
1235	1.2350e+000	280.265808	50.541378
1236	1.2360e+000	282.182693	50.914377
1237	1.2370e+000	283.346176	50.934815
1238	1.2380e+000	284.519196	51.052335
1239	1.2390e+000	285.854340	51.154527
1240	1.2400e+000	286.645889	51.098322
1241	1.2410e+000	287.685394	51.062555
1242	1.2420e+000	289.192200	51.236280
1243	1.2430e+000	290.689468	51.108541
1244	1.2440e+000	291.633606	51.430444
1245	1.2450e+000	292.825699	51.455992
1246	1.2460e+000	293.912888	51.266938
1247	1.2470e+000	295.171738	51.542855
1248	1.2480e+000	296.516418	51.481540
1249	1.2490e+000	298.042297	52.012936
1250	1.2500e+000	298.957825	52.033374
1251	1.2510e+000	299.987793	51.619498
1252	1.2520e+000	299.415588	51.813662
1253	1.2530e+000	298.013687	51.864758
1254	1.2540e+000	296.773911	51.813662
1255	1.2550e+000	295.629501	51.920963
1256	1.2560e+000	294.303894	51.859649
1257	1.2570e+000	293.302536	51.619498
1258	1.2580e+000	292.043686	51.777895
1259	1.2590e+000	290.613174	52.043593
1260	1.2600e+000	289.649963	51.987388
1261	1.2610e+000	289.430618	52.125346
1262	1.2620e+000	287.084579	52.084470
1263	1.2630e+000	286.016464	52.007826
1264	1.2640e+000	284.719467	52.069141
1265	1.2650e+000	284.452438	52.319510
1266	1.2660e+000	282.506943	52.048703
1267	1.2670e+000	279.817581	51.476430
1268	1.2680e+000	280.170441	52.064032
1269	1.2690e+000	278.768539	52.089579
1270	1.2700e+000	277.719498	52.156004
1271	1.2710e+000	276.432037	52.089579
1272	1.2720e+000	275.125504	52.186661
1273	1.2730e+000	273.904800	52.079360
1274	1.2740e+000	272.760391	52.043593
1275	1.2750e+000	271.730423	52.150894
1276	1.2760e+000	270.347595	52.186661
1277	1.2770e+000	268.812180	52.130456
1278	1.2780e+000	268.335342	52.156004
1279	1.2790e+000	266.761780	52.069141
1280	1.2800e+000	265.560150	52.074251
1281	1.2810e+000	264.806747	52.360387
1282	1.2820e+000	263.195038	52.150894
1283	1.2830e+000	262.107849	52.293963
1284	1.2840e+000	260.887146	52.201990
1285	1.2850e+000	259.809494	52.559661
1286	1.2860e+000	258.407593	52.299072
1287	1.2870e+000	257.282257	52.345058
1288	1.2880e+000	255.832672	52.166223
1289	1.2890e+000	254.631042	52.258195
1290	1.2900e+000	253.658295	52.237757
1291	1.2910e+000	252.428055	52.334839
1292	1.2920e+000	252.342224	52.861126
1293	1.2930e+000	250.062943	52.273524
1294	1.2940e+000	248.737335	52.350168
1295	1.2950e+000	247.621536	52.176442
1296	1.2960e+000	246.725082	52.462579
1297	1.2970e+000	245.256424	52.304182
1298	1.2980e+000	244.054794	52.293963
1299	1.2990e+000	242.834091	52.304182
1300	1.3000e+000	241.613388	52.278634
1301	1.3010e+000	240.383148	52.319510
1302	1.3020e+000	239.286423	52.462579
1303	1.3030e+000	237.159729	52.207100
1304	1.3040e+000	236.883163	52.309291
1305	1.3050e+000	235.700607	52.334839
1306	1.3060e+000	234.060287	52.380825
1307	1.3070e+000	233.201981	52.196881
1308	1.3080e+000	232.257843	52.559661
1309	1.3090e+000	230.836868	52.217319
1310	1.3100e+000	229.740143	52.299072
1311	1.3110e+000	228.271484	52.339949
1312	1.3120e+000	226.306915	52.048703
1313	1.3130e+000	226.163864	52.355277
1314	1.3140e+000	224.857330	52.345058
1315	1.3150e+000	223.789215	52.304182
1316	1.3160e+000	222.387314	52.370606
1317	1.3170e+000	221.271515	52.385935
1318	1.3180e+000	219.993591	52.273524
1319	1.3190e+000	218.868256	52.380825
1320	1.3200e+000	217.580795	52.355277
1321	1.3210e+000	216.350555	52.304182
1322	1.3220e+000	215.044022	52.293963
1323	1.3230e+000	214.004517	52.319510
1324	1.3240e+000	213.289261	52.437031
1325	1.3250e+000	211.496353	52.426812
1326	1.3260e+000	210.504532	52.457469
1327	1.3270e+000	209.159851	52.380825
1328	1.3280e+000	207.986832	52.345058
1329	1.3290e+000	206.899643	52.304182
1330	1.3300e+000	205.411911	52.258195
1331	1.3310e+000	204.553604	52.319510
1332	1.3320e+000	203.256607	52.156004
1333	1.3330e+000	202.093124	52.263305
1334	1.3340e+000	200.605392	52.191771
1335	1.3350e+000	199.670792	52.227538
1336	1.3360e+000	198.278427	52.212209
1337	1.3370e+000	197.200775	52.293963
1338	1.3380e+000	196.247101	52.186661
1339	1.3390e+000	193.452835	51.813662
1340	1.3400e+000	193.624496	52.048703
1341	1.3410e+000	192.708969	52.605647
1342	1.3420e+000	191.268921	52.452359
1343	1.3430e+000	189.867020	52.324620
1344	1.3440e+000	188.722610	52.222428
1345	1.3450e+000	187.673569	52.140675
1346	1.3460e+000	186.462402	52.242867
1347	1.3470e+000	185.222626	52.145785
1348	1.3480e+000	183.992386	52.309291
1349	1.3490e+000	182.914734	52.104908
1350	1.3500e+000	181.627274	52.247976
1351	1.3510e+000	180.263519	52.166223
1352	1.3520e+000	179.290771	52.406373
1353	1.3530e+000	178.098679	52.089579
1354	1.3540e+000	176.677704	51.992497
1355	1.3550e+000	175.638199	52.099799
1356	1.3560e+000	174.493790	52.125346
1357	1.3570e+000	174.093246	52.385935
1358	1.3580e+000	171.928406	52.421702
1359	1.3590e+000	170.946121	52.125346
1360	1.3600e+000	169.630051	52.110018
1361	1.3610e+000	168.371201	52.130456
1362	1.3620e+000	167.341232	51.987388
1363	1.3630e+000	165.910721	52.191771
1364	1.3640e+000	165.042877	52.023155
1365	1.3650e+000	163.621902	52.033374
1366	1.3660e+000	162.429810	51.992497
1367	1.3670e+000	160.827637	51.920963
1368	1.3680e+000	160.112381	51.915854
1369	1.3690e+000	158.596039	52.130456
1370	1.3700e+000	157.556534	52.012936
1371	1.3710e+000	156.440735	51.874977
1372	1.3720e+000	155.076981	51.905635
1373	1.3730e+000	154.066086	52.033374
1374	1.3740e+000	152.978897	51.936292
1375	1.3750e+000	151.805878	51.767676
1376	1.3760e+000	150.299072	51.726800
1377	1.3770e+000	149.230957	51.977169
1378	1.3780e+000	148.019791	51.874977
1379	1.3790e+000	146.837234	51.869868
1380	1.3800e+000	145.483017	51.660375
1381	1.3810e+000	144.443512	51.777895
1382	1.3820e+000	143.547058	52.099799
1383	1.3830e+000	141.849518	51.977169
1384	1.3840e+000	140.981674	51.762567
1385	1.3850e+000	139.665604	51.813662
1386	1.3860e+000	138.425827	51.563293
1387	1.3870e+000	136.804581	51.655265
1388	1.3880e+000	136.165619	51.665485
1389	1.3890e+000	134.782791	51.834101
1390	1.3900e+000	133.600235	51.757457
1391	1.3910e+000	132.427216	51.650156
1392	1.3920e+000	131.273270	51.634827
1393	1.3930e+000	129.690170	51.655265
1394	1.3940e+000	128.746033	51.507088
1395	1.3950e+000	127.668381	51.512197
1396	1.3960e+000	126.419067	51.599060
1397	1.3970e+000	125.427246	51.517307
1398	1.3980e+000	124.082565	51.578622
1399	1.3990e+000	122.776031	51.415115
1400	1.4000e+000	121.555328	51.537745
1401	1.4010e+000	120.267868	51.568403
1402	1.4020e+000	119.123459	51.389567
1403	1.4030e+000	117.845535	51.593951
1404	1.4040e+000	117.340088	51.466211
1405	1.4050e+000	115.604401	51.481540
1406	1.4060e+000	114.488602	51.435554
1407	1.4070e+000	113.153458	51.425334
1408	1.4080e+000	112.266541	51.410006
1409	1.4090e+000	111.007690	51.307814
1410	1.4100e+000	109.586716	51.338472
1411	1.4110e+000	108.404160	51.507088
1412	1.4120e+000	107.145309	51.394677
1413	1.4130e+000	106.019974	51.323143
1414	1.4140e+000	104.722977	51.088102
1415	1.4150e+000	103.855133	51.333362
1416	1.4160e+000	103.387833	51.430444
1417	1.4170e+000	101.451874	51.205623
1418	1.4180e+000	100.069046	51.318033
1419	1.4190e+000	98.819733	51.072774
1420	1.4200e+000	97.723007	51.134089
1421	1.4210e+000	96.530914	51.103431
1422	1.4220e+000	95.424652	51.118760
1423	1.4230e+000	93.946457	50.934815
1424	1.4240e+000	92.973709	50.669117
1425	1.4250e+000	91.733932	51.088102
1426	1.4260e+000	90.293884	51.205623
1427	1.4270e+000	89.206696	51.042116
1428	1.4280e+000	88.005066	50.592473
1429	1.4290e+000	87.203979	51.108541
1430	1.4300e+000	85.630417	50.776418
1431	1.4310e+000	85.401535	51.256718
1432	1.4320e+000	83.150864	50.945034
1433	1.4330e+000	81.968307	50.934815
1434	1.4340e+000	80.842972	50.801966
1435	1.4350e+000	79.679489	50.863281
1436	1.4360e+000	78.363419	50.761090
1437	1.4370e+000	77.161789	50.847952
1438	1.4380e+000	75.988770	50.653788
1439	1.4390e+000	75.006485	50.837733
1440	1.4400e+000	73.680878	50.735542
1441	1.4410e+000	72.469711	50.674227
1442	1.4420e+000	71.134567	50.771309
1443	1.4430e+000	69.942474	50.965473
1444	1.4440e+000	68.817139	50.684446
1445	1.4450e+000	67.367554	50.505611
1446	1.4460e+000	66.900253	50.623131
1447	1.4470e+000	65.326691	50.459624
1448	1.4480e+000	63.953400	50.224584
1449	1.4490e+000	62.818527	50.474953
1450	1.4500e+000	61.540604	50.520939
1451	1.4510e+000	60.358047	50.454515
1452	1.4520e+000	59.242249	50.347214
1453	1.4530e+000	58.012009	50.413638
1454	1.4540e+000	56.638718	50.505611
1455	1.4550e+000	55.608749	50.316556
1456	1.4560e+000	54.321289	50.229694
1457	1.4570e+000	53.243637	50.326775
1458	1.4580e+000	52.108765	50.531159
1459	1.4590e+000	50.792694	50.336995
1460	1.4600e+000	49.552917	50.137721
1461	1.4610e+000	48.542023	50.301228
1462	1.4620e+000	47.178268	50.096845
1463	1.4630e+000	46.300888	50.101954
1464	1.4640e+000	44.679642	50.066187
1465	1.4650e+000	43.249130	49.657421
1466	1.4660e+000	42.514801	50.352323
1467	1.4670e+000	41.131973	49.861804
1468	1.4680e+000	39.958954	49.958886
1469	1.4690e+000	38.604736	49.974215
1470	1.4700e+000	37.641525	49.872023
1471	1.4710e+000	36.420822	49.866914
1472	1.4720e+000	35.247803	49.642092
1473	1.4730e+000	34.303665	49.826037
1474	1.4740e+000	32.863617	49.938448
1475	1.4750e+000	31.576157	49.790270
1476	1.4760e+000	30.364990	49.764722
1477	1.4770e+000	29.144287	49.626763
1478	1.4780e+000	28.009415	49.596106
1479	1.4790e+000	26.674271	49.539901
1480	1.4800e+000	25.663376	49.539901
1481	1.4810e+000	24.328232	49.570558
1482	1.4820e+000	22.916794	49.447928
1483	1.4830e+000	21.877289	49.279312
1484	1.4840e+000	20.818710	49.877133
1485	1.4850e+000	19.550323	49.463257
1486	1.4860e+000	17.738342	49.100477
1487	1.4870e+000	17.194748	49.335518
1488	1.4880e+000	15.926361	48.957409
1489	1.4890e+000	14.610291	49.192449
1490	1.4900e+000	12.702942	49.049381
1491	1.4910e+000	12.369156	49.131135
1492	1.4920e+000	11.262894	49.095368
1493	1.4930e+000	10.089874	49.013614
1494	1.4940e+000	8.811951	49.074929
1495	1.4950e+000	7.562637	48.936971
1496	1.4960e+000	6.685257	49.034053
1497	1.4970e+000	5.092621	48.972738
1498	1.4980e+000	4.005432	48.885875
1499	1.4990e+000	2.822876	49.172011
1500	1.5000e+000	1.831055	48.809231
1501	1.5010e+000	-0.152588	48.635506
1502	1.5020e+000	-0.772476	48.952299
1503	1.5030e+000	-2.088547	48.543533
1504	1.5040e+000	-3.232956	48.742807
1505	1.5050e+000	-3.681183	48.650834
1506	1.5060e+000	-5.311966	48.558862
1507	1.5070e+000	-6.704330	48.512876
1508	1.5080e+000	-7.762909	48.144986
1509	1.5090e+000	-9.250641	48.344260
1510	1.5100e+000	-10.547638	48.538424
1511	1.5110e+000	-11.396408	48.277835
1512	1.5120e+000	-12.788773	48.190972
1513	1.5130e+000	-13.999939	48.359588
1514	1.5140e+000	-14.991760	48.160315
1515	1.5150e+000	-16.145706	48.104110
1516	1.5160e+000	-16.584396	48.620177
1517	1.5170e+000	-18.777847	47.904836
1518	1.5180e+000	-19.969940	47.884398
1519	1.5190e+000	-21.286011	48.308493
1520	1.5200e+000	-21.324158	47.782206
1521	1.5210e+000	-23.660660	47.572714
1522	1.5220e+000	-24.642944	47.516508
1523	1.5230e+000	-25.892258	47.419426
1524	1.5240e+000	-27.122498	47.409207
1525	1.5250e+000	-28.209686	47.281468
1526	1.5260e+000	-29.392242	47.153728
1527	1.5270e+000	-30.670166	47.020879
1528	1.5280e+000	-31.700134	47.061756
1529	1.5290e+000	-33.149719	46.847154
1530	1.5300e+000	-34.275055	46.596785
1531	1.5310e+000	-35.667419	46.581456
1532	1.5320e+000	-36.678314	46.458826
1533	1.5330e+000	-37.841797	46.157361
1534	1.5340e+000	-39.300919	45.850786
1535	1.5350e+000	-41.198730	45.564650
1536	1.5360e+000	-41.351318	45.625965
1537	1.5370e+000	-42.753220	45.452239
1538	1.5380e+000	-44.107437	44.879967
1539	1.5390e+000	-45.070648	44.895295
1540	1.5400e+000	-46.234131	44.706241
1541	1.5410e+000	-47.502518	44.277037
1542	1.5420e+000	-48.704147	44.118640
1543	1.5430e+000	-49.753189	43.643449
1544	1.5440e+000	-51.059723	43.142711
1545	1.5450e+000	-52.165985	42.856574
1546	1.5460e+000	-53.234100	42.350726
1547	1.5470e+000	-54.693222	41.926631
1548	1.5480e+000	-55.961609	41.487208
1549	1.5490e+000	-56.991577	40.971141
1550	1.5500e+000	-58.469772	40.025869
1551	1.5510e+000	-59.518814	39.642651
1552	1.5520e+000	-60.358047	38.911981
1553	1.5530e+000	-61.578751	38.252846
1554	1.5540e+000	-62.961578	37.450642
1555	1.5550e+000	-63.858032	36.628000
1556	1.5560e+000	-65.259933	35.447688
1557	1.5570e+000	-66.576004	34.778334
1558	1.5580e+000	-67.691803	33.807514
1559	1.5590e+000	-68.750381	32.662969
1560	1.5600e+000	-70.009232	31.528643
1561	1.5610e+000	-71.001053	30.399426
1562	1.5620e+000	-72.422028	29.111813
1563	1.5630e+000	-73.757172	27.323461
1564	1.5640e+000	-74.882507	26.439505
1565	1.5650e+000	-75.626373	25.141672
1566	1.5660e+000	-77.390671	23.399306
1567	1.5670e+000	-78.277588	21.876653
1568	1.5680e+000	-79.498291	20.231369
1569	1.5690e+000	-80.652237	18.494113
1570	1.5700e+000	-81.739426	16.884596
1571	1.5710e+000	-83.189011	15.116683
1572	1.5720e+000	-84.466934	13.379427
1573	1.5730e+000	-85.372925	11.683047
1574	1.5740e+000	-86.650848	9.429724
1575	1.5750e+000	-87.842941	7.830426
1576	1.5760e+000	-88.911057	6.057403
1577	1.5770e+000	-90.303421	4.074887
1578	1.5780e+000	-91.342926	2.092372
1579	1.5790e+000	-92.639923	0.222267
1580	1.5800e+000	-93.698502	-1.622291
1581	1.5810e+000	-95.367432	-3.461738
1582	1.5820e+000	-96.187592	-5.408487
1583	1.5830e+000	-97.484589	-7.176400
1584	1.5840e+000	-98.733902	-8.995410
1585	1.5850e+000	-99.620819	-10.533392
1586	1.5860e+000	-101.060867	-12.280868
1587	1.5870e+000	-102.510452	-13.859727
1588	1.5880e+000	-103.311539	-15.453915
1589	1.5890e+000	-104.970932	-16.997007
1590	1.5900e+000	-106.410980	-18.105785
1591	1.5910e+000	-106.849670	-19.163467
1592	1.5920e+000	-108.509064	-20.655464
1593	1.5930e+000	-109.691620	-21.396352
1594	1.5940e+000	-110.492706	-22.418268
1595	1.5950e+000	-112.304688	-23.429964
1596	1.5960e+000	-113.258362	-24.339469
1597	1.5970e+000	-114.402771	-24.906632
1598	1.5980e+000	-115.976334	-25.637301
1599	1.5990e+000	-116.863251	-26.316875
1600	1.6000e+000	-118.131638	-26.710312
1601	1.6010e+000	-119.524002	-27.394995
1602	1.6020e+000	-120.573044	-27.834419
1603	1.6030e+000	-121.793747	-28.350486
1604	1.6040e+000	-123.052597	-28.779691
1605	1.6050e+000	-124.368668	-29.070937
1606	1.6060e+000	-125.350952	-29.449045
1607	1.6070e+000	-126.600266	-29.673867
1608	1.6080e+000	-127.983093	-29.995770
1609	1.6090e+000	-129.003525	-30.435193
1610	1.6100e+000	-130.023956	-30.716220
1611	1.6110e+000	-131.406784	-31.043233
1612	1.6120e+000	-132.656097	-31.262945
1613	1.6130e+000	-133.848190	-31.406013
1614	1.6140e+000	-134.935379	-31.666601
1615	1.6150e+000	-136.346817	-31.881204
1616	1.6160e+000	-137.634277	-32.121354
1617	1.6170e+000	-138.750076	-32.453476
1618	1.6180e+000	-139.560699	-32.305299
1619	1.6190e+000	-141.143799	-32.836695
1620	1.6200e+000	-142.936707	-33.168817
1621	1.6210e+000	-143.356323	-33.173927
1622	1.6220e+000	-144.863129	-33.444734
1623	1.6230e+000	-146.055222	-33.521378
1624	1.6240e+000	-146.389008	-33.424296
1625	1.6250e+000	-148.420334	-33.950582
1626	1.6260e+000	-149.488449	-34.175404
1627	1.6270e+000	-150.318146	-34.200951
1628	1.6280e+000	-151.672363	-34.379787
1629	1.6290e+000	-153.150558	-34.604608
1630	1.6300e+000	-154.190063	-34.630156
1631	1.6310e+000	-155.677795	-34.967388
1632	1.6320e+000	-156.497955	-35.146223
1633	1.6330e+000	-157.632828	-35.233086
1634	1.6340e+000	-159.130096	-35.427250
1635	1.6350e+000	-160.274506	-35.309730
1636	1.6360e+000	-161.399841	-35.703167
1637	1.6370e+000	-162.782669	-35.754263
1638	1.6380e+000	-163.726807	-35.856454
1639	1.6390e+000	-165.081024	-35.938208
1640	1.6400e+000	-165.615082	-35.861564
1641	1.6410e+000	-167.541504	-36.270330
1642	1.6420e+000	-168.552399	-36.668877
1643	1.6430e+000	-169.878006	-36.510480
1644	1.6440e+000	-170.898438	-36.673987
1645	1.6450e+000	-172.281265	-36.822164
1646	1.6460e+000	-173.807144	-36.893698
1647	1.6470e+000	-174.694061	-37.072534
1648	1.6480e+000	-176.334381	-37.302465
1649	1.6490e+000	-177.154541	-37.328012
1650	1.6500e+000	-178.298950	-37.317793
1651	1.6510e+000	-179.433823	-37.578382
1652	1.6520e+000	-180.521011	-37.593710
1653	1.6530e+000	-181.932449	-37.358670
1654	1.6540e+000	-183.172226	-37.864518
1655	1.6550e+000	-184.078217	-37.956490
1656	1.6560e+000	-185.146332	-37.884956
1657	1.6570e+000	-186.643600	-38.390804
1658	1.6580e+000	-187.988281	-38.339709
1659	1.6590e+000	-188.989639	-38.303942
1660	1.6600e+000	-190.334320	-38.467448
1661	1.6610e+000	-191.507339	-38.676941
1662	1.6620e+000	-192.718506	-38.768913
1663	1.6630e+000	-193.996429	-38.641174
1664	1.6640e+000	-194.959641	-38.794461
1665	1.6650e+000	-196.428299	-39.085707
1666	1.6660e+000	-197.677612	-39.111255
1667	1.6670e+000	-198.440552	-39.126583
1668	1.6680e+000	-200.099945	-39.530240
1669	1.6690e+000	-201.025009	-39.417829
1670	1.6700e+000	-202.236176	-39.606884
1671	1.6710e+000	-203.838348	-39.816376
1672	1.6720e+000	-204.448700	-39.729513
1673	1.6730e+000	-205.965042	-40.010540
1674	1.6740e+000	-206.880569	-40.082074
1675	1.6750e+000	-208.530426	-40.209814
1676	1.6760e+000	-209.407806	-40.266019
1677	1.6770e+000	-210.533142	-40.286457
1678	1.6780e+000	-211.257935	-40.475512
1679	1.6790e+000	-212.869644	-40.613470
1680	1.6800e+000	-214.090347	-40.649237
1681	1.6810e+000	-215.539932	-40.858730
1682	1.6820e+000	-216.693878	-40.899607
1683	1.6830e+000	-217.657089	-40.894497
1684	1.6840e+000	-219.116211	-41.211291
1685	1.6850e+000	-220.098495	-41.247058
1686	1.6860e+000	-221.414566	-41.369688
1687	1.6870e+000	-224.189758	-41.875536
1688	1.6880e+000	-223.493576	-41.517865
1689	1.6890e+000	-225.143433	-41.666043
1690	1.6900e+000	-226.173401	-41.875536
1691	1.6910e+000	-227.479935	-41.829549
1692	1.6920e+000	-228.567123	-41.967508
1693	1.6930e+000	-229.940414	-42.417151
1694	1.6940e+000	-230.951309	-42.253644
1695	1.6950e+000	-232.362747	-42.284302
1696	1.6960e+000	-233.383179	-42.447808
1697	1.6970e+000	-234.737396	-42.565329
1698	1.6980e+000	-235.996246	-42.723725
1699	1.6990e+000	-237.121582	-42.754383
1700	1.7000e+000	-238.256454	-42.815698
1701	1.7010e+000	-239.391327	-42.994533
1702	1.7020e+000	-240.707397	-43.096724
1703	1.7030e+000	-242.538452	-43.377751
1704	1.7040e+000	-242.910385	-43.428847
1705	1.7050e+000	-244.369507	-43.393080
1706	1.7060e+000	-245.351791	-43.628120
1707	1.7070e+000	-246.677399	-43.653668
1708	1.7080e+000	-248.003006	-43.791627
1709	1.7090e+000	-249.023438	-43.904038
1710	1.7100e+000	-250.282288	-44.057325
1711	1.7110e+000	-251.283646	-44.195283
1712	1.7120e+000	-252.780914	-44.149297
1713	1.7130e+000	-254.001617	-44.297475
1714	1.7140e+000	-255.689621	-44.614269
1715	1.7150e+000	-256.099701	-44.496749
1716	1.7160e+000	-257.377625	-44.757337
1717	1.7170e+000	-258.827209	-44.721570
1718	1.7180e+000	-259.780884	-45.063912
1719	1.7190e+000	-261.278152	-44.844200
1720	1.7200e+000	-262.308121	-45.130336
1721	1.7210e+000	-263.366699	-45.288733
1722	1.7220e+000	-264.568329	-45.482897
1723	1.7230e+000	-265.712738	-45.488006
1724	1.7240e+000	-267.076492	-45.712828
1725	1.7250e+000	-268.344879	-45.886553
1726	1.7260e+000	-269.479752	-45.973416
1727	1.7270e+000	-270.662308	-45.983635
1728	1.7280e+000	-271.835327	-46.188018
1729	1.7290e+000	-272.998810	-46.264662
1730	1.7300e+000	-274.372101	-46.627442
1731	1.7310e+000	-275.573730	-46.617223
1732	1.7320e+000	-276.737213	-46.688757
1733	1.7330e+000	-278.320313	-46.928907
1734	1.7340e+000	-279.054642	-46.836935
1735	1.7350e+000	-280.342102	-46.990222
1736	1.7360e+000	-281.496048	-47.368331
1737	1.7370e+000	-282.602310	-47.337673
1738	1.7380e+000	-283.985138	-47.368331
1739	1.7390e+000	-285.129547	-47.455193
1740	1.7400e+000	-286.331177	-47.782206
1741	1.7410e+000	-287.351608	-47.736220
1742	1.7420e+000	-288.753510	-48.012137
1743	1.7430e+000	-289.850235	-48.139877
1744	1.7440e+000	-291.137695	-48.180753
1745	1.7450e+000	-292.339325	-48.523095
1746	1.7460e+000	-293.369293	-48.446451
1747	1.7470e+000	-294.456482	-48.753026
1748	1.7480e+000	-295.991898	-48.758135
1749	1.7490e+000	-297.050476	-48.972738
1750	1.7500e+000	-297.479630	-48.640615
1751	1.7510e+000	-299.549103	-49.223107
1752	1.7520e+000	-298.910141	-49.207778
1753	1.7530e+000	-297.451019	-49.294641
1754	1.7540e+000	-296.068192	-49.601216
1755	1.7550e+000	-295.019150	-49.534791
1756	1.7560e+000	-293.836594	-49.580777
1757	1.7570e+000	-292.663574	-49.780051
1758	1.7580e+000	-291.442871	-49.785160
1759	1.7590e+000	-290.136337	-49.923119
1760	1.7600e+000	-289.344788	-50.025310
1761	1.7610e+000	-287.637711	-49.897571
1762	1.7620e+000	-286.464691	-49.872023
1763	1.7630e+000	-285.530090	-49.923119
1764	1.7640e+000	-284.214020	-50.158159
1765	1.7650e+000	-283.117294	-50.592473
1766	1.7660e+000	-281.400681	-50.142831
1767	1.7670e+000	-280.818939	-50.372762
1768	1.7680e+000	-279.159546	-50.342104
1769	1.7690e+000	-278.072357	-50.434077
1770	1.7700e+000	-276.699066	-50.434077
1771	1.7710e+000	-275.545120	-50.546487
1772	1.7720e+000	-274.410248	-50.597583
1773	1.7730e+000	-273.399353	-50.755980
1774	1.7740e+000	-272.102356	-50.750870
1775	1.7750e+000	-270.996094	-50.791747
1776	1.7760e+000	-269.889832	-50.551597
1777	1.7770e+000	-268.659592	-51.261828
1778	1.7780e+000	-267.601013	-50.827514
1779	1.7790e+000	-266.265869	-51.016568
1780	1.7800e+000	-265.169144	-50.704884
1781	1.7810e+000	-263.700485	-51.093212
1782	1.7820e+000	-262.527466	-51.108541
1783	1.7830e+000	-261.383057	-51.195404
1784	1.7840e+000	-260.152817	-51.210732
1785	1.7850e+000	-258.960724	-51.164746
1786	1.7860e+000	-257.682800	-51.210732
1787	1.7870e+000	-256.690979	-51.323143
1788	1.7880e+000	-255.460739	-51.410006
1789	1.7890e+000	-253.925323	-51.287376
1790	1.7900e+000	-252.952576	-51.353800
1791	1.7910e+000	-251.712799	-51.476430
1792	1.7920e+000	-250.377655	-51.486649
1793	1.7930e+000	-249.366760	-51.624608
1794	1.7940e+000	-248.126984	-51.455992
1795	1.7950e+000	-246.992111	-51.696142
1796	1.7960e+000	-245.857239	-51.762567
1797	1.7970e+000	-244.598389	-51.645046
1798	1.7980e+000	-243.349075	-51.716580
1799	1.7990e+000	-242.156982	-51.910744
1800	1.8000e+000	-241.003036	-51.839210
1801	1.8010e+000	-239.887238	-51.864758
1802	1.8020e+000	-238.552094	-51.977169
1803	1.8030e+000	-237.464905	-51.931183
1804	1.8040e+000	-236.196518	-51.972059
1805	1.8050e+000	-235.109329	-52.018045
1806	1.8060e+000	-233.812332	-52.048703
1807	1.8070e+000	-232.648849	-52.242867
1808	1.8080e+000	-231.275558	-51.777895
1809	1.8090e+000	-230.064392	-52.084470
1810	1.8100e+000	-228.919983	-52.140675
1811	1.8110e+000	-227.794647	-52.319510
1812	1.8120e+000	-226.516724	-52.130456
1813	1.8130e+000	-225.524902	-52.058922
1814	1.8140e+000	-224.227905	-52.120237
1815	1.8150e+000	-223.045349	-52.304182
1816	1.8160e+000	-221.834183	-52.171333
1817	1.8170e+000	-220.460892	-52.421702
1818	1.8180e+000	-219.326019	-52.314401
1819	1.8190e+000	-218.143463	-52.355277
1820	1.8200e+000	-216.941833	-52.324620
1821	1.8210e+000	-215.787888	-52.268415
1822	1.8220e+000	-214.471817	-52.350168
1823	1.8230e+000	-213.441849	-52.380825
1824	1.8240e+000	-211.391449	-52.288853
1825	1.8250e+000	-211.057663	-52.426812
1826	1.8260e+000	-209.426880	-52.406373
1827	1.8270e+000	-208.730698	-52.421702
1828	1.8280e+000	-208.292007	-52.728277
1829	1.8290e+000	-206.336975	-52.483017
1830	1.8300e+000	-204.877853	-52.523893
1831	1.8310e+000	-203.981400	-52.702729
1832	1.8320e+000	-202.484131	-52.498346
1833	1.8330e+000	-201.435089	-52.590318
1834	1.8340e+000	-200.214386	-52.595428
1835	1.8350e+000	-199.003220	-52.600537
1836	1.8360e+000	-197.725296	-52.626085
1837	1.8370e+000	-196.285248	-52.498346
1838	1.8380e+000	-195.293427	-52.677181
1839	1.8390e+000	-194.034576	-52.733386
1840	1.8400e+000	-193.014145	-52.574989
1841	1.8410e+000	-191.755295	-52.416592
1842	1.8420e+000	-190.687180	-52.697619
1843	1.8430e+000	-189.275742	-52.605647
1844	1.8440e+000	-188.283920	-52.324620
1845	1.8450e+000	-187.349319	-52.764044
1846	1.8460e+000	-185.890198	-52.646523
1847	1.8470e+000	-184.459686	-52.661852
1848	1.8480e+000	-183.277130	-52.733386
1849	1.8490e+000	-182.266235	-52.646523
1850	1.8500e+000	-180.921555	-52.615866
1851	1.8510e+000	-179.767609	-52.539222
1852	1.8520e+000	-178.613663	-52.718057
1853	1.8530e+000	-177.383423	-52.656742
1854	1.8540e+000	-176.191330	-52.692509
1855	1.8550e+000	-174.999237	-52.753824
1856	1.8560e+000	-173.692703	-52.712948
1857	1.8570e+000	-172.414780	-52.646523
1858	1.8580e+000	-171.442032	-52.600537
1859	1.8590e+000	-170.059204	-52.585208
1860	1.8600e+000	-169.525146	-52.799811
1861	1.8610e+000	-167.884827	-52.605647
1862	1.8620e+000	-166.568756	-52.600537
1863	1.8630e+000	-165.615082	-52.631195
1864	1.8640e+000	-164.308548	-52.738496
1865	1.8650e+000	-162.925720	-52.590318
1866	1.8660e+000	-161.886215	-52.743605
1867	1.8670e+000	-160.560608	-52.585208
1868	1.8680e+000	-159.254074	-52.452359
1869	1.8690e+000	-158.004761	-52.523893
1870	1.8700e+000	-156.917572	-52.728277
1871	1.8710e+000	-155.372620	-52.544332
1872	1.8720e+000	-154.352188	-52.590318
1873	1.8730e+000	-153.274536	-52.406373
1874	1.8740e+000	-151.920319	-52.554551
1875	1.8750e+000	-151.844025	-52.861126
1876	1.8760e+000	-149.679184	-52.421702
1877	1.8770e+000	-148.649216	-52.508565
1878	1.8780e+000	-147.323608	-52.416592
1879	1.8790e+000	-146.121979	-52.488126
1880	1.8800e+000	-145.006180	-52.549441
1881	1.8810e+000	-143.756866	-52.411483
1882	1.8820e+000	-142.631531	-52.406373
1883	1.8830e+000	-141.267776	-52.365497
1884	1.8840e+000	-140.037537	-52.171333
1885	1.8850e+000	-139.045715	-52.033374
1886	1.8860e+000	-137.920380	-52.375716
1887	1.8870e+000	-136.499405	-52.503455
1888	1.8880e+000	-135.669708	-52.385935
1889	1.8890e+000	-134.220123	-52.278634
1890	1.8900e+000	-132.818222	-52.237757
1891	1.8910e+000	-131.845474	-52.227538
1892	1.8920e+000	-130.414963	-52.064032
1893	1.8930e+000	-129.318237	-52.161114
1894	1.8940e+000	-128.059387	-52.150894
1895	1.8950e+000	-126.905441	-51.931183
1896	1.8960e+000	-125.684738	-52.099799
1897	1.8970e+000	-124.359131	-52.084470
1898	1.8980e+000	-123.176575	-52.094689
1899	1.8990e+000	-122.117996	-52.058922
1900	1.9000e+000	-120.801926	-52.110018
1901	1.9010e+000	-119.800568	-51.926073
1902	1.9020e+000	-118.608475	-52.012936
1903	1.9030e+000	-117.177963	-52.201990
1904	1.9040e+000	-116.186142	-51.869868
1905	1.9050e+000	-115.108490	-51.977169
1906	1.9060e+000	-113.658905	-51.956730
1907	1.9070e+000	-113.153458	-51.992497
1908	1.9080e+000	-111.370087	-51.793224
1909	1.9090e+000	-109.548569	-51.563293
1910	1.9100e+000	-108.995438	-51.859649
1911	1.9110e+000	-107.803345	-51.757457
1912	1.9120e+000	-106.506348	-51.655265
1913	1.9130e+000	-105.352402	-51.680813
1914	1.9140e+000	-104.188919	-51.624608
1915	1.9150e+000	-103.263855	-51.527526
1916	1.9160e+000	-101.747513	-51.639937
1917	1.9170e+000	-100.517273	-51.450882
1918	1.9180e+000	-98.600388	-51.042116
1919	1.9190e+000	-97.951889	-51.445773
1920	1.9200e+000	-96.807480	-51.415115
1921	1.9210e+000	-95.653534	-51.415115
1922	1.9220e+000	-93.584061	-50.950144
1923	1.9230e+000	-93.498230	-51.384458
1924	1.9240e+000	-92.058182	-51.328253
1925	1.9250e+000	-90.904236	-51.251609
1926	1.9260e+000	-89.569092	-51.057445
1927	1.9270e+000	-88.453293	-51.180075
1928	1.9280e+000	-87.709427	-51.154527
1929	1.9290e+000	-86.183548	-51.108541
1930	1.9300e+000	-84.943771	-51.001240
1931	1.9310e+000	-83.656311	-50.950144
1932	1.9320e+000	-82.550049	-50.888829
1933	1.9330e+000	-81.262589	-50.796857
1934	1.9340e+000	-79.936981	-50.781528
1935	1.9350e+000	-79.002380	-50.858171
1936	1.9360e+000	-77.562332	-50.791747
1937	1.9370e+000	-76.732635	-50.735542
1938	1.9380e+000	-74.386597	-50.536268
1939	1.9390e+000	-74.357986	-50.827514
1940	1.9400e+000	-73.060989	-50.607802
1941	1.9410e+000	-71.935654	-50.607802
1942	1.9420e+000	-70.552826	-50.510720
1943	1.9430e+000	-69.341660	-50.459624
1944	1.9440e+000	-68.159103	-50.474953
1945	1.9450e+000	-67.043304	-50.388090
1946	1.9460e+000	-65.956116	-50.362543
1947	1.9470e+000	-64.239502	-50.285899
1948	1.9480e+000	-63.428879	-50.306337
1949	1.9490e+000	-62.179565	-50.045749
1950	1.9500e+000	-61.025620	-50.173488
1951	1.9510e+000	-59.947968	-50.096845
1952	1.9520e+000	-58.565140	-49.953776
1953	1.9530e+000	-58.660507	-50.847952
1954	1.9540e+000	-55.942535	-49.851585
1955	1.9550e+000	-55.093765	-49.841366
1956	1.9560e+000	-53.710938	-49.938448
1957	1.9570e+000	-52.528381	-49.667640
1958	1.9580e+000	-51.269531	-49.754503
1959	1.9590e+000	-50.191879	-49.401942
1960	1.9600e+000	-49.076080	-49.432600
1961	1.9610e+000	-47.903061	-49.647202
1962	1.9620e+000	-46.653748	-49.524572
1963	1.9630e+000	-45.433044	-49.560339
1964	1.9640e+000	-44.174194	-49.350846
1965	1.9650e+000	-43.096542	-49.371285
1966	1.9660e+000	-41.685104	-49.330408
1967	1.9670e+000	-40.655136	-49.192449
1968	1.9680e+000	-38.785934	-48.865437
1969	1.9690e+000	-38.194656	-49.136244
1970	1.9700e+000	-37.059784	-48.982957
1971	1.9710e+000	-35.791397	-49.034053
1972	1.9720e+000	-34.570694	-48.901204
1973	1.9730e+000	-33.416748	-48.972738
1974	1.9740e+000	-32.176971	-48.753026
1975	1.9750e+000	-31.156540	-48.732588
1976	1.9760e+000	-29.716492	-48.640615
1977	1.9770e+000	-28.514862	-48.589519
1978	1.9780e+000	-27.465820	-48.558862
1979	1.9790e+000	-26.397705	-48.609958
1980	1.9800e+000	-25.024414	-48.359588
1981	1.9810e+000	-23.918152	-48.380027
1982	1.9820e+000	-22.487640	-48.257397
1983	1.9830e+000	-21.543503	-48.216520
1984	1.9840e+000	-20.017624	-48.349369
1985	1.9850e+000	-19.025803	-48.144986
1986	1.9860e+000	-17.576218	-48.037685
1987	1.9870e+000	-16.794205	-47.940603
1988	1.9880e+000	-15.430450	-48.461780
1989	1.9890e+000	-13.885498	-47.782206
1990	1.9900e+000	-13.055801	-47.715782
1991	1.9910e+000	-11.940002	-47.705563
1992	1.9920e+000	-10.519028	-47.664686
1993	1.9930e+000	-9.479523	-47.526727
1994	1.9940e+000	-8.020401	-47.419426
1995	1.9950e+000	-6.980896	-47.327454
1996	1.9960e+000	-5.960464	-47.353002
1997	1.9970e+000	-4.529953	-47.199715
1998	1.9980e+000	-3.013611	-46.959564
1999	1.9990e+000	-2.374649	-47.174167
2000	2.0000e+000	-0.782013	-47.000441
2001	2.0010e+000	0.104904	-47.000441

PMax (µC/cm2):	8.16e+001
Pr (µC/cm2):	7.87e+001
-Pr (µC/cm2):	-1.70e+001
Vc:	7.55e-001
-Vc:	-1.02e+000
C (Max-Eff) (nF):	2.67e+000
K (Eff):	3.08e+003
Vert. (±Pr) Shift (µC/cm2):	3.08e+001
Horiz. Shift (±Vc):	-1.35e-001
Offset (µC/cm2):	3.00e+001

A (Loop Area - µC/cm2·Volts):	2.19e+002



Hysteresis Version: 5.16.2 - Radiant Technologies, Inc., 1999 - 3/20/18

