»»»»»»»»»»»»»»»»»»»»»»»»»»»»»»»»»»»» Hysteresis ««««««««««««««««««««««««««««««««««««
»»»  Executed Version:	5.12.0
»»»  Vision Version:	5.12.5 (R)
»»»  Vision Compiled:	2/24/17
»»»  Driver Version:	5.12.4
»»»  Windows Version:	Windows 7
»»»  Processor Information:	x86 (AMD or Intel) - 2 Processors
»»»  Tester Name:	PMF0910-256
»»»  Tester S/N:	PMF0910-256
»»»  Internal Amp Type:	 RTI 100V      
»»»  Internal Amp S/N:	 iAB1-0000     
»»»  Execution Count:	1
»»»»»»»»»»»»»»»»»»»»»»»»»»»»»»»»»»»»»»»»»»««««««««««««««««««««««««««««««««««««««««««

Stored:	8/4/2017 - 8:51:27
Configured:	08/03/17 01:23:53 PM
Executed:	08/04/17 08:50:33 AM

»»»»»»»»»»»»»»»»»»»»»»»»»»»»»»»»»»» Sample Info ««««««««««««««««««««««««««««««««««««
Sample Name:	63
Lot Name:	
Wafer Name:	
Die Row/Column:	1/1
Capacitor Number:	1
Sample Area (cm2):	4.91e-006
Sample Thickness (µm):	1.00e-001

Mux Loop Adjustment:	Disabled

Amplifier:	Internal

»»»»»»»»»»»»»»»»»»»»»»»»»»»»»»»»»»» Tester Info «««««««««««««««««««««««««««««««««««
Tester Name:	PMF0910-256
Tester Serial Number:	PMF0910-256
Return Signal Amp. Level:	20.0 [Index: 0]

»»»»»»»»»»»»»»»»»»»»»»»»»»»»»»»» Hysteresis Info ««««««««««««««««««««««««««««««««««
Task Name:	Hyst-2
Volts:	3.00
Field:	300.00 (kV/cm)
Hysteresis Period (ms):	8.00e-002
Preset:	Enabled
Preset Delay (ms):	1.00e+003
Profile:	Double Bipolar

»»»»»»»»»»»»»»»»»»»»»»»»»»»»»»»»»»»»»» Data «««««««««««««««««««««««««««««««««««««««
Points:	801

Valid Data

Point	Time (ms)	Drive Voltage	Measured Polarization
   1	1.0000e-004	0.0305	-16.279563
   2	2.0000e-004	0.0578	-16.158830
   3	3.0000e-004	0.0900	-16.042741
   4	4.0000e-004	0.1196	-15.918913
   5	5.0000e-004	0.1505	-15.778832
   6	6.0000e-004	0.1826	-15.533497
   7	7.0000e-004	0.2113	-15.321441
   8	8.0000e-004	0.2408	-14.996391
   9	9.0000e-004	0.2692	-14.650446
  10	1.0000e-003	0.2977	-14.342423
  11	1.1000e-003	0.3331	-13.959328
  12	1.2000e-003	0.3606	-13.539086
  13	1.3000e-003	0.3907	-13.102591
  14	1.4000e-003	0.4205	-12.616564
  15	1.5000e-003	0.4520	-12.187809
  16	1.6000e-003	0.4811	-11.695591
  17	1.7000e-003	0.5139	-11.273026
  18	1.8000e-003	0.5424	-10.752947
  19	1.9000e-003	0.5734	-10.228224
  20	2.0000e-003	0.5974	-9.779347
  21	2.1000e-003	0.6323	-9.173361
  22	2.2000e-003	0.6592	-8.745380
  23	2.3000e-003	0.6908	-8.182734
  24	2.4000e-003	0.7195	-7.675038
  25	2.5000e-003	0.7497	-7.175081
  26	2.6000e-003	0.7817	-6.716916
  27	2.7000e-003	0.8096	-6.090809
  28	2.8000e-003	0.8369	-5.634191
  29	2.9000e-003	0.8717	-5.109469
  30	3.0000e-003	0.9007	-4.556885
  31	3.1000e-003	0.9329	-4.083241
  32	3.2000e-003	0.9631	-3.620432
  33	3.3000e-003	0.9901	-3.123571
  34	3.4000e-003	1.0197	-2.489724
  35	3.5000e-003	1.0527	-2.069482
  36	3.6000e-003	1.0812	-1.557142
  37	3.7000e-003	1.1127	-1.056411
  38	3.8000e-003	1.1388	-0.572706
  39	3.9000e-003	1.1720	0.009287
  40	4.0000e-003	1.2012	0.513114
  41	4.1000e-003	1.2296	1.082724
  42	4.2000e-003	1.2686	1.629117
  43	4.3000e-003	1.2907	2.245937
  44	4.4000e-003	1.3190	2.745120
  45	4.5000e-003	1.3502	3.283774
  46	4.6000e-003	1.3813	3.905238
  47	4.7000e-003	1.4114	4.458596
  48	4.8000e-003	1.4424	5.224010
  49	4.9000e-003	1.4706	5.699201
  50	5.0000e-003	1.5028	6.351622
  51	5.1000e-003	1.5315	7.123228
  52	5.2000e-003	1.5602	7.829823
  53	5.3000e-003	1.5930	8.692753
  54	5.4000e-003	1.6155	9.437271
  55	5.5000e-003	1.6496	10.314904
  56	5.6000e-003	1.6785	11.247487
  57	5.7000e-003	1.7129	12.347238
  58	5.8000e-003	1.7393	13.524381
  59	5.9000e-003	1.7712	14.706168
  60	6.0000e-003	1.7977	16.022619
  61	6.1000e-003	1.8300	17.586726
  62	6.2000e-003	1.8578	19.162442
  63	6.3000e-003	1.8902	20.950989
  64	6.4000e-003	1.9198	22.794484
  65	6.5000e-003	1.9476	24.672805
  66	6.6000e-003	1.9796	26.914873
  67	6.7000e-003	2.0087	28.974294
  68	6.8000e-003	2.0370	30.971801
  69	6.9000e-003	2.0716	32.917454
  70	7.0000e-003	2.0992	34.524127
  71	7.1000e-003	2.1329	36.273977
  72	7.2000e-003	2.1582	37.420938
  73	7.3000e-003	2.1917	38.401504
  74	7.4000e-003	2.2225	39.087977
  75	7.5000e-003	2.2523	39.553108
  76	7.6000e-003	2.2793	40.258929
  77	7.7000e-003	2.3141	40.557665
  78	7.8000e-003	2.3409	40.868010
  79	7.9000e-003	2.3739	41.015830
  80	8.0000e-003	2.3995	41.155137
  81	8.1000e-003	2.4320	41.583893
  82	8.2000e-003	2.4605	41.707721
  83	8.3000e-003	2.4905	41.861733
  84	8.4000e-003	2.5234	41.892690
  85	8.5000e-003	2.5633	41.994848
  86	8.6000e-003	2.5780	42.338472
  87	8.7000e-003	2.6124	42.396517
  88	8.8000e-003	2.6398	42.492484
  89	8.9000e-003	2.6733	42.494032
  90	9.0000e-003	2.7014	42.593868
  91	9.1000e-003	2.7332	42.906535
  92	9.2000e-003	2.7608	42.880995
  93	9.3000e-003	2.7913	42.952971
  94	9.4000e-003	2.8217	42.968449
  95	9.5000e-003	2.8529	43.032685
  96	9.6000e-003	2.8783	43.345352
  97	9.7000e-003	2.9153	43.280342
  98	9.8000e-003	2.9441	43.390240
  99	9.9000e-003	2.9751	43.405718
 100	1.0000e-002	2.9994	43.380952
 101	1.0100e-002	2.9665	43.620870
 102	1.0200e-002	2.9398	43.503233
 103	1.0300e-002	2.9082	43.487754
 104	1.0400e-002	2.8767	43.404944
 105	1.0500e-002	2.8469	43.341482
 106	1.0600e-002	2.8156	43.478467
 107	1.0700e-002	2.7893	43.380952
 108	1.0800e-002	2.7547	43.278020
 109	1.0900e-002	2.7296	43.241645
 110	1.1000e-002	2.6955	43.148774
 111	1.1100e-002	2.6701	43.296594
 112	1.1200e-002	2.6363	43.171218
 113	1.1300e-002	2.6089	43.126330
 114	1.1400e-002	2.5774	43.030363
 115	1.1500e-002	2.5488	42.946779
 116	1.1600e-002	2.5093	43.019528
 117	1.1700e-002	2.4915	42.999406
 118	1.1800e-002	2.4569	42.945231
 119	1.1900e-002	2.4291	42.815985
 120	1.2000e-002	2.3983	42.724662
 121	1.2100e-002	2.3670	42.904213
 122	1.2200e-002	2.3358	42.756393
 123	1.2300e-002	2.3098	42.723114
 124	1.2400e-002	2.2742	42.596190
 125	1.2500e-002	2.2497	42.521119
 126	1.2600e-002	2.2182	42.631017
 127	1.2700e-002	2.1877	42.520345
 128	1.2800e-002	2.1582	42.462301
 129	1.2900e-002	2.1278	42.370203
 130	1.3000e-002	2.0983	42.228575
 131	1.3100e-002	2.0692	42.381812
 132	1.3200e-002	2.0369	42.265723
 133	1.3300e-002	2.0071	42.221609
 134	1.3400e-002	1.9778	42.123320
 135	1.3500e-002	1.9485	41.980918
 136	1.3600e-002	1.9149	42.142669
 137	1.3700e-002	1.8850	41.975500
 138	1.3800e-002	1.8606	41.956152
 139	1.3900e-002	1.8298	41.846254
 140	1.4000e-002	1.7975	41.713139
 141	1.4100e-002	1.7682	41.843159
 142	1.4200e-002	1.7360	41.734809
 143	1.4300e-002	1.7094	41.693791
 144	1.4400e-002	1.6763	41.529718
 145	1.4500e-002	1.6488	41.419046
 146	1.4600e-002	1.6171	41.495665
 147	1.4700e-002	1.5852	41.378802
 148	1.4800e-002	1.5542	41.345523
 149	1.4900e-002	1.5292	41.193834
 150	1.5000e-002	1.4956	41.112571
 151	1.5100e-002	1.4676	41.267357
 152	1.5200e-002	1.4381	41.125728
 153	1.5300e-002	1.4083	41.019700
 154	1.5400e-002	1.3783	40.929150
 155	1.5500e-002	1.3468	40.784426
 156	1.5600e-002	1.3133	40.936116
 157	1.5700e-002	1.2877	40.772043
 158	1.5800e-002	1.2579	40.704711
 159	1.5900e-002	1.2188	40.530578
 160	1.6000e-002	1.1999	40.300721
 161	1.6100e-002	1.1684	40.539865
 162	1.6200e-002	1.1369	40.374244
 163	1.6300e-002	1.1096	40.278277
 164	1.6400e-002	1.0779	40.098726
 165	1.6500e-002	1.0506	39.912210
 166	1.6600e-002	1.0194	40.103370
 167	1.6700e-002	0.9830	40.084022
 168	1.6800e-002	0.9566	39.796121
 169	1.6900e-002	0.9258	39.568586
 170	1.7000e-002	0.8981	39.439340
 171	1.7100e-002	0.8667	39.526794
 172	1.7200e-002	0.8356	39.235023
 173	1.7300e-002	0.8092	39.163048
 174	1.7400e-002	0.7775	38.913843
 175	1.7500e-002	0.7501	38.690952
 176	1.7600e-002	0.7168	38.767571
 177	1.7700e-002	0.6908	38.471157
 178	1.7800e-002	0.6562	38.256779
 179	1.7900e-002	0.6275	37.966556
 180	1.8000e-002	0.5907	37.631446
 181	1.8100e-002	0.5717	37.748309
 182	1.8200e-002	0.5376	37.386885
 183	1.8300e-002	0.5065	37.104401
 184	1.8400e-002	0.4781	36.724403
 185	1.8500e-002	0.4452	36.375362
 186	1.8600e-002	0.4171	36.369170
 187	1.8700e-002	0.3882	35.902492
 188	1.8800e-002	0.3559	35.589825
 189	1.8900e-002	0.3288	35.125469
 190	1.9000e-002	0.2971	34.747018
 191	1.9100e-002	0.2682	34.592233
 192	1.9200e-002	0.2373	34.200626
 193	1.9300e-002	0.2090	33.762583
 194	1.9400e-002	0.1785	33.251791
 195	1.9500e-002	0.1484	32.737129
 196	1.9600e-002	0.1175	32.639614
 197	1.9700e-002	0.0889	32.054525
 198	1.9800e-002	0.0570	31.543733
 199	1.9900e-002	0.0296	30.998888
 200	2.0000e-002	-0.0050	30.481904
 201	2.0100e-002	-0.0397	30.171560
 202	2.0200e-002	-0.0587	29.572540
 203	2.0300e-002	-0.0908	29.019182
 204	2.0400e-002	-0.1223	28.377596
 205	2.0500e-002	-0.1509	27.696540
 206	2.0600e-002	-0.1818	27.367621
 207	2.0700e-002	-0.2084	26.631616
 208	2.0800e-002	-0.2407	25.936629
 209	2.0900e-002	-0.2700	25.130197
 210	2.1000e-002	-0.2998	24.435210
 211	2.1100e-002	-0.3323	23.768858
 212	2.1200e-002	-0.3606	22.902833
 213	2.1300e-002	-0.3909	21.973347
 214	2.1400e-002	-0.4203	20.874370
 215	2.1500e-002	-0.4522	19.927857
 216	2.1600e-002	-0.4797	19.283175
 217	2.1700e-002	-0.5080	18.145502
 218	2.1800e-002	-0.5415	16.806607
 219	2.1900e-002	-0.5703	15.787345
 220	2.2000e-002	-0.6045	14.515008
 221	2.2100e-002	-0.6306	13.565399
 222	2.2200e-002	-0.6644	12.180069
 223	2.2300e-002	-0.6875	10.906959
 224	2.2400e-002	-0.7233	9.556456
 225	2.2500e-002	-0.7484	8.133203
 226	2.2600e-002	-0.7792	7.033452
 227	2.2700e-002	-0.8105	5.661279
 228	2.2800e-002	-0.8386	3.943160
 229	2.2900e-002	-0.8712	3.028378
 230	2.3000e-002	-0.8996	1.704962
 231	2.3100e-002	-0.9341	0.677960
 232	2.3200e-002	-0.9627	-0.592054
 233	2.3300e-002	-0.9907	-1.907731
 234	2.3400e-002	-1.0218	-2.895262
 235	2.3500e-002	-1.0506	-4.116520
 236	2.3600e-002	-1.0844	-4.980223
 237	2.3700e-002	-1.1095	-5.990972
 238	2.3800e-002	-1.1402	-6.993208
 239	2.3900e-002	-1.1718	-7.963713
 240	2.4000e-002	-1.2045	-8.950470
 241	2.4100e-002	-1.2305	-9.701954
 242	2.4200e-002	-1.2623	-10.591196
 243	2.4300e-002	-1.2993	-11.439421
 244	2.4400e-002	-1.3204	-12.252045
 245	2.4500e-002	-1.3494	-13.124261
 246	2.4600e-002	-1.3797	-13.685358
 247	2.4700e-002	-1.4146	-14.503399
 248	2.4800e-002	-1.4432	-15.253335
 249	2.4900e-002	-1.4689	-15.958383
 250	2.5000e-002	-1.5021	-16.762494
 251	2.5100e-002	-1.5324	-17.317399
 252	2.5200e-002	-1.5668	-18.074300
 253	2.5300e-002	-1.5928	-18.781670
 254	2.5400e-002	-1.6183	-19.442604
 255	2.5500e-002	-1.6490	-20.211114
 256	2.5600e-002	-1.6824	-20.826386
 257	2.5700e-002	-1.7107	-21.558522
 258	2.5800e-002	-1.7443	-22.242673
 259	2.5900e-002	-1.7728	-23.051428
 260	2.6000e-002	-1.8027	-23.882626
 261	2.6100e-002	-1.8307	-24.475454
 262	2.6200e-002	-1.8613	-25.461437
 263	2.6300e-002	-1.8916	-26.397116
 264	2.6400e-002	-1.9241	-27.418700
 265	2.6500e-002	-1.9496	-28.509937
 266	2.6600e-002	-1.9815	-29.430137
 267	2.6700e-002	-2.0100	-30.710987
 268	2.6800e-002	-2.0417	-31.872652
 269	2.6900e-002	-2.0724	-33.124867
 270	2.7000e-002	-2.1025	-34.272601
 271	2.7100e-002	-2.1328	-35.172678
 272	2.7200e-002	-2.1627	-36.133122
 273	2.7300e-002	-2.1920	-36.974381
 274	2.7400e-002	-2.2252	-37.705743
 275	2.7500e-002	-2.2504	-38.338041
 276	2.7600e-002	-2.2836	-38.663091
 277	2.7700e-002	-2.3123	-39.234249
 278	2.7800e-002	-2.3447	-39.559299
 279	2.7900e-002	-2.3755	-39.958645
 280	2.8000e-002	-2.4019	-40.311556
 281	2.8100e-002	-2.4332	-40.393593
 282	2.8200e-002	-2.4637	-40.733347
 283	2.8300e-002	-2.4918	-40.981004
 284	2.8400e-002	-2.5264	-41.272774
 285	2.8500e-002	-2.5621	-41.491796
 286	2.8600e-002	-2.5778	-41.503405
 287	2.8700e-002	-2.6138	-41.744870
 288	2.8800e-002	-2.6425	-41.931386
 289	2.8900e-002	-2.6730	-42.090815
 290	2.9000e-002	-2.7049	-42.274236
 291	2.9100e-002	-2.7330	-42.274236
 292	2.9200e-002	-2.7652	-42.499449
 293	2.9300e-002	-2.7914	-42.613216
 294	2.9400e-002	-2.8226	-42.690609
 295	2.9500e-002	-2.8516	-42.904213
 296	2.9600e-002	-2.8826	-42.988571
 297	2.9700e-002	-2.9128	-43.044294
 298	2.9800e-002	-2.9428	-43.137165
 299	2.9900e-002	-2.9713	-43.247063
 300	3.0000e-002	-3.0020	-43.405718
 301	3.0100e-002	-2.9684	-43.281890
 302	3.0200e-002	-2.9420	-43.395657
 303	3.0300e-002	-2.9088	-43.371665
 304	3.0400e-002	-2.8818	-43.394883
 305	3.0500e-002	-2.8468	-43.394883
 306	3.0600e-002	-2.8207	-43.213010
 307	3.0700e-002	-2.7866	-43.243967
 308	3.0800e-002	-2.7621	-43.177410
 309	3.0900e-002	-2.7298	-43.219976
 310	3.1000e-002	-2.6994	-43.180505
 311	3.1100e-002	-2.6684	-42.994763
 312	3.1200e-002	-2.6429	-43.033459
 313	3.1300e-002	-2.6105	-42.971545
 314	3.1400e-002	-2.5776	-42.973867
 315	3.1500e-002	-2.5451	-42.952197
 316	3.1600e-002	-2.5137	-42.723114
 317	3.1700e-002	-2.4908	-42.771872
 318	3.1800e-002	-2.4599	-42.656556
 319	3.1900e-002	-2.4284	-42.755619
 320	3.2000e-002	-2.3994	-42.690609
 321	3.2100e-002	-2.3685	-42.557494
 322	3.2200e-002	-2.3386	-42.517249
 323	3.2300e-002	-2.3084	-42.430570
 324	3.2400e-002	-2.2811	-42.431343
 325	3.2500e-002	-2.2496	-42.426700
 326	3.2600e-002	-2.2186	-42.231670
 327	3.2700e-002	-2.1872	-42.210774
 328	3.2800e-002	-2.1608	-42.169756
 329	3.2900e-002	-2.1274	-42.136477
 330	3.3000e-002	-2.1016	-42.124868
 331	3.3100e-002	-2.0701	-41.939900
 332	3.3200e-002	-2.0393	-41.871020
 333	3.3300e-002	-2.0090	-41.816845
 334	3.3400e-002	-1.9813	-41.828454
 335	3.3500e-002	-1.9516	-41.719330
 336	3.3600e-002	-1.9213	-41.549066
 337	3.3700e-002	-1.8857	-41.539779
 338	3.3800e-002	-1.8606	-41.467030
 339	3.3900e-002	-1.8286	-41.426786
 340	3.4000e-002	-1.8018	-41.226339
 341	3.4100e-002	-1.7691	-41.229434
 342	3.4200e-002	-1.7400	-41.206216
 343	3.4300e-002	-1.7080	-41.058396
 344	3.4400e-002	-1.6805	-40.988743
 345	3.4500e-002	-1.6463	-41.008091
 346	3.4600e-002	-1.6174	-40.788296
 347	3.4700e-002	-1.5881	-40.874202
 348	3.4800e-002	-1.5598	-40.665241
 349	3.4900e-002	-1.5292	-40.780556
 350	3.5000e-002	-1.5014	-40.552248
 351	3.5100e-002	-1.4669	-40.321617
 352	3.5200e-002	-1.4424	-40.278277
 353	3.5300e-002	-1.4092	-40.120396
 354	3.5400e-002	-1.3799	-40.111883
 355	3.5500e-002	-1.3489	-40.008951
 356	3.5600e-002	-1.3190	-39.765938
 357	3.5700e-002	-1.2843	-39.680032
 358	3.5800e-002	-1.2489	-39.474167
 359	3.5900e-002	-1.2319	-39.483454
 360	3.6000e-002	-1.1983	-39.344147
 361	3.6100e-002	-1.1678	-39.048507
 362	3.6200e-002	-1.1402	-38.950992
 363	3.6300e-002	-1.1069	-38.736614
 364	3.6400e-002	-1.0800	-38.640647
 365	3.6500e-002	-1.0506	-38.433235
 366	3.6600e-002	-1.0230	-38.068715
 367	3.6700e-002	-0.9882	-37.881424
 368	3.6800e-002	-0.9605	-37.634541
 369	3.6900e-002	-0.9283	-37.397720
 370	3.7000e-002	-0.9002	-37.184890
 371	3.7100e-002	-0.8670	-36.712794
 372	3.7200e-002	-0.8400	-36.369944
 373	3.7300e-002	-0.8096	-36.054182
 374	3.7400e-002	-0.7790	-35.709784
 375	3.7500e-002	-0.7494	-35.397117
 376	3.7600e-002	-0.7200	-34.773332
 377	3.7700e-002	-0.6841	-34.449056
 378	3.7800e-002	-0.6584	-33.980056
 379	3.7900e-002	-0.6250	-33.589223
 380	3.8000e-002	-0.6030	-33.127962
 381	3.8100e-002	-0.5701	-32.497985
 382	3.8200e-002	-0.5404	-32.051429
 383	3.8300e-002	-0.5103	-31.489558
 384	3.8400e-002	-0.4805	-31.033715
 385	3.8500e-002	-0.4481	-30.527566
 386	3.8600e-002	-0.4175	-29.892946
 387	3.8700e-002	-0.3853	-29.343457
 388	3.8800e-002	-0.3628	-28.790099
 389	3.8900e-002	-0.3275	-28.215845
 390	3.9000e-002	-0.2987	-27.629982
 391	3.9100e-002	-0.2676	-27.002327
 392	3.9200e-002	-0.2390	-26.551127
 393	3.9300e-002	-0.2090	-25.931211
 394	3.9400e-002	-0.1784	-25.294269
 395	3.9500e-002	-0.1461	-24.853904
 396	3.9600e-002	-0.1248	-24.180588
 397	3.9700e-002	-0.0883	-23.693787
 398	3.9800e-002	-0.0590	-23.212404
 399	3.9900e-002	-0.0262	-22.549149
 400	4.0000e-002	0.0071	-21.946259
 401	4.0100e-002	0.0286	-21.321700
 402	4.0200e-002	0.0629	-20.848056
 403	4.0300e-002	0.0913	-20.236654
 404	4.0400e-002	0.1173	-19.741340
 405	4.0500e-002	0.1517	-19.195721
 406	4.0600e-002	0.1801	-18.616050
 407	4.0700e-002	0.2102	-18.108353
 408	4.0800e-002	0.2432	-17.411819
 409	4.0900e-002	0.2698	-17.008602
 410	4.1000e-002	0.3011	-16.493941
 411	4.1100e-002	0.3323	-15.856225
 412	4.1200e-002	0.3567	-15.397286
 413	4.1300e-002	0.3929	-14.822258
 414	4.1400e-002	0.4223	-14.271995
 415	4.1500e-002	0.4538	-13.758107
 416	4.1600e-002	0.4806	-13.132000
 417	4.1700e-002	0.5127	-12.610373
 418	4.1800e-002	0.5424	-12.079459
 419	4.1900e-002	0.5733	-11.476569
 420	4.2000e-002	0.5996	-10.936368
 421	4.2100e-002	0.6341	-10.320322
 422	4.2200e-002	0.6603	-9.859835
 423	4.2300e-002	0.6894	-9.215154
 424	4.2400e-002	0.7203	-8.623099
 425	4.2500e-002	0.7492	-8.159517
 426	4.2600e-002	0.7793	-7.507096
 427	4.2700e-002	0.8127	-6.980825
 428	4.2800e-002	0.8382	-6.471581
 429	4.2900e-002	0.8726	-5.916675
 430	4.3000e-002	0.8994	-5.395048
 431	4.3100e-002	0.9342	-4.785193
 432	4.3200e-002	0.9637	-4.248861
 433	4.3300e-002	0.9899	-3.717947
 434	4.3400e-002	1.0182	-3.230373
 435	4.3500e-002	1.0513	-2.677789
 436	4.3600e-002	1.0818	-2.121335
 437	4.3700e-002	1.1139	-1.583455
 438	4.3800e-002	1.1373	-1.018488
 439	4.3900e-002	1.1713	-0.482157
 440	4.4000e-002	1.2012	0.044114
 441	4.4100e-002	1.2353	0.623012
 442	4.4200e-002	1.2698	1.239058
 443	4.4300e-002	1.2905	1.737467
 444	4.4400e-002	1.3165	2.330295
 445	4.4500e-002	1.3529	2.896810
 446	4.4600e-002	1.3798	3.593345
 447	4.4700e-002	1.4123	4.216356
 448	4.4800e-002	1.4412	4.844786
 449	4.4900e-002	1.4690	5.469345
 450	4.5000e-002	1.5002	6.159688
 451	4.5100e-002	1.5301	6.997078
 452	4.5200e-002	1.5615	7.705221
 453	4.5300e-002	1.5908	8.517845
 454	4.5400e-002	1.6193	9.317312
 455	4.5500e-002	1.6530	10.249894
 456	4.5600e-002	1.6793	11.304757
 457	4.5700e-002	1.7110	12.269845
 458	4.5800e-002	1.7421	13.500390
 459	4.5900e-002	1.7722	14.776596
 460	4.6000e-002	1.7989	16.161152
 461	4.6100e-002	1.8302	17.825096
 462	4.6200e-002	1.8575	19.424804
 463	4.6300e-002	1.8922	21.252820
 464	4.6400e-002	1.9238	23.133464
 465	4.6500e-002	1.9500	25.103109
 466	4.6600e-002	1.9780	27.340533
 467	4.6700e-002	2.0081	29.422398
 468	4.6800e-002	2.0406	31.392817
 469	4.6900e-002	2.0718	33.296678
 470	4.7000e-002	2.1021	34.989258
 471	4.7100e-002	2.1301	36.707376
 472	4.7200e-002	2.1600	37.693360
 473	4.7300e-002	2.1928	38.615108
 474	4.7400e-002	2.2234	39.201744
 475	4.7500e-002	2.2517	39.760520
 476	4.7600e-002	2.2781	40.740312
 477	4.7700e-002	2.3127	40.730251
 478	4.7800e-002	2.3408	41.011961
 479	4.7900e-002	2.3715	41.161329
 480	4.8000e-002	2.4001	41.338558
 481	4.8100e-002	2.4329	41.774279
 482	4.8200e-002	2.4641	41.826132
 483	4.8300e-002	2.4906	41.965439
 484	4.8400e-002	2.5227	42.120225
 485	4.8500e-002	2.5594	42.127964
 486	4.8600e-002	2.5771	42.418187
 487	4.8700e-002	2.6115	42.454561
 488	4.8800e-002	2.6397	42.548207
 489	4.8900e-002	2.6739	42.655009
 490	4.9000e-002	2.6998	42.630243
 491	4.9100e-002	2.7346	42.928979
 492	4.9200e-002	2.7595	42.922787
 493	4.9300e-002	2.7895	43.000954
 494	4.9400e-002	2.8236	43.035007
 495	4.9500e-002	2.8542	43.078347
 496	4.9600e-002	2.8790	43.327551
 497	4.9700e-002	2.9110	43.333743
 498	4.9800e-002	2.9426	43.332969
 499	4.9900e-002	2.9742	43.414231
 500	5.0000e-002	3.0006	43.453702
 501	5.0100e-002	2.9663	43.610809
 502	5.0200e-002	2.9414	43.545025
 503	5.0300e-002	2.9057	43.570565
 504	5.0400e-002	2.8784	43.415005
 505	5.0500e-002	2.8505	43.388692
 506	5.0600e-002	2.8139	43.630931
 507	5.0700e-002	2.7883	43.381726
 508	5.0800e-002	2.7565	43.377083
 509	5.0900e-002	2.7303	43.322134
 510	5.1000e-002	2.6971	43.182827
 511	5.1100e-002	2.6706	43.376309
 512	5.1200e-002	2.6362	43.208367
 513	5.1300e-002	2.6094	43.140261
 514	5.1400e-002	2.5771	43.043520
 515	5.1500e-002	2.5476	42.963806
 516	5.1600e-002	2.5076	43.095373
 517	5.1700e-002	2.4903	42.981606
 518	5.1800e-002	2.4583	42.930527
 519	5.1900e-002	2.4283	42.863969
 520	5.2000e-002	2.3988	42.678226
 521	5.2100e-002	2.3706	42.895700
 522	5.2200e-002	2.3356	42.799733
 523	5.2300e-002	2.3087	42.753297
 524	5.2400e-002	2.2744	42.624051
 525	5.2500e-002	2.2482	42.504093
 526	5.2600e-002	2.2181	42.646495
 527	5.2700e-002	2.1873	42.511832
 528	5.2800e-002	2.1563	42.466944
 529	5.2900e-002	2.1295	42.357046
 530	5.3000e-002	2.0974	42.264949
 531	5.3100e-002	2.0687	42.428248
 532	5.3200e-002	2.0358	42.299776
 533	5.3300e-002	2.0086	42.236314
 534	5.3400e-002	1.9772	42.123320
 535	5.3500e-002	1.9466	42.008005
 536	5.3600e-002	1.9180	42.141895
 537	5.3700e-002	1.8850	42.022710
 538	5.3800e-002	1.8600	41.946865
 539	5.3900e-002	1.8284	41.867924
 540	5.4000e-002	1.7950	41.720878
 541	5.4100e-002	1.7688	41.889594
 542	5.4200e-002	1.7361	41.751835
 543	5.4300e-002	1.7065	41.657416
 544	5.4400e-002	1.6761	41.579249
 545	5.4500e-002	1.6499	41.462386
 546	5.4600e-002	1.6191	41.576154
 547	5.4700e-002	1.5888	41.453099
 548	5.4800e-002	1.5547	41.426786
 549	5.4900e-002	1.5292	41.284383
 550	5.5000e-002	1.4984	41.140433
 551	5.5100e-002	1.4723	41.227112
 552	5.5200e-002	1.4379	41.205443
 553	5.5300e-002	1.4053	41.076197
 554	5.5400e-002	1.3786	40.961655
 555	5.5500e-002	1.3480	40.782878
 556	5.5600e-002	1.3186	40.993386
 557	5.5700e-002	1.2908	40.849436
 558	5.5800e-002	1.2571	40.711677
 559	5.5900e-002	1.2196	40.532900
 560	5.6000e-002	1.2010	40.430741
 561	5.6100e-002	1.1664	40.584753
 562	5.6200e-002	1.1356	40.426098
 563	5.6300e-002	1.1087	40.294530
 564	5.6400e-002	1.0770	40.156771
 565	5.6500e-002	1.0474	39.995020
 566	5.6600e-002	1.0174	40.141292
 567	5.6700e-002	0.9880	39.895183
 568	5.6800e-002	0.9565	39.811599
 569	5.6900e-002	0.9277	39.626631
 570	5.7000e-002	0.8997	39.423088
 571	5.7100e-002	0.8661	39.567812
 572	5.7200e-002	0.8350	39.312416
 573	5.7300e-002	0.8083	39.165370
 574	5.7400e-002	0.7788	38.945575
 575	5.7500e-002	0.7510	38.666961
 576	5.7600e-002	0.7150	38.838773
 577	5.7700e-002	0.6910	38.515271
 578	5.7800e-002	0.6597	38.499018
 579	5.7900e-002	0.6275	38.050914
 580	5.8000e-002	0.5923	37.735152
 581	5.8100e-002	0.5706	37.796292
 582	5.8200e-002	0.5373	37.408555
 583	5.8300e-002	0.5069	37.122975
 584	5.8400e-002	0.4760	36.777804
 585	5.8500e-002	0.4483	36.458946
 586	5.8600e-002	0.4183	36.387744
 587	5.8700e-002	0.3879	35.971372
 588	5.8800e-002	0.3620	35.462901
 589	5.8900e-002	0.3290	35.216792
 590	5.9000e-002	0.2952	34.754758
 591	5.9100e-002	0.2695	34.663434
 592	5.9200e-002	0.2364	34.206817
 593	5.9300e-002	0.2090	33.631789
 594	5.9400e-002	0.1790	33.295904
 595	5.9500e-002	0.1453	32.781243
 596	5.9600e-002	0.1173	32.611753
 597	5.9700e-002	0.0880	32.116439
 598	5.9800e-002	0.0584	31.586299
 599	5.9900e-002	0.0292	31.031393
 600	6.0000e-002	-0.0029	30.477261
 601	6.0100e-002	-0.0412	30.168464
 602	6.0200e-002	-0.0591	29.573314
 603	6.0300e-002	-0.0891	28.974294
 604	6.0400e-002	-0.1232	28.360569
 605	6.0500e-002	-0.1511	27.731367
 606	6.0600e-002	-0.1814	27.342855
 607	6.0700e-002	-0.2093	26.634711
 608	6.0800e-002	-0.2407	25.930437
 609	6.0900e-002	-0.2684	25.181276
 610	6.1000e-002	-0.3004	24.316799
 611	6.1100e-002	-0.3294	23.868695
 612	6.1200e-002	-0.3604	22.953139
 613	6.1300e-002	-0.3909	22.042226
 614	6.1400e-002	-0.4206	21.042312
 615	6.1500e-002	-0.4540	20.029241
 616	6.1600e-002	-0.4811	19.265375
 617	6.1700e-002	-0.5105	18.142406
 618	6.1800e-002	-0.5385	17.044203
 619	6.1900e-002	-0.5724	15.699891
 620	6.2000e-002	-0.6030	14.539774
 621	6.2100e-002	-0.6324	13.604096
 622	6.2200e-002	-0.6630	12.198644
 623	6.2300e-002	-0.6874	10.899993
 624	6.2400e-002	-0.7220	9.497637
 625	6.2500e-002	-0.7477	8.130107
 626	6.2600e-002	-0.7807	7.115488
 627	6.2700e-002	-0.8099	5.705393
 628	6.2800e-002	-0.8417	4.401325
 629	6.2900e-002	-0.8726	3.018317
 630	6.3000e-002	-0.9017	1.717345
 631	6.3100e-002	-0.9343	0.659386
 632	6.3200e-002	-0.9627	-0.513114
 633	6.3300e-002	-0.9877	-1.738241
 634	6.3400e-002	-1.0204	-2.903002
 635	6.3500e-002	-1.0519	-4.060023
 636	6.3600e-002	-1.0837	-4.904378
 637	6.3700e-002	-1.1105	-5.980911
 638	6.3800e-002	-1.1421	-6.918137
 639	6.3900e-002	-1.1705	-7.964487
 640	6.4000e-002	-1.2013	-8.932670
 641	6.4100e-002	-1.2302	-9.570386
 642	6.4200e-002	-1.2631	-10.494456
 643	6.4300e-002	-1.3004	-11.380602
 644	6.4400e-002	-1.3198	-12.270619
 645	6.4500e-002	-1.3496	-13.076277
 646	6.4600e-002	-1.3821	-13.705480
 647	6.4700e-002	-1.4114	-14.428328
 648	6.4800e-002	-1.4441	-15.213091
 649	6.4900e-002	-1.4701	-16.030358
 650	6.5000e-002	-1.5013	-16.688970
 651	6.5100e-002	-1.5309	-17.333652
 652	6.5200e-002	-1.5622	-18.032508
 653	6.5300e-002	-1.5963	-18.754583
 654	6.5400e-002	-1.6187	-19.475883
 655	6.5500e-002	-1.6503	-20.277672
 656	6.5600e-002	-1.6817	-20.978850
 657	6.5700e-002	-1.7120	-21.515956
 658	6.5800e-002	-1.7428	-22.210168
 659	6.5900e-002	-1.7714	-22.986418
 660	6.6000e-002	-1.8021	-23.867147
 661	6.6100e-002	-1.8323	-24.468489
 662	6.6200e-002	-1.8637	-25.423515
 663	6.6300e-002	-1.8936	-26.357645
 664	6.6400e-002	-1.9253	-27.441144
 665	6.6500e-002	-1.9489	-28.526190
 666	6.6600e-002	-1.9817	-29.497469
 667	6.6700e-002	-2.0075	-30.823206
 668	6.6800e-002	-2.0435	-31.919862
 669	6.6900e-002	-2.0724	-33.156598
 670	6.7000e-002	-2.1016	-34.300462
 671	6.7100e-002	-2.1304	-35.137852
 672	6.7200e-002	-2.1642	-36.235281
 673	6.7300e-002	-2.1902	-36.972834
 674	6.7400e-002	-2.2257	-37.739796
 675	6.7500e-002	-2.2503	-38.381381
 676	6.7600e-002	-2.2829	-38.673926
 677	6.7700e-002	-2.3111	-39.180848
 678	6.7800e-002	-2.3439	-39.626631
 679	6.7900e-002	-2.3749	-39.971802
 680	6.8000e-002	-2.4010	-40.311556
 681	6.8100e-002	-2.4301	-40.445446
 682	6.8200e-002	-2.4627	-40.739538
 683	6.8300e-002	-2.4908	-40.998804
 684	6.8400e-002	-2.5282	-41.243365
 685	6.8500e-002	-2.5639	-41.523527
 686	6.8600e-002	-2.5801	-41.761122
 687	6.8700e-002	-2.6131	-41.744870
 688	6.8800e-002	-2.6443	-41.882629
 689	6.8900e-002	-2.6720	-42.031997
 690	6.9000e-002	-2.7033	-42.315254
 691	6.9100e-002	-2.7303	-42.253340
 692	6.9200e-002	-2.7645	-42.429022
 693	6.9300e-002	-2.7921	-42.593094
 694	6.9400e-002	-2.8230	-42.763358
 695	6.9500e-002	-2.8568	-42.930527
 696	6.9600e-002	-2.8828	-42.864743
 697	6.9700e-002	-2.9104	-43.048164
 698	6.9800e-002	-2.9451	-43.134070
 699	6.9900e-002	-2.9713	-43.319038
 700	7.0000e-002	-3.0013	-43.630931
 701	7.0100e-002	-2.9658	-43.315943
 702	7.0200e-002	-2.9416	-43.397205
 703	7.0300e-002	-2.9105	-43.355413
 704	7.0400e-002	-2.8809	-43.347674
 705	7.0500e-002	-2.8468	-43.455249
 706	7.0600e-002	-2.8219	-43.176636
 707	7.0700e-002	-2.7870	-43.312073
 708	7.0800e-002	-2.7603	-43.176636
 709	7.0900e-002	-2.7271	-42.979284
 710	7.1000e-002	-2.6973	-43.191340
 711	7.1100e-002	-2.6681	-43.036555
 712	7.1200e-002	-2.6398	-43.017980
 713	7.1300e-002	-2.6084	-42.996311
 714	7.1400e-002	-2.5770	-42.938266
 715	7.1500e-002	-2.5467	-42.910405
 716	7.1600e-002	-2.5125	-42.757941
 717	7.1700e-002	-2.4905	-42.792768
 718	7.1800e-002	-2.4576	-42.714601
 719	7.1900e-002	-2.4250	-42.702218
 720	7.2000e-002	-2.4014	-42.693705
 721	7.2100e-002	-2.3685	-42.511832
 722	7.2200e-002	-2.3389	-42.504867
 723	7.2300e-002	-2.3086	-42.415865
 724	7.2400e-002	-2.2811	-42.423604
 725	7.2500e-002	-2.2507	-42.379490
 726	7.2600e-002	-2.2202	-42.257984
 727	7.2700e-002	-2.1861	-42.197617
 728	7.2800e-002	-2.1622	-42.133381
 729	7.2900e-002	-2.1263	-42.105520
 730	7.3000e-002	-2.0992	-42.080754
 731	7.3100e-002	-2.0695	-41.873342
 732	7.3200e-002	-2.0419	-41.843159
 733	7.3300e-002	-2.0088	-41.782018
 734	7.3400e-002	-1.9791	-41.770410
 735	7.3500e-002	-1.9492	-41.718556
 736	7.3600e-002	-1.9182	-41.479413
 737	7.3700e-002	-1.8839	-41.523527
 738	7.3800e-002	-1.8600	-41.429108
 739	7.3900e-002	-1.8275	-41.415951
 740	7.4000e-002	-1.8002	-41.372611
 741	7.4100e-002	-1.7702	-41.178355
 742	7.4200e-002	-1.7375	-41.155911
 743	7.4300e-002	-1.7070	-41.049109
 744	7.4400e-002	-1.6770	-41.030535
 745	7.4500e-002	-1.6476	-40.966299
 746	7.4600e-002	-1.6190	-40.789843
 747	7.4700e-002	-1.5874	-40.691555
 748	7.4800e-002	-1.5601	-40.620353
 749	7.4900e-002	-1.5274	-40.588622
 750	7.5000e-002	-1.4998	-40.521291
 751	7.5100e-002	-1.4691	-40.319296
 752	7.5200e-002	-1.4398	-40.302269
 753	7.5300e-002	-1.4062	-40.145936
 754	7.5400e-002	-1.3807	-40.085570
 755	7.5500e-002	-1.3486	-39.999664
 756	7.5600e-002	-1.3241	-39.757424
 757	7.5700e-002	-1.2881	-39.693188
 758	7.5800e-002	-1.2499	-39.201744
 759	7.5900e-002	-1.2315	-39.441662
 760	7.6000e-002	-1.2019	-39.313190
 761	7.6100e-002	-1.1658	-39.045411
 762	7.6200e-002	-1.1391	-38.912296
 763	7.6300e-002	-1.1058	-38.766797
 764	7.6400e-002	-1.0802	-38.595759
 765	7.6500e-002	-1.0494	-38.447165
 766	7.6600e-002	-1.0193	-38.022279
 767	7.6700e-002	-0.9907	-37.888390
 768	7.6800e-002	-0.9579	-37.353606
 769	7.6900e-002	-0.9270	-37.424807
 770	7.7000e-002	-0.9002	-37.186438
 771	7.7100e-002	-0.8690	-36.645462
 772	7.7200e-002	-0.8408	-36.407093
 773	7.7300e-002	-0.8089	-36.051086
 774	7.7400e-002	-0.7796	-35.723715
 775	7.7500e-002	-0.7484	-35.470640
 776	7.7600e-002	-0.7227	-34.839116
 777	7.7700e-002	-0.6893	-34.449830
 778	7.7800e-002	-0.6606	-34.009466
 779	7.7900e-002	-0.6239	-33.562909
 780	7.8000e-002	-0.5997	-33.082301
 781	7.8100e-002	-0.5694	-32.474768
 782	7.8200e-002	-0.5396	-32.073099
 783	7.8300e-002	-0.5087	-31.494975
 784	7.8400e-002	-0.4793	-31.036810
 785	7.8500e-002	-0.4478	-30.510540
 786	7.8600e-002	-0.4211	-29.839545
 787	7.8700e-002	-0.3902	-29.342683
 788	7.8800e-002	-0.3591	-28.747533
 789	7.8900e-002	-0.3286	-28.196497
 790	7.9000e-002	-0.2972	-27.742201
 791	7.9100e-002	-0.2722	-27.017032
 792	7.9200e-002	-0.2383	-26.485343
 793	7.9300e-002	-0.2074	-25.912637
 794	7.9400e-002	-0.1790	-25.318261
 795	7.9500e-002	-0.1467	-24.814434
 796	7.9600e-002	-0.1233	-24.193744
 797	7.9700e-002	-0.0871	-23.648899
 798	7.9800e-002	-0.0610	-23.032079
 799	7.9900e-002	-0.0245	-22.529800
 800	8.0000e-002	0.0068	-21.847197
 801	8.0100e-002	-0.0039	-21.383614

Center data before PMax,±Pr and ±Vc Calc.

PMax (µC/cm2):	4.35e+001
Pr (µC/cm2):	3.05e+001
-Pr (µC/cm2):	-2.14e+001
Vc:	1.20e+000
-Vc:	-9.50e-001
C (Max-Eff) (nF):	7.11e-002
Vert. (±Pr) Shift (µC/cm2):	4.57e+000
Horiz. Shift (±Vc):	1.24e-001
Offset (µC/cm2):	1.63e+001

A (Loop Area - µC/cm2·Volts):	1.59e+002



Hysteresis Version: 5.12.0 - Radiant Technologies, Inc., 1999 - 11/30/16

