»»»»»»»»»»»»»»»»»»»»»»»»»»»»»»»»»»»» Hysteresis ««««««««««««««««««««««««««««««««««««
»»»  Executed Version:	5.16.2
»»»  Vision Version:	5.16.10 (R)
»»»  Vision Compiled:	4/26/18
»»»  Driver Version:	5.16.6
»»»  Windows Version:	Windows 8
»»»  Processor Information:	x86 (AMD or Intel) - 8 Processors
»»»  Tester Name:	PPM21016-863
»»»  Tester S/N:	PPM21016-863
»»»  Internal Amp Type:	 RTI ML200V    
»»»  Internal Amp S/N:	 iAB2-0000     
»»»  Execution Count:	1
»»»»»»»»»»»»»»»»»»»»»»»»»»»»»»»»»»»»»»»»»»««««««««««««««««««««««««««««««««««««««««««

Stored:	6/5/2018 - 7:4:39
Configured:	06/05/18 05:57:41 AM
Executed:	06/05/18 07:04:13 AM

»»»»»»»»»»»»»»»»»»»»»»»»»»»»»»»»»»» Sample Info ««««««««««««««««««««««««««««««««««««
Sample Name:	Internal Reference Cap.
Lot Name:	N/A
Wafer Name:	N/A
Die Row/Column:	0/0
Capacitor Number:	0
Sample Area (cm2):	6.20e-005
Sample Thickness (µm):	1.00e-001

Mux Loop Adjustment:	Disabled

Amplifier:	Internal

»»»»»»»»»»»»»»»»»»»»»»»»»»»»»»»»»»» Tester Info «««««««««««««««««««««««««««««««««««
Tester Name:	PPM21016-863
Tester Serial Number:	PPM21016-863
Return Signal Amp. Level:	1.79 [Index: 2]

»»»»»»»»»»»»»»»»»»»»»»»»»»»»»»»» Hysteresis Info ««««««««««««««««««««««««««««««««««
Task Name:	Hyst-1
Volts:	3.00
Field:	300.00 (kV/cm)
Hysteresis Period (ms):	2.00e+000
Preset:	Enabled
Preset Delay (ms):	1.00e+003
Profile:	Double Bipolar

»»»»»»»»»»»»»»»»»»»»»»»»»»»»»»»»»»»»»» Data «««««««««««««««««««««««««««««««««««««««
Points:	2001

Valid Data

Point	Time (ms)	Field (kV/cm)	Measured Polarization
   1	1.0000e-003	-20.210266	-10.998098
   2	2.0000e-003	-18.989563	-11.022084
   3	3.0000e-003	-17.898560	-10.844585
   4	4.0000e-003	-16.738892	-10.756178
   5	5.0000e-003	-15.144348	-10.643785
   6	6.0000e-003	-14.297485	-10.488901
   7	7.0000e-003	-13.183594	-10.319626
   8	8.0000e-003	-11.848450	-10.094839
   9	9.0000e-003	-10.688782	-9.872794
  10	1.0000e-002	-9.185791	-9.626762
  11	1.1000e-002	-7.881165	-9.289582
  12	1.2000e-002	-7.194519	-9.005858
  13	1.3000e-002	-5.912781	-8.661139
  14	1.4000e-002	-4.936218	-8.264336
  15	1.5000e-002	-3.562927	-7.892204
  16	1.6000e-002	-2.532959	-7.416589
  17	1.7000e-002	-1.159668	-6.985519
  18	1.8000e-002	-0.076294	-6.469469
  19	1.9000e-002	1.419067	-5.969182
  20	2.0000e-002	2.342224	-5.475748
  21	2.1000e-002	3.654480	-4.892536
  22	2.2000e-002	4.783630	-4.331940
  23	2.3000e-002	6.187439	-3.715148
  24	2.4000e-002	7.278442	-3.093558
  25	2.5000e-002	8.445740	-2.467170
  26	2.6000e-002	9.590149	-1.797608
  27	2.7000e-002	10.757446	-1.113653
  28	2.8000e-002	12.283325	-0.440664
  29	2.9000e-002	13.175964	0.271389
  30	3.0000e-002	14.419556	1.014281
  31	3.1000e-002	15.525818	1.790069
  32	3.2000e-002	16.868591	2.575452
  33	3.3000e-002	17.913818	3.388933
  34	3.4000e-002	19.104004	4.209952
  35	3.5000e-002	20.683289	5.062497
  36	3.6000e-002	21.591187	5.909559
  37	3.7000e-002	23.056030	6.816244
  38	3.8000e-002	24.299622	7.696887
  39	3.9000e-002	25.283813	8.603572
  40	4.0000e-002	26.451111	9.503404
  41	4.1000e-002	27.664185	10.462859
  42	4.2000e-002	28.671265	11.420943
  43	4.3000e-002	30.204773	12.400958
  44	4.4000e-002	31.372070	13.384400
  45	4.5000e-002	32.173157	14.341799
  46	4.6000e-002	33.943176	15.342374
  47	4.7000e-002	35.125732	16.362137
  48	4.8000e-002	35.682678	17.357915
  49	4.9000e-002	37.170410	18.342042
  50	5.0000e-002	38.444519	19.343302
  51	5.1000e-002	39.497375	20.347303
  52	5.2000e-002	40.809631	21.322521
  53	5.3000e-002	41.992188	22.310074
  54	5.4000e-002	43.029785	23.264047
  55	5.5000e-002	44.670105	24.156340
  56	5.6000e-002	45.501709	25.050004
  57	5.7000e-002	46.676636	25.906661
  58	5.8000e-002	48.141479	26.679707
  59	5.9000e-002	49.377441	27.415747
  60	6.0000e-002	50.239563	28.099016
  61	6.1000e-002	51.605225	28.716494
  62	6.2000e-002	52.940369	29.242823
  63	6.3000e-002	54.115295	29.747223
  64	6.4000e-002	55.473328	30.159788
  65	6.5000e-002	56.526184	30.492171
  66	6.6000e-002	57.197571	30.790973
  67	6.7000e-002	58.891296	31.145286
  68	6.8000e-002	60.310364	31.346086
  69	6.9000e-002	61.500549	31.590062
  70	7.0000e-002	62.652588	31.784694
  71	7.1000e-002	63.903809	31.980697
  72	7.2000e-002	65.002441	32.163679
  73	7.3000e-002	66.070557	32.308968
  74	7.4000e-002	67.466736	32.474131
  75	7.5000e-002	68.794250	32.577615
  76	7.6000e-002	69.915771	32.708512
  77	7.7000e-002	71.258545	32.838039
  78	7.8000e-002	72.181702	32.961397
  79	7.9000e-002	73.463440	33.045692
  80	8.0000e-002	74.951172	33.184128
  81	8.1000e-002	75.836182	33.241010
  82	8.2000e-002	77.117920	33.367795
  83	8.3000e-002	78.269958	33.441125
  84	8.4000e-002	79.193115	33.562428
  85	8.5000e-002	80.421448	33.647408
  86	8.6000e-002	81.970215	33.684415
  87	8.7000e-002	82.977295	33.763228
  88	8.8000e-002	84.167480	33.820110
  89	8.9000e-002	85.533142	33.913999
  90	9.0000e-002	86.563110	33.981847
  91	9.1000e-002	87.905884	34.050379
  92	9.2000e-002	88.874817	34.106576
  93	9.3000e-002	89.889526	34.194297
  94	9.4000e-002	91.392517	34.230620
  95	9.5000e-002	92.346191	34.314229
  96	9.6000e-002	93.620300	34.360831
  97	9.7000e-002	95.008850	34.401951
  98	9.8000e-002	96.214294	34.454721
  99	9.9000e-002	97.511292	34.534219
 100	1.0000e-001	98.678589	34.593157
 101	1.0100e-001	99.906921	34.631535
 102	1.0200e-001	100.921631	34.676081
 103	1.0300e-001	102.317810	34.764488
 104	1.0400e-001	103.408813	34.787104
 105	1.0500e-001	104.621887	34.832335
 106	1.0600e-001	106.033325	34.871399
 107	1.0700e-001	106.658936	34.911147
 108	1.0800e-001	108.329773	34.962547
 109	1.0900e-001	109.733582	34.995442
 110	1.1000e-001	110.816956	34.994757
 111	1.1100e-001	111.747742	35.089332
 112	1.1200e-001	112.686157	35.115374
 113	1.1300e-001	114.273071	35.145529
 114	1.1400e-001	115.119934	35.201725
 115	1.1500e-001	116.783142	35.268202
 116	1.1600e-001	117.912292	35.292874
 117	1.1700e-001	118.995667	35.316860
 118	1.1800e-001	120.216370	35.358665
 119	1.1900e-001	121.353149	35.403896
 120	1.2000e-001	122.528076	35.453240
 121	1.2100e-001	123.741150	35.469687
 122	1.2200e-001	124.694824	35.551241
 123	1.2300e-001	126.174927	35.531367
 124	1.2400e-001	127.555847	35.590990
 125	1.2500e-001	128.509521	35.600585
 126	1.2600e-001	130.035400	35.648557
 127	1.2700e-001	130.821228	35.691047
 128	1.2800e-001	132.415771	35.722572
 129	1.2900e-001	133.354187	35.752041
 130	1.3000e-001	134.613037	35.784252
 131	1.3100e-001	135.627747	35.817833
 132	1.3200e-001	136.772156	35.865805
 133	1.3300e-001	138.000488	35.887050
 134	1.3400e-001	139.198303	35.899386
 135	1.3500e-001	140.548706	35.961066
 136	1.3600e-001	141.578674	35.959695
 137	1.3700e-001	143.119812	36.002185
 138	1.3800e-001	144.386292	36.027542
 139	1.3900e-001	145.317078	36.071403
 140	1.4000e-001	146.278381	36.098131
 141	1.4100e-001	147.521973	36.115264
 142	1.4200e-001	148.765564	36.162551
 143	1.4300e-001	150.131226	36.194761
 144	1.4400e-001	151.275635	36.221489
 145	1.4500e-001	152.557373	36.246161
 146	1.4600e-001	153.854370	36.291392
 147	1.4700e-001	154.998779	36.298246
 148	1.4800e-001	156.150818	36.350330
 149	1.4900e-001	156.745911	36.380485
 150	1.5000e-001	158.638000	36.395562
 151	1.5100e-001	159.912109	36.416121
 152	1.5200e-001	160.995483	36.455870
 153	1.5300e-001	162.055969	36.479171
 154	1.5400e-001	163.269043	36.525088
 155	1.5500e-001	164.810181	36.536053
 156	1.5600e-001	165.718079	36.562781
 157	1.5700e-001	166.870117	36.592250
 158	1.5800e-001	168.441772	36.653929
 159	1.5900e-001	169.502258	36.639537
 160	1.6000e-001	170.608521	36.680657
 161	1.6100e-001	171.722412	36.701902
 162	1.6200e-001	172.988892	36.733427
 163	1.6300e-001	174.064636	36.759469
 164	1.6400e-001	175.476074	36.787568
 165	1.6500e-001	176.300049	36.820463
 166	1.6600e-001	177.619934	36.825261
 167	1.6700e-001	178.970337	36.879401
 168	1.6800e-001	180.404663	36.884884
 169	1.6900e-001	181.442261	36.908185
 170	1.7000e-001	182.548523	36.923262
 171	1.7100e-001	183.685303	36.957528
 172	1.7200e-001	184.707642	36.995221
 173	1.7300e-001	186.134338	37.006186
 174	1.7400e-001	187.240601	37.038397
 175	1.7500e-001	188.606262	37.061012
 176	1.7600e-001	189.743042	37.104873
 177	1.7700e-001	191.101074	37.172035
 178	1.7800e-001	192.192078	37.153531
 179	1.7900e-001	193.367004	37.159014
 180	1.8000e-001	193.954468	37.170664
 181	1.8100e-001	195.884705	37.210413
 182	1.8200e-001	196.983337	37.253589
 183	1.8300e-001	197.998047	37.281002
 184	1.8400e-001	199.371338	37.351590
 185	1.8500e-001	200.622559	37.328289
 186	1.8600e-001	201.934814	37.346108
 187	1.8700e-001	203.155518	37.400934
 188	1.8800e-001	204.284668	37.380374
 189	1.8900e-001	205.390930	37.424235
 190	1.9000e-001	206.787109	37.458501
 191	1.9100e-001	207.916260	37.490026
 192	1.9200e-001	208.946228	37.508530
 193	1.9300e-001	210.037231	37.522922
 194	1.9400e-001	211.448669	37.547593
 195	1.9500e-001	212.692261	37.574321
 196	1.9600e-001	213.775635	37.581174
 197	1.9700e-001	214.996338	37.600363
 198	1.9800e-001	216.102600	37.649021
 199	1.9900e-001	216.979980	37.664099
 200	2.0000e-001	218.612671	37.685344
 201	2.0100e-001	219.512939	37.716183
 202	2.0200e-001	221.221924	37.728519
 203	2.0300e-001	222.091675	37.768268
 204	2.0400e-001	223.411560	37.757303
 205	2.0500e-001	224.754333	37.807331
 206	2.0600e-001	225.830078	37.852563
 207	2.0700e-001	226.783752	37.860102
 208	2.0800e-001	228.179932	37.869011
 209	2.0900e-001	229.499817	37.927263
 210	2.1000e-001	230.430603	37.935487
 211	2.1100e-001	231.559753	37.959474
 212	2.1200e-001	233.154297	37.992369
 213	2.1300e-001	234.169006	38.011558
 214	2.1400e-001	235.527039	38.048566
 215	2.1500e-001	236.549377	38.071867
 216	2.1600e-001	237.777710	38.070496
 217	2.1700e-001	239.051819	38.108875
 218	2.1800e-001	240.219116	38.107504
 219	2.1900e-001	241.462708	38.149994
 220	2.2000e-001	242.652893	38.162330
 221	2.2100e-001	243.629456	38.193855
 222	2.2200e-001	244.941711	38.222638
 223	2.2300e-001	246.162415	38.228121
 224	2.2400e-001	247.482300	38.274038
 225	2.2500e-001	248.718262	38.272667
 226	2.2600e-001	249.923706	38.307619
 227	2.2700e-001	250.602722	38.331605
 228	2.2800e-001	252.136230	38.350109
 229	2.2900e-001	253.402710	38.371354
 230	2.3000e-001	254.577637	38.391914
 231	2.3100e-001	255.615234	38.417271
 232	2.3200e-001	257.202148	38.460446
 233	2.3300e-001	258.140564	38.459076
 234	2.3400e-001	259.300232	38.494713
 235	2.3500e-001	260.459900	38.508419
 236	2.3600e-001	261.665344	38.532405
 237	2.3700e-001	262.947083	38.559133
 238	2.3800e-001	264.472961	38.582434
 239	2.3900e-001	265.228271	38.587231
 240	2.4000e-001	266.479492	38.623554
 241	2.4100e-001	267.944336	38.645484
 242	2.4200e-001	269.020081	38.661247
 243	2.4300e-001	270.057678	38.650281
 244	2.4400e-001	271.278381	38.709905
 245	2.4500e-001	272.651672	38.720870
 246	2.4600e-001	273.719788	38.755136
 247	2.4700e-001	275.077820	38.770899
 248	2.4800e-001	276.336670	38.804480
 249	2.4900e-001	277.305603	38.830522
 250	2.5000e-001	278.419495	38.851082
 251	2.5100e-001	279.876709	38.858620
 252	2.5200e-001	278.602600	38.832578
 253	2.5300e-001	277.458191	38.824354
 254	2.5400e-001	276.161194	38.764731
 255	2.5500e-001	275.009155	38.785976
 256	2.5600e-001	273.582458	38.772955
 257	2.5700e-001	272.506714	38.734576
 258	2.5800e-001	271.331787	38.719499
 259	2.5900e-001	270.164490	38.702366
 260	2.6000e-001	268.806458	38.670841
 261	2.6100e-001	267.997742	38.674268
 262	2.6200e-001	266.365051	38.625610
 263	2.6300e-001	265.281677	38.618071
 264	2.6400e-001	263.885498	38.571469
 265	2.6500e-001	262.985229	38.581749
 266	2.6600e-001	261.848450	38.570784
 267	2.6700e-001	260.612488	38.531720
 268	2.6800e-001	259.323120	38.539944
 269	2.6900e-001	258.171082	38.522126
 270	2.7000e-001	256.950378	38.470726
 271	2.7100e-001	255.920410	38.459076
 272	2.7200e-001	254.516602	38.432348
 273	2.7300e-001	253.089905	38.414530
 274	2.7400e-001	252.021790	38.396026
 275	2.7500e-001	250.801086	38.375466
 276	2.7600e-001	249.870300	38.373410
 277	2.7700e-001	248.649597	38.333661
 278	2.7800e-001	247.612000	38.297339
 279	2.7900e-001	246.192932	38.277465
 280	2.8000e-001	244.865417	38.232918
 281	2.8100e-001	243.789673	38.256219
 282	2.8200e-001	242.645264	38.212359
 283	2.8300e-001	241.119385	38.214415
 284	2.8400e-001	240.089417	38.191114
 285	2.8500e-001	239.036560	38.167812
 286	2.8600e-001	237.602234	38.133546
 287	2.8700e-001	236.732483	38.137658
 288	2.8800e-001	235.145569	38.079406
 289	2.8900e-001	233.955383	38.070496
 290	2.9000e-001	233.139038	38.047195
 291	2.9100e-001	231.819153	38.025950
 292	2.9200e-001	230.712891	37.993055
 293	2.9300e-001	229.286194	37.993055
 294	2.9400e-001	228.195190	37.981404
 295	2.9500e-001	226.905823	37.944396
 296	2.9600e-001	225.715637	37.941655
 297	2.9700e-001	224.395752	37.902592
 298	2.9800e-001	223.480225	37.891626
 299	2.9900e-001	222.038269	37.849136
 300	3.0000e-001	220.710754	37.823779
 301	3.0100e-001	219.726563	37.823779
 302	3.0200e-001	218.612671	37.797052
 303	3.0300e-001	217.514038	37.765527
 304	3.0400e-001	216.148376	37.747023
 305	3.0500e-001	214.996338	37.739484
 306	3.0600e-001	213.645935	37.716183
 307	3.0700e-001	212.387085	37.671637
 308	3.0800e-001	211.509705	37.688770
 309	3.0900e-001	210.235596	37.653133
 310	3.1000e-001	208.984375	37.618182
 311	3.1100e-001	207.839966	37.597622
 312	3.1200e-001	206.733704	37.568153
 313	3.1300e-001	205.474854	37.555817
 314	3.1400e-001	204.246521	37.522236
 315	3.1500e-001	202.865601	37.500306
 316	3.1600e-001	201.774597	37.483858
 317	3.1700e-001	200.096130	37.453018
 318	3.1800e-001	199.279785	37.423549
 319	3.1900e-001	198.036194	37.401619
 320	3.2000e-001	196.907043	37.399563
 321	3.2100e-001	195.808411	37.368723
 322	3.2200e-001	194.694519	37.339254
 323	3.2300e-001	193.168640	37.311156
 324	3.2400e-001	191.947937	37.318695
 325	3.2500e-001	190.963745	37.274149
 326	3.2600e-001	189.689636	37.251533
 327	3.2700e-001	188.659668	37.204931
 328	3.2800e-001	187.248230	37.214525
 329	3.2900e-001	186.233521	37.171350
 330	3.3000e-001	184.959412	37.158329
 331	3.3100e-001	183.898926	37.149419
 332	3.3200e-001	182.708740	37.104188
 333	3.3300e-001	181.518555	37.106244
 334	3.3400e-001	180.099487	37.049362
 335	3.3500e-001	178.764343	37.037711
 336	3.3600e-001	177.818298	36.983571
 337	3.3700e-001	176.803589	37.006872
 338	3.3800e-001	175.498962	36.962326
 339	3.3900e-001	174.072266	36.947248
 340	3.4000e-001	172.874451	36.908185
 341	3.4100e-001	171.943665	36.896534
 342	3.4200e-001	170.730591	36.883513
 343	3.4300e-001	169.212341	36.838967
 344	3.4400e-001	168.151855	36.810183
 345	3.4500e-001	166.915894	36.799218
 346	3.4600e-001	165.496826	36.791680
 347	3.4700e-001	164.619446	36.724518
 348	3.4800e-001	163.246155	36.732056
 349	3.4900e-001	162.055969	36.697105
 350	3.5000e-001	160.774231	36.671748
 351	3.5100e-001	159.896851	36.628572
 352	3.5200e-001	158.561707	36.647076
 353	3.5300e-001	157.394409	36.586082
 354	3.5400e-001	156.349182	36.573061
 355	3.5500e-001	154.937744	36.536053
 356	3.5600e-001	153.617859	36.520291
 357	3.5700e-001	152.503967	36.493563
 358	3.5800e-001	151.184082	36.453814
 359	3.5900e-001	150.146484	36.445590
 360	3.6000e-001	148.605347	36.417492
 361	3.6100e-001	147.819519	36.392820
 362	3.6200e-001	146.598816	36.372946
 363	3.6300e-001	145.278931	36.342106
 364	3.6400e-001	144.233704	36.361981
 365	3.6500e-001	142.745972	36.290022
 366	3.6600e-001	141.578674	36.269462
 367	3.6700e-001	140.510559	36.233825
 368	3.6800e-001	139.289856	36.205041
 369	3.6900e-001	138.031006	36.200244
 370	3.7000e-001	137.031555	36.161866
 371	3.7100e-001	135.665894	36.136509
 372	3.7200e-001	134.429932	36.089907
 373	3.7300e-001	133.575439	36.071403
 374	3.7400e-001	132.125854	36.059067
 375	3.7500e-001	131.164551	36.031654
 376	3.7600e-001	129.745483	36.016577
 377	3.7700e-001	128.707886	35.970660
 378	3.7800e-001	127.243042	35.945988
 379	3.7900e-001	126.167297	35.911722
 380	3.8000e-001	125.312805	35.916519
 381	3.8100e-001	123.718262	35.865120
 382	3.8200e-001	122.482300	35.839078
 383	3.8300e-001	121.330261	35.795902
 384	3.8400e-001	120.033264	35.784252
 385	3.8500e-001	118.789673	35.749985
 386	3.8600e-001	117.630005	35.728055
 387	3.8700e-001	116.218567	35.702013
 388	3.8800e-001	115.219116	35.647187
 389	3.8900e-001	114.120483	35.632110
 390	3.9000e-001	112.892151	35.595787
 391	3.9100e-001	111.663818	35.588934
 392	3.9200e-001	110.771179	35.591675
 393	3.9300e-001	109.504700	35.519716
 394	3.9400e-001	108.169556	35.503954
 395	3.9500e-001	106.857300	35.473799
 396	3.9600e-001	105.720520	35.447072
 397	3.9700e-001	104.621887	35.414176
 398	3.9800e-001	103.385925	35.388819
 399	3.9900e-001	102.134705	35.354553
 400	4.0000e-001	100.883484	35.318231
 401	4.0100e-001	99.502563	35.274370
 402	4.0200e-001	98.716736	35.256551
 403	4.0300e-001	97.251892	35.269573
 404	4.0400e-001	95.855713	35.213376
 405	4.0500e-001	94.985962	35.173627
 406	4.0600e-001	93.772888	35.145529
 407	4.0700e-001	92.460632	35.113318
 408	4.0800e-001	90.919495	35.063975
 409	4.0900e-001	90.141296	35.060548
 410	4.1000e-001	89.050293	35.009834
 411	4.1100e-001	87.730408	34.998869
 412	4.1200e-001	86.662292	34.951582
 413	4.1300e-001	85.395813	34.926910
 414	4.1400e-001	84.152222	34.889217
 415	4.1500e-001	82.832336	34.850839
 416	4.1600e-001	81.489563	34.833020
 417	4.1700e-001	80.619812	34.774082
 418	4.1800e-001	79.597473	34.756264
 419	4.1900e-001	77.896118	34.736390
 420	4.2000e-001	77.102661	34.646612
 421	4.2100e-001	75.729370	34.656892
 422	4.2200e-001	74.584961	34.621940
 423	4.2300e-001	73.623657	34.596583
 424	4.2400e-001	72.143555	34.560261
 425	4.2500e-001	70.884705	34.530107
 426	4.2600e-001	69.557190	34.472539
 427	4.2700e-001	68.778992	34.450609
 428	4.2800e-001	67.459106	34.421825
 429	4.2900e-001	66.368103	34.353293
 430	4.3000e-001	65.063477	34.345754
 431	4.3100e-001	63.781738	34.318341
 432	4.3200e-001	62.492371	34.267627
 433	4.3300e-001	61.416626	34.251865
 434	4.3400e-001	60.028076	34.191556
 435	4.3500e-001	59.150696	34.166884
 436	4.3600e-001	58.052063	34.122338
 437	4.3700e-001	56.419373	34.072310
 438	4.3800e-001	55.519104	34.043526
 439	4.3900e-001	53.993225	34.006518
 440	4.4000e-001	52.947998	33.946895
 441	4.4100e-001	52.024841	33.886586
 442	4.4200e-001	50.704956	33.859859
 443	4.4300e-001	49.354553	33.822166
 444	4.4400e-001	48.324585	33.755689
 445	4.4500e-001	47.317505	33.748836
 446	4.4600e-001	45.837402	33.694010
 447	4.4700e-001	44.578552	33.650149
 448	4.4800e-001	43.525696	33.614512
 449	4.4900e-001	42.083740	33.541868
 450	4.5000e-001	41.130066	33.478133
 451	4.5100e-001	39.505005	33.434272
 452	4.5200e-001	38.673401	33.378760
 453	4.5300e-001	37.582397	33.325990
 454	4.5400e-001	36.201477	33.269794
 455	4.5500e-001	34.721375	33.226618
 456	4.5600e-001	33.981323	33.175904
 457	4.5700e-001	32.531738	33.063511
 458	4.5800e-001	31.143188	33.059399
 459	4.5900e-001	30.189514	33.000461
 460	4.6000e-001	28.984070	32.917537
 461	4.6100e-001	27.519226	32.863396
 462	4.6200e-001	26.664734	32.745520
 463	4.6300e-001	25.215149	32.698233
 464	4.6400e-001	24.261475	32.655742
 465	4.6500e-001	23.094177	32.570762
 466	4.6600e-001	21.644592	32.451516
 467	4.6700e-001	20.614624	32.396690
 468	4.6800e-001	19.416809	32.302800
 469	4.6900e-001	18.081665	32.229470
 470	4.7000e-001	16.929626	32.145861
 471	4.7100e-001	15.838623	32.025929
 472	4.7200e-001	14.595032	31.901199
 473	4.7300e-001	12.969971	31.773729
 474	4.7400e-001	12.031555	31.694231
 475	4.7500e-001	10.848999	31.554425
 476	4.7600e-001	9.628296	31.465333
 477	4.7700e-001	8.605957	31.286463
 478	4.7800e-001	7.476807	31.178867
 479	4.7900e-001	6.118774	31.008906
 480	4.8000e-001	5.027771	30.851281
 481	4.8100e-001	3.768921	30.677894
 482	4.8200e-001	2.265930	30.501080
 483	4.8300e-001	1.525879	30.301651
 484	4.8400e-001	0.129700	30.078235
 485	4.8500e-001	-1.091003	29.865784
 486	4.8600e-001	-2.235413	29.626605
 487	4.8700e-001	-3.402710	29.361385
 488	4.8800e-001	-4.539490	29.082457
 489	4.8900e-001	-5.859375	28.772005
 490	4.9000e-001	-7.011414	28.432084
 491	4.9100e-001	-8.178711	28.090106
 492	4.9200e-001	-9.468079	27.688506
 493	4.9300e-001	-11.001587	27.298556
 494	4.9400e-001	-11.657715	26.846241
 495	4.9500e-001	-12.817383	26.348695
 496	4.9600e-001	-14.114380	25.853891
 497	4.9700e-001	-15.266418	25.296721
 498	4.9800e-001	-16.639709	24.695691
 499	4.9900e-001	-17.845154	24.052171
 500	5.0000e-001	-19.111633	23.324355
 501	5.0100e-001	-19.912720	22.623268
 502	5.0200e-001	-21.331787	21.816640
 503	5.0300e-001	-22.224426	20.996306
 504	5.0400e-001	-23.559570	20.133482
 505	5.0500e-001	-25.016785	19.204866
 506	5.0600e-001	-26.252747	18.230334
 507	5.0700e-001	-27.320862	17.217423
 508	5.0800e-001	-28.190613	16.142148
 509	5.0900e-001	-29.670715	15.081265
 510	5.1000e-001	-30.822754	13.936772
 511	5.1100e-001	-32.081604	12.763495
 512	5.1200e-001	-33.538818	11.544302
 513	5.1300e-001	-34.339905	10.351151
 514	5.1400e-001	-35.850525	9.147035
 515	5.1500e-001	-36.827087	7.910023
 516	5.1600e-001	-38.040161	6.679864
 517	5.1700e-001	-39.062500	5.431202
 518	5.1800e-001	-40.519714	4.180483
 519	5.1900e-001	-41.809082	2.957863
 520	5.2000e-001	-42.930603	1.755803
 521	5.2100e-001	-44.166565	0.546204
 522	5.2200e-001	-45.051575	-0.599659
 523	5.2300e-001	-46.432495	-1.779789
 524	5.2400e-001	-47.676086	-2.849582
 525	5.2500e-001	-48.889160	-3.940619
 526	5.2600e-001	-50.079346	-4.942565
 527	5.2700e-001	-51.216125	-5.950678
 528	5.2800e-001	-52.383423	-6.881350
 529	5.2900e-001	-53.878784	-7.756510
 530	5.3000e-001	-55.236816	-8.624131
 531	5.3100e-001	-56.076050	-9.421850
 532	5.3200e-001	-57.258606	-10.184617
 533	5.3300e-001	-58.555603	-10.891187
 534	5.3400e-001	-59.730530	-11.609408
 535	5.3500e-001	-60.981750	-12.248816
 536	5.3600e-001	-62.263489	-12.884112
 537	5.3700e-001	-63.461304	-13.477604
 538	5.3800e-001	-64.697266	-14.014899
 539	5.3900e-001	-65.795898	-14.608390
 540	5.4000e-001	-66.696167	-15.135406
 541	5.4100e-001	-68.199158	-15.601427
 542	5.4200e-001	-69.297791	-16.090749
 543	5.4300e-001	-70.343018	-16.545119
 544	5.4400e-001	-71.731567	-16.959741
 545	5.4500e-001	-72.837830	-17.412056
 546	5.4600e-001	-73.883057	-17.801320
 547	5.4700e-001	-75.531006	-18.200179
 548	5.4800e-001	-76.278687	-18.558605
 549	5.4900e-001	-77.789307	-18.932107
 550	5.5000e-001	-78.765869	-19.254210
 551	5.5100e-001	-80.139160	-19.596872
 552	5.5200e-001	-81.230164	-19.923772
 553	5.5300e-001	-82.611084	-20.250672
 554	5.5400e-001	-83.808899	-20.511781
 555	5.5500e-001	-84.808350	-20.844164
 556	5.5600e-001	-86.051941	-21.126518
 557	5.5700e-001	-87.165833	-21.378717
 558	5.5800e-001	-88.371277	-21.636400
 559	5.5900e-001	-89.752197	-21.946852
 560	5.6000e-001	-91.079712	-22.154505
 561	5.6100e-001	-92.254639	-22.410132
 562	5.6200e-001	-93.322754	-22.649996
 563	5.6300e-001	-94.581604	-22.888489
 564	5.6400e-001	-95.764160	-23.122870
 565	5.6500e-001	-96.946716	-23.344230
 566	5.6600e-001	-97.976685	-23.575870
 567	5.6700e-001	-99.273682	-23.772558
 568	5.6800e-001	-100.570679	-24.024072
 569	5.6900e-001	-101.676941	-24.200201
 570	5.7000e-001	-103.088379	-24.392092
 571	5.7100e-001	-104.187012	-24.600431
 572	5.7200e-001	-105.224609	-24.801916
 573	5.7300e-001	-106.582642	-24.968450
 574	5.7400e-001	-107.803345	-25.180216
 575	5.7500e-001	-108.619690	-25.376219
 576	5.7600e-001	-110.061646	-25.543438
 577	5.7700e-001	-111.404419	-25.742183
 578	5.7800e-001	-112.564087	-25.905290
 579	5.7900e-001	-113.677979	-26.088272
 580	5.8000e-001	-114.830017	-26.191756
 581	5.8100e-001	-116.180420	-26.412431
 582	5.8200e-001	-117.294312	-26.598839
 583	5.8300e-001	-118.568420	-26.772912
 584	5.8400e-001	-119.697571	-26.913403
 585	5.8500e-001	-121.086121	-27.080623
 586	5.8600e-001	-122.077942	-27.234135
 587	5.8700e-001	-123.535156	-27.389704
 588	5.8800e-001	-124.481201	-27.527455
 589	5.8900e-001	-125.907898	-27.674114
 590	5.9000e-001	-126.953125	-27.842019
 591	5.9100e-001	-127.868652	-27.958524
 592	5.9200e-001	-129.455566	-28.121631
 593	5.9300e-001	-130.744934	-28.247731
 594	5.9400e-001	-131.675720	-28.406041
 595	5.9500e-001	-133.224487	-28.543106
 596	5.9600e-001	-134.185791	-28.639052
 597	5.9700e-001	-135.314941	-28.793250
 598	5.9800e-001	-136.466980	-28.911811
 599	5.9900e-001	-137.985229	-29.066009
 600	6.0000e-001	-139.312744	-29.222949
 601	6.0100e-001	-140.098572	-29.337398
 602	6.0200e-001	-141.525269	-29.448421
 603	6.0300e-001	-142.364502	-29.580003
 604	6.0400e-001	-143.638611	-29.690341
 605	6.0500e-001	-144.905090	-29.828091
 606	6.0600e-001	-145.660400	-29.918554
 607	6.0700e-001	-147.537231	-30.060416
 608	6.0800e-001	-148.628235	-30.169383
 609	6.0900e-001	-149.787903	-30.279720
 610	6.1000e-001	-150.894165	-30.418841
 611	6.1100e-001	-152.061462	-30.521640
 612	6.1200e-001	-152.763367	-30.599767
 613	6.1300e-001	-154.548645	-30.747112
 614	6.1400e-001	-155.738831	-30.847855
 615	6.1500e-001	-157.173157	-30.952024
 616	6.1600e-001	-158.058167	-31.044543
 617	6.1700e-001	-159.408569	-31.149398
 618	6.1800e-001	-160.736084	-31.259050
 619	6.1900e-001	-161.857605	-31.360478
 620	6.2000e-001	-163.299561	-31.457794
 621	6.2100e-001	-164.070129	-31.567446
 622	6.2200e-001	-165.489197	-31.683951
 623	6.2300e-001	-166.854858	-31.775100
 624	6.2400e-001	-167.640686	-31.809366
 625	6.2500e-001	-169.219971	-31.924501
 626	6.2600e-001	-170.143127	-32.031411
 627	6.2700e-001	-171.325684	-32.091035
 628	6.2800e-001	-172.546387	-32.217134
 629	6.2900e-001	-173.805237	-32.307597
 630	6.3000e-001	-174.934387	-32.400116
 631	6.3100e-001	-176.322937	-32.486467
 632	6.3200e-001	-177.558899	-32.551573
 633	6.3300e-001	-178.466797	-32.657798
 634	6.3400e-001	-179.847717	-32.733870
 635	6.3500e-001	-181.221008	-32.818850
 636	6.3600e-001	-182.128906	-32.897662
 637	6.3700e-001	-183.425903	-32.977160
 638	6.3800e-001	-184.494019	-33.079959
 639	6.3900e-001	-185.783386	-33.152603
 640	6.4000e-001	-186.851501	-33.213597
 641	6.4100e-001	-188.499451	-33.310228
 642	6.4200e-001	-189.231873	-33.397264
 643	6.4300e-001	-190.582275	-33.450720
 644	6.4400e-001	-191.841125	-33.533644
 645	6.4500e-001	-192.817688	-33.606974
 646	6.4600e-001	-194.374084	-33.671394
 647	6.4700e-001	-195.228577	-33.699493
 648	6.4800e-001	-196.563721	-33.815313
 649	6.4900e-001	-198.486328	-33.909202
 650	6.5000e-001	-198.928833	-33.964713
 651	6.5100e-001	-200.141907	-33.993497
 652	6.5200e-001	-201.690674	-34.078477
 653	6.5300e-001	-202.453613	-34.138101
 654	6.5400e-001	-203.948975	-34.218969
 655	6.5500e-001	-204.978943	-34.287502
 656	6.5600e-001	-206.130981	-34.342328
 657	6.5700e-001	-207.489014	-34.417713
 658	6.5800e-001	-208.724976	-34.479393
 659	6.5900e-001	-209.564209	-34.554093
 660	6.6000e-001	-211.067200	-34.589730
 661	6.6100e-001	-212.234497	-34.649353
 662	6.6200e-001	-213.394165	-34.692529
 663	6.6300e-001	-214.790344	-34.765859
 664	6.6400e-001	-215.858459	-34.818629
 665	6.6500e-001	-217.163086	-34.917315
 666	6.6600e-001	-218.177795	-34.962547
 667	6.6700e-001	-219.413757	-35.024911
 668	6.6800e-001	-220.497131	-35.070143
 669	6.6900e-001	-221.557617	-35.121542
 670	6.7000e-001	-223.007202	-35.180480
 671	6.7100e-001	-224.090576	-35.229138
 672	6.7200e-001	-225.387573	-35.281223
 673	6.7300e-001	-226.707458	-35.342217
 674	6.7400e-001	-227.508545	-35.426512
 675	6.7500e-001	-229.225159	-35.444330
 676	6.7600e-001	-230.079651	-35.501212
 677	6.7700e-001	-231.605530	-35.570430
 678	6.7800e-001	-232.559204	-35.615662
 679	6.7900e-001	-233.688354	-35.615662
 680	6.8000e-001	-234.939575	-35.669117
 681	6.8100e-001	-236.160278	-35.725999
 682	6.8200e-001	-237.106323	-35.769860
 683	6.8300e-001	-238.555908	-35.833595
 684	6.8400e-001	-239.746094	-35.869232
 685	6.8500e-001	-240.959167	-35.943932
 686	6.8600e-001	-242.263794	-35.944618
 687	6.8700e-001	-243.209839	-36.020004
 688	6.8800e-001	-244.659424	-36.059067
 689	6.8900e-001	-245.773315	-36.076886
 690	6.9000e-001	-247.039795	-36.157069
 691	6.9100e-001	-248.214722	-36.191335
 692	6.9200e-001	-249.435425	-36.220804
 693	6.9300e-001	-250.350952	-36.297560
 694	6.9400e-001	-251.724243	-36.346218
 695	6.9500e-001	-252.914429	-36.381855
 696	6.9600e-001	-254.348755	-36.425031
 697	6.9700e-001	-255.462646	-36.481227
 698	6.9800e-001	-256.439209	-36.495619
 699	6.9900e-001	-257.812500	-36.547704
 700	7.0000e-001	-259.033203	-36.588138
 701	7.0100e-001	-260.139465	-36.616236
 702	7.0200e-001	-261.459351	-36.677916
 703	7.0300e-001	-262.756348	-36.706699
 704	7.0400e-001	-263.549805	-36.756043
 705	7.0500e-001	-264.968872	-36.784826
 706	7.0600e-001	-265.975952	-36.828002
 707	7.0700e-001	-267.341614	-36.861583
 708	7.0800e-001	-268.867493	-36.928745
 709	7.0900e-001	-270.011902	-36.930801
 710	7.1000e-001	-270.935059	-36.981515
 711	7.1100e-001	-272.087097	-37.018522
 712	7.1200e-001	-273.445129	-37.085684
 713	7.1300e-001	-274.368286	-37.095964
 714	7.1400e-001	-276.084900	-37.101447
 715	7.1500e-001	-277.023315	-37.166552
 716	7.1600e-001	-278.236389	-37.193965
 717	7.1700e-001	-279.510498	-37.215211
 718	7.1800e-001	-280.746460	-37.275519
 719	7.1900e-001	-281.745911	-37.322121
 720	7.2000e-001	-283.081055	-37.360499
 721	7.2100e-001	-283.973694	-37.435200
 722	7.2200e-001	-285.186768	-37.424920
 723	7.2300e-001	-286.766052	-37.455760
 724	7.2400e-001	-287.620544	-37.494823
 725	7.2500e-001	-288.833618	-37.543481
 726	7.2600e-001	-290.077209	-37.559244
 727	7.2700e-001	-291.069031	-37.613384
 728	7.2800e-001	-292.320251	-37.638741
 729	7.2900e-001	-294.136047	-37.675749
 730	7.3000e-001	-294.937134	-37.725778
 731	7.3100e-001	-296.249390	-37.746338
 732	7.3200e-001	-297.492981	-37.781974
 733	7.3300e-001	-298.645020	-37.825150
 734	7.3400e-001	-299.934387	-37.869696
 735	7.3500e-001	-301.361084	-37.930690
 736	7.3600e-001	-302.238464	-37.918354
 737	7.3700e-001	-303.451538	-37.962900
 738	7.3800e-001	-304.595947	-37.986887
 739	7.3900e-001	-306.007385	-38.021153
 740	7.4000e-001	-306.991577	-38.058846
 741	7.4100e-001	-308.227539	-38.118469
 742	7.4200e-001	-309.532166	-38.145197
 743	7.4300e-001	-310.844421	-38.176036
 744	7.4400e-001	-312.011719	-38.194540
 745	7.4500e-001	-312.850952	-38.228121
 746	7.4600e-001	-314.231873	-38.267185
 747	7.4700e-001	-315.536499	-38.291171
 748	7.4800e-001	-316.703796	-38.354221
 749	7.4900e-001	-317.749023	-38.383690
 750	7.5000e-001	-318.969727	-38.409732
 751	7.5100e-001	-320.129395	-38.435089
 752	7.5200e-001	-318.878174	-38.446054
 753	7.5300e-001	-318.099976	-38.414530
 754	7.5400e-001	-316.764832	-38.375466
 755	7.5500e-001	-315.238953	-38.382319
 756	7.5600e-001	-314.178467	-38.366557
 757	7.5700e-001	-312.919617	-38.382319
 758	7.5800e-001	-311.889648	-38.345312
 759	7.5900e-001	-310.585022	-38.308304
 760	7.6000e-001	-309.280396	-38.278150
 761	7.6100e-001	-308.074951	-38.274038
 762	7.6200e-001	-307.067871	-38.217156
 763	7.6300e-001	-306.060791	-38.233604
 764	7.6400e-001	-304.428101	-38.189743
 765	7.6500e-001	-303.619385	-38.184260
 766	7.6600e-001	-302.474976	-38.162330
 767	7.6700e-001	-300.865173	-38.151365
 768	7.6800e-001	-299.980164	-38.130805
 769	7.6900e-001	-298.683167	-38.103392
 770	7.7000e-001	-297.424316	-38.064328
 771	7.7100e-001	-296.310425	-38.058846
 772	7.7200e-001	-294.830322	-38.077350
 773	7.7300e-001	-293.640137	-38.021838
 774	7.7400e-001	-292.335510	-37.986201
 775	7.7500e-001	-291.488647	-37.986887
 776	7.7600e-001	-290.275574	-37.963586
 777	7.7700e-001	-289.039612	-37.943711
 778	7.7800e-001	-287.536621	-37.912186
 779	7.7900e-001	-286.323547	-37.879976
 780	7.8000e-001	-285.385132	-37.864213
 781	7.8100e-001	-284.202576	-37.804590
 782	7.8200e-001	-283.020020	-37.819667
 783	7.8300e-001	-281.822205	-37.781289
 784	7.8400e-001	-280.532837	-37.776492
 785	7.8500e-001	-279.296875	-37.738799
 786	7.8600e-001	-278.182983	-37.715498
 787	7.8700e-001	-277.282715	-37.686029
 788	7.8800e-001	-275.894165	-37.664784
 789	7.8900e-001	-274.650574	-37.637371
 790	7.9000e-001	-273.315430	-37.597622
 791	7.9100e-001	-272.003174	-37.577062
 792	7.9200e-001	-270.935059	-37.555817
 793	7.9300e-001	-269.943237	-37.537999
 794	7.9400e-001	-268.371582	-37.507159
 795	7.9500e-001	-267.379761	-37.483858
 796	7.9600e-001	-266.288757	-37.454389
 797	7.9700e-001	-264.495850	-37.376947
 798	7.9800e-001	-263.877869	-37.392024
 799	7.9900e-001	-262.664795	-37.373521
 800	8.0000e-001	-261.230469	-37.339254
 801	8.0100e-001	-260.131836	-37.315268
 802	8.0200e-001	-259.109497	-37.302247
 803	8.0300e-001	-257.804871	-37.293338
 804	8.0400e-001	-256.652832	-37.246736
 805	8.0500e-001	-255.172729	-37.228917
 806	8.0600e-001	-254.112244	-37.211099
 807	8.0700e-001	-253.051758	-37.165182
 808	8.0800e-001	-251.716614	-37.137083
 809	8.0900e-001	-250.556946	-37.086369
 810	8.1000e-001	-249.244690	-37.083628
 811	8.1100e-001	-248.107910	-37.047306
 812	8.1200e-001	-246.902466	-37.024005
 813	8.1300e-001	-245.704651	-37.000018
 814	8.1400e-001	-244.651794	-36.963696
 815	8.1500e-001	-243.377686	-36.923947
 816	8.1600e-001	-242.141724	-36.911612
 817	8.1700e-001	-240.966797	-36.873233
 818	8.1800e-001	-239.883423	-36.811554
 819	8.1900e-001	-238.647461	-36.809498
 820	8.2000e-001	-237.472534	-36.774546
 821	8.2100e-001	-236.236572	-36.751931
 822	8.2200e-001	-234.848022	-36.715609
 823	8.2300e-001	-233.879089	-36.695049
 824	8.2400e-001	-232.704163	-36.670377
 825	8.2500e-001	-231.567383	-36.626516
 826	8.2600e-001	-229.965210	-36.580599
 827	8.2700e-001	-229.003906	-36.588138
 828	8.2800e-001	-227.699280	-36.517550
 829	8.2900e-001	-226.783752	-36.475745
 830	8.3000e-001	-225.257874	-36.435996
 831	8.3100e-001	-224.098206	-36.419548
 832	8.3200e-001	-222.923279	-36.403786
 833	8.3300e-001	-221.618652	-36.350330
 834	8.3400e-001	-220.405579	-36.316749
 835	8.3500e-001	-219.108582	-36.304413
 836	8.3600e-001	-217.979431	-36.266035
 837	8.3700e-001	-216.957092	-36.248902
 838	8.3800e-001	-215.660095	-36.206412
 839	8.3900e-001	-214.668274	-36.177628
 840	8.4000e-001	-213.516235	-36.144047
 841	8.4100e-001	-212.249756	-36.100187
 842	8.4200e-001	-210.876465	-36.063179
 843	8.4300e-001	-209.922791	-36.029598
 844	8.4400e-001	-208.663940	-35.993961
 845	8.4500e-001	-207.481384	-35.961066
 846	8.4600e-001	-205.993652	-35.914463
 847	8.4700e-001	-204.986572	-35.882938
 848	8.4800e-001	-203.514099	-35.846616
 849	8.4900e-001	-202.331543	-35.799329
 850	8.5000e-001	-201.675415	-35.772601
 851	8.5100e-001	-200.286865	-35.718460
 852	8.5200e-001	-199.165344	-35.691733
 853	8.5300e-001	-197.631836	-35.651299
 854	8.5400e-001	-196.479797	-35.606067
 855	8.5500e-001	-195.365906	-35.550556
 856	8.5600e-001	-194.244385	-35.527940
 857	8.5700e-001	-193.008423	-35.479282
 858	8.5800e-001	-191.711426	-35.436107
 859	8.5900e-001	-190.505981	-35.423085
 860	8.6000e-001	-189.460754	-35.364833
 861	8.6100e-001	-188.316345	-35.314804
 862	8.6200e-001	-186.714172	-35.294930
 863	8.6300e-001	-185.829163	-35.235992
 864	8.6400e-001	-184.448242	-35.170200
 865	8.6500e-001	-183.250427	-35.147585
 866	8.6600e-001	-182.121277	-35.100983
 867	8.6700e-001	-181.152344	-35.063975
 868	8.6800e-001	-179.718018	-35.026967
 869	8.6900e-001	-178.535461	-34.988589
 870	8.7000e-001	-177.406311	-34.920057
 871	8.7100e-001	-176.025391	-34.880308
 872	8.7200e-001	-174.964905	-34.828223
 873	8.7300e-001	-174.011230	-34.765173
 874	8.7400e-001	-172.515869	-34.728166
 875	8.7500e-001	-171.470642	-34.674710
 876	8.7600e-001	-170.417786	-34.625367
 877	8.7700e-001	-169.036865	-34.573968
 878	8.7800e-001	-167.701721	-34.529421
 879	8.7900e-001	-166.587830	-34.469113
 880	8.8000e-001	-165.687561	-34.424567
 881	8.8100e-001	-164.314270	-34.374538
 882	8.8200e-001	-163.070679	-34.319027
 883	8.8300e-001	-161.804199	-34.275166
 884	8.8400e-001	-160.621643	-34.209375
 885	8.8500e-001	-159.576416	-34.129877
 886	8.8600e-001	-157.913208	-34.087387
 887	8.8700e-001	-157.119751	-34.044896
 888	8.8800e-001	-155.853271	-33.967455
 889	8.8900e-001	-154.792786	-33.916741
 890	8.9000e-001	-153.350830	-33.872195
 891	8.9100e-001	-152.023315	-33.772822
 892	8.9200e-001	-151.077271	-33.728962
 893	8.9300e-001	-149.902344	-33.667282
 894	8.9400e-001	-148.536682	-33.589841
 895	8.9500e-001	-147.514343	-33.548036
 896	8.9600e-001	-146.171570	-33.456888
 897	8.9700e-001	-145.065308	-33.409600
 898	8.9800e-001	-143.936157	-33.342438
 899	8.9900e-001	-142.486572	-33.276647
 900	9.0000e-001	-141.265869	-33.211541
 901	9.0100e-001	-140.129089	-33.175219
 902	9.0200e-001	-139.129639	-33.064196
 903	9.0300e-001	-137.741089	-32.993608
 904	9.0400e-001	-136.596680	-32.920963
 905	9.0500e-001	-135.261536	-32.843522
 906	9.0600e-001	-134.292603	-32.753059
 907	9.0700e-001	-132.759094	-32.700974
 908	9.0800e-001	-131.881714	-32.620106
 909	9.0900e-001	-130.523682	-32.550202
 910	9.1000e-001	-129.356384	-32.458369
 911	9.1100e-001	-127.983093	-32.384354
 912	9.1200e-001	-127.075195	-32.287038
 913	9.1300e-001	-125.640869	-32.234953
 914	9.1400e-001	-124.366760	-32.131469
 915	9.1500e-001	-123.153687	-32.062936
 916	9.1600e-001	-122.123718	-31.967676
 917	9.1700e-001	-121.047974	-31.881325
 918	9.1800e-001	-120.162964	-31.789491
 919	9.1900e-001	-118.728638	-31.712735
 920	9.2000e-001	-117.515564	-31.598286
 921	9.2100e-001	-116.294861	-31.494802
 922	9.2200e-001	-114.906311	-31.433122
 923	9.2300e-001	-113.563538	-31.331694
 924	9.2400e-001	-112.609863	-31.238490
 925	9.2500e-001	-111.213684	-31.137062
 926	9.2600e-001	-109.985352	-31.041116
 927	9.2700e-001	-108.802795	-30.893086
 928	9.2800e-001	-107.856750	-30.849225
 929	9.2900e-001	-106.788635	-30.734776
 930	9.3000e-001	-105.247498	-30.625124
 931	9.3100e-001	-104.034424	-30.534661
 932	9.3200e-001	-102.653503	-30.418156
 933	9.3300e-001	-101.821899	-30.303021
 934	9.3400e-001	-100.448608	-30.189943
 935	9.3500e-001	-98.983765	-30.115242
 936	9.3600e-001	-98.106384	-29.997366
 937	9.3700e-001	-96.900940	-29.869896
 938	9.3800e-001	-95.748901	-29.780118
 939	9.3900e-001	-94.520569	-29.649906
 940	9.4000e-001	-93.467712	-29.507359
 941	9.4100e-001	-92.117310	-29.417581
 942	9.4200e-001	-90.888977	-29.272978
 943	9.4300e-001	-89.714050	-29.170864
 944	9.4400e-001	-88.699341	-29.035855
 945	9.4500e-001	-87.425232	-28.917979
 946	9.4600e-001	-86.013794	-28.767893
 947	9.4700e-001	-84.938049	-28.657556
 948	9.4800e-001	-83.778381	-28.518435
 949	9.4900e-001	-82.496643	-28.379999
 950	9.5000e-001	-81.405640	-28.242249
 951	9.5100e-001	-80.284119	-28.114778
 952	9.5200e-001	-78.750610	-27.965377
 953	9.5300e-001	-77.751160	-27.805011
 954	9.5400e-001	-76.354980	-27.693303
 955	9.5500e-001	-75.401306	-27.517860
 956	9.5600e-001	-74.073792	-27.350641
 957	9.5700e-001	-73.158264	-27.242359
 958	9.5800e-001	-72.006226	-27.055265
 959	9.5900e-001	-70.495605	-26.896270
 960	9.6000e-001	-69.229126	-26.736589
 961	9.6100e-001	-68.367004	-26.568685
 962	9.6200e-001	-66.787720	-26.404892
 963	9.6300e-001	-65.757751	-26.226707
 964	9.6400e-001	-64.346313	-26.085530
 965	9.6500e-001	-63.415527	-25.890213
 966	9.6600e-001	-62.332153	-25.713399
 967	9.6700e-001	-61.149597	-25.540012
 968	9.6800e-001	-59.898376	-25.368680
 969	9.6900e-001	-58.494568	-25.161027
 970	9.7000e-001	-57.182312	-24.986269
 971	9.7100e-001	-56.175232	-24.792322
 972	9.7200e-001	-54.893494	-24.592892
 973	9.7300e-001	-53.947449	-24.381127
 974	9.7400e-001	-52.574158	-24.166620
 975	9.7500e-001	-51.483154	-23.943204
 976	9.7600e-001	-50.437927	-23.745830
 977	9.7700e-001	-48.767090	-23.505967
 978	9.7800e-001	-48.049927	-23.277068
 979	9.7900e-001	-46.485901	-23.023498
 980	9.8000e-001	-45.425415	-22.795970
 981	9.8100e-001	-44.273376	-22.547882
 982	9.8200e-001	-42.892456	-22.303221
 983	9.8300e-001	-41.831970	-22.046224
 984	9.8400e-001	-40.489197	-21.776891
 985	9.8500e-001	-39.604187	-21.525377
 986	9.8600e-001	-38.230896	-21.238911
 987	9.8700e-001	-37.086487	-20.955872
 988	9.8800e-001	-35.766602	-20.678315
 989	9.8900e-001	-34.957886	-20.376087
 990	9.9000e-001	-33.546448	-20.063579
 991	9.9100e-001	-32.196045	-19.757924
 992	9.9200e-001	-31.074524	-19.440618
 993	9.9300e-001	-29.792786	-19.126054
 994	9.9400e-001	-28.640747	-18.803266
 995	9.9500e-001	-27.412415	-18.435246
 996	9.9600e-001	-26.016235	-18.103549
 997	9.9700e-001	-25.192261	-17.745124
 998	9.9800e-001	-23.757935	-17.405888
 999	9.9900e-001	-22.575378	-17.026218
1000	1.0000e+000	-21.186829	-16.636953
1001	1.0010e+000	-20.660400	-16.260024
1002	1.0020e+000	-19.172668	-15.869389
1003	1.0030e+000	-17.738342	-15.474641
1004	1.0040e+000	-16.708374	-15.049740
1005	1.0050e+000	-15.777588	-14.637174
1006	1.0060e+000	-14.335632	-14.195825
1007	1.0070e+000	-13.252258	-13.763385
1008	1.0080e+000	-12.023926	-13.309699
1009	1.0090e+000	-10.856628	-12.852587
1010	1.0100e+000	-9.948730	-12.354356
1011	1.0110e+000	-8.132935	-11.878740
1012	1.0120e+000	-7.110596	-11.364061
1013	1.0130e+000	-5.851746	-10.850067
1014	1.0140e+000	-4.432678	-10.326479
1015	1.0150e+000	-3.684998	-9.758345
1016	1.0160e+000	-2.220154	-9.219679
1017	1.0170e+000	-1.129150	-8.665936
1018	1.0180e+000	0.030518	-8.083410
1019	1.0190e+000	0.968933	-7.498828
1020	1.0200e+000	2.555847	-6.865587
1021	1.0210e+000	3.684998	-6.254277
1022	1.0220e+000	4.844666	-5.613498
1023	1.0230e+000	5.935669	-4.953530
1024	1.0240e+000	7.072449	-4.287394
1025	1.0250e+000	8.377075	-3.566432
1026	1.0260e+000	9.574890	-2.879051
1027	1.0270e+000	10.429382	-2.145068
1028	1.0280e+000	11.978149	-1.398063
1029	1.0290e+000	13.031006	-0.605142
1030	1.0300e+000	14.411926	0.166534
1031	1.0310e+000	15.571594	0.989609
1032	1.0320e+000	16.754150	1.821594
1033	1.0330e+000	18.135071	2.650838
1034	1.0340e+000	19.195557	3.521886
1035	1.0350e+000	20.187378	4.375116
1036	1.0360e+000	21.469116	5.274948
1037	1.0370e+000	22.842407	6.193969
1038	1.0380e+000	24.108887	7.141088
1039	1.0390e+000	24.978638	8.044346
1040	1.0400e+000	26.245117	9.062054
1041	1.0410e+000	27.626038	10.009859
1042	1.0420e+000	28.717041	11.013860
1043	1.0430e+000	30.136108	12.005526
1044	1.0440e+000	31.280518	13.019122
1045	1.0450e+000	32.341003	14.038885
1046	1.0460e+000	33.599854	15.064817
1047	1.0470e+000	34.759521	16.068133
1048	1.0480e+000	36.056519	17.115995
1049	1.0490e+000	37.277222	18.146724
1050	1.0500e+000	38.345337	19.182250
1051	1.0510e+000	39.474487	20.162951
1052	1.0520e+000	40.847778	21.187512
1053	1.0530e+000	41.816711	22.175751
1054	1.0540e+000	43.457031	23.127667
1055	1.0550e+000	44.502258	24.051485
1056	1.0560e+000	45.715332	24.967765
1057	1.0570e+000	46.783447	25.824422
1058	1.0580e+000	48.171997	26.617343
1059	1.0590e+000	49.217224	27.371886
1060	1.0600e+000	50.590515	28.044190
1061	1.0610e+000	51.826477	28.657556
1062	1.0620e+000	52.764893	29.210613
1063	1.0630e+000	54.328918	29.674578
1064	1.0640e+000	55.244446	30.084403
1065	1.0650e+000	56.610107	30.462702
1066	1.0660e+000	57.685852	30.739573
1067	1.0670e+000	58.822632	31.041802
1068	1.0680e+000	60.333252	31.303596
1069	1.0690e+000	61.424255	31.505082
1070	1.0700e+000	62.698364	31.692861
1071	1.0710e+000	63.781738	31.890920
1072	1.0720e+000	64.865112	32.051971
1073	1.0730e+000	66.192627	32.205484
1074	1.0740e+000	67.382813	32.345290
1075	1.0750e+000	68.580627	32.489894
1076	1.0760e+000	69.969177	32.616679
1077	1.0770e+000	70.846558	32.699603
1078	1.0780e+000	72.029114	32.868879
1079	1.0790e+000	73.333740	32.944264
1080	1.0800e+000	74.569702	33.051860
1081	1.0810e+000	75.775146	33.149177
1082	1.0820e+000	76.950073	33.231416
1083	1.0830e+000	78.254700	33.328732
1084	1.0840e+000	79.582214	33.417824
1085	1.0850e+000	80.558777	33.483615
1086	1.0860e+000	82.061768	33.580931
1087	1.0870e+000	82.878113	33.636443
1088	1.0880e+000	84.053040	33.717996
1089	1.0890e+000	85.601807	33.782417
1090	1.0900e+000	86.578369	33.860544
1091	1.0910e+000	87.860107	33.927706
1092	1.0920e+000	88.958740	34.010630
1093	1.0930e+000	90.415955	34.068198
1094	1.0940e+000	91.346741	34.108632
1095	1.0950e+000	92.575073	34.193612
1096	1.0960e+000	93.711853	34.225137
1097	1.0970e+000	95.397949	34.307376
1098	1.0980e+000	96.107483	34.350552
1099	1.0990e+000	97.351074	34.388930
1100	1.1000e+000	98.800659	34.432791
1101	1.1010e+000	99.784851	34.489673
1102	1.1020e+000	100.730896	34.547925
1103	1.1030e+000	102.020264	34.595898
1104	1.1040e+000	103.538513	34.654836
1105	1.1050e+000	104.499817	34.688417
1106	1.1060e+000	105.766296	34.717200
1107	1.1070e+000	106.925964	34.770656
1108	1.1080e+000	108.161926	34.829594
1109	1.1090e+000	109.237671	34.848783
1110	1.1100e+000	110.557556	34.925539
1111	1.1110e+000	111.801147	34.959806
1112	1.1120e+000	113.059998	35.004352
1113	1.1130e+000	113.998413	35.044101
1114	1.1140e+000	115.280151	35.076311
1115	1.1150e+000	116.828918	35.118116
1116	1.1160e+000	117.942810	35.155123
1117	1.1170e+000	119.102478	35.174998
1118	1.1180e+000	120.086670	35.236677
1119	1.1190e+000	121.772766	35.266831
1120	1.1200e+000	122.596741	35.338790
1121	1.1210e+000	123.664856	35.369630
1122	1.1220e+000	125.114441	35.397728
1123	1.1230e+000	126.068115	35.450498
1124	1.1240e+000	127.418518	35.442960
1125	1.1250e+000	128.768921	35.492303
1126	1.1260e+000	130.058289	35.522457
1127	1.1270e+000	130.706787	35.549870
1128	1.1280e+000	132.324219	35.604696
1129	1.1290e+000	133.338928	35.628683
1130	1.1300e+000	134.658813	35.659523
1131	1.1310e+000	135.650635	35.710237
1132	1.1320e+000	137.062073	35.742447
1133	1.1330e+000	137.947083	35.788364
1134	1.1340e+000	139.518738	35.782881
1135	1.1350e+000	140.678406	35.810979
1136	1.1360e+000	141.494751	35.830168
1137	1.1370e+000	142.944336	35.879512
1138	1.1380e+000	144.142151	35.922687
1139	1.1390e+000	145.271301	35.951471
1140	1.1400e+000	146.759033	35.970660
1141	1.1410e+000	147.521973	36.009724
1142	1.1420e+000	148.994446	36.055640
1143	1.1430e+000	150.169373	36.068662
1144	1.1440e+000	151.145935	36.080312
1145	1.1450e+000	152.587891	36.124858
1146	1.1460e+000	153.770447	36.131712
1147	1.1470e+000	155.082703	36.185852
1148	1.1480e+000	156.074524	36.225601
1149	1.1490e+000	157.356262	36.241364
1150	1.1500e+000	158.599854	36.283854
1151	1.1510e+000	159.812927	36.289336
1152	1.1520e+000	161.033630	36.307840
1153	1.1530e+000	162.307739	36.366778
1154	1.1540e+000	163.345337	36.375687
1155	1.1550e+000	164.833069	36.392820
1156	1.1560e+000	165.527344	36.453814
1157	1.1570e+000	166.954041	36.464094
1158	1.1580e+000	168.205261	36.504528
1159	1.1590e+000	169.487000	36.494934
1160	1.1600e+000	170.463562	36.551816
1161	1.1610e+000	171.752930	36.588138
1162	1.1620e+000	172.828674	36.601159
1163	1.1630e+000	174.346924	36.642964
1164	1.1640e+000	175.270081	36.662838
1165	1.1650e+000	176.483154	36.670377
1166	1.1660e+000	177.940369	36.711497
1167	1.1670e+000	178.985596	36.737539
1168	1.1680e+000	180.198669	36.751931
1169	1.1690e+000	181.411743	36.781400
1170	1.1700e+000	182.792664	36.821834
1171	1.1710e+000	183.631897	36.852674
1172	1.1720e+000	185.020447	36.876660
1173	1.1730e+000	186.172485	36.899961
1174	1.1740e+000	187.332153	36.926689
1175	1.1750e+000	188.369751	36.949304
1176	1.1760e+000	189.765930	36.960955
1177	1.1770e+000	190.994263	37.024005
1178	1.1780e+000	192.390442	37.050047
1179	1.1790e+000	193.740845	37.091852
1180	1.1800e+000	194.740295	37.061012
1181	1.1810e+000	195.831299	37.107615
1182	1.1820e+000	196.960449	37.131601
1183	1.1830e+000	198.135376	37.153531
1184	1.1840e+000	199.340820	37.184371
1185	1.1850e+000	200.614929	37.240568
1186	1.1860e+000	201.789856	37.232344
1187	1.1870e+000	202.827454	37.250162
1188	1.1880e+000	204.063416	37.296079
1189	1.1890e+000	205.177307	37.320065
1190	1.1900e+000	206.634521	37.320065
1191	1.1910e+000	207.786560	37.339940
1192	1.1920e+000	208.831787	37.381745
1193	1.1930e+000	210.075378	37.387912
1194	1.1940e+000	211.723328	37.426291
1195	1.1950e+000	212.554932	37.450962
1196	1.1960e+000	213.714600	37.467410
1197	1.1970e+000	215.034485	37.495509
1198	1.1980e+000	216.278076	37.539369
1199	1.1990e+000	217.201233	37.548964
1200	1.2000e+000	218.910217	37.562670
1201	1.2010e+000	219.673157	37.593510
1202	1.2020e+000	220.779419	37.596937
1203	1.2030e+000	222.305298	37.651763
1204	1.2040e+000	223.602295	37.683973
1205	1.2050e+000	224.647522	37.696309
1206	1.2060e+000	225.952148	37.728519
1207	1.2070e+000	226.928711	37.692882
1208	1.2080e+000	228.080750	37.776492
1209	1.2090e+000	229.347229	37.786086
1210	1.2100e+000	230.545044	37.799793
1211	1.2110e+000	231.826782	37.840227
1212	1.2120e+000	232.719421	37.845710
1213	1.2130e+000	234.237671	37.897109
1214	1.2140e+000	235.359192	37.897109
1215	1.2150e+000	236.572266	37.932061
1216	1.2160e+000	237.731934	37.940970
1217	1.2170e+000	239.097595	37.956732
1218	1.2180e+000	240.180969	37.988257
1219	1.2190e+000	241.073608	38.004705
1220	1.2200e+000	242.652893	38.055419
1221	1.2210e+000	243.965149	38.060216
1222	1.2220e+000	245.231628	38.090371
1223	1.2230e+000	246.284485	38.115042
1224	1.2240e+000	247.367859	38.134917
1225	1.2250e+000	248.527527	38.154791
1226	1.2260e+000	249.771118	38.187687
1227	1.2270e+000	250.976563	38.196596
1228	1.2280e+000	252.319336	38.215100
1229	1.2290e+000	253.227234	38.252107
1230	1.2300e+000	254.669189	38.271982
1231	1.2310e+000	255.821228	38.300766
1232	1.2320e+000	256.896973	38.320640
1233	1.2330e+000	258.193970	38.334346
1234	1.2340e+000	259.483337	38.350794
1235	1.2350e+000	260.437012	38.379578
1236	1.2360e+000	261.581421	38.395340
1237	1.2370e+000	262.939453	38.415900
1238	1.2380e+000	264.137268	38.445369
1239	1.2390e+000	265.342712	38.471412
1240	1.2400e+000	266.403198	38.485803
1241	1.2410e+000	267.700195	38.506363
1242	1.2420e+000	268.898010	38.542685
1243	1.2430e+000	270.301819	38.559133
1244	1.2440e+000	271.209717	38.568728
1245	1.2450e+000	272.705078	38.597511
1246	1.2460e+000	273.658752	38.630407
1247	1.2470e+000	275.016785	38.645484
1248	1.2480e+000	276.138306	38.653023
1249	1.2490e+000	277.565002	38.689345
1250	1.2500e+000	278.900146	38.709219
1251	1.2510e+000	279.594421	38.727038
1252	1.2520e+000	278.465271	38.709905
1253	1.2530e+000	277.412415	38.698254
1254	1.2540e+000	276.077271	38.687974
1255	1.2550e+000	274.749756	38.648225
1256	1.2560e+000	273.918152	38.641372
1257	1.2570e+000	272.636414	38.591343
1258	1.2580e+000	271.247864	38.605050
1259	1.2590e+000	270.133972	38.581064
1260	1.2600e+000	269.149780	38.555021
1261	1.2610e+000	267.738342	38.537203
1262	1.2620e+000	266.502380	38.509104
1263	1.2630e+000	265.296936	38.504992
1264	1.2640e+000	264.160156	38.463188
1265	1.2650e+000	262.908936	38.458390
1266	1.2660e+000	261.650085	38.439887
1267	1.2670e+000	260.559082	38.410418
1268	1.2680e+000	259.376526	38.387802
1269	1.2690e+000	258.148193	38.387117
1270	1.2700e+000	256.904602	38.360389
1271	1.2710e+000	255.760193	38.316528
1272	1.2720e+000	254.409790	38.304878
1273	1.2730e+000	253.356934	38.293912
1274	1.2740e+000	251.998901	38.244569
1275	1.2750e+000	251.129150	38.232918
1276	1.2760e+000	249.656677	38.224009
1277	1.2770e+000	248.542786	38.206191
1278	1.2780e+000	247.299194	38.193170
1279	1.2790e+000	246.376038	38.158218
1280	1.2800e+000	244.842529	38.143826
1281	1.2810e+000	243.682861	38.125322
1282	1.2820e+000	242.485046	38.108189
1283	1.2830e+000	241.561890	38.080776
1284	1.2840e+000	240.409851	38.054734
1285	1.2850e+000	239.021301	38.055419
1286	1.2860e+000	237.609863	38.020468
1287	1.2870e+000	236.557007	37.990313
1288	1.2880e+000	235.099792	37.984831
1289	1.2890e+000	234.062195	37.967698
1290	1.2900e+000	232.872009	37.903277
1291	1.2910e+000	231.773376	37.882717
1292	1.2920e+000	230.506897	37.895738
1293	1.2930e+000	229.408264	37.875179
1294	1.2940e+000	228.233337	37.847766
1295	1.2950e+000	227.012634	37.824465
1296	1.2960e+000	225.982666	37.798422
1297	1.2970e+000	224.723816	37.781974
1298	1.2980e+000	223.228455	37.754561
1299	1.2990e+000	222.282410	37.725778
1300	1.3000e+000	221.199036	37.711386
1301	1.3010e+000	219.627380	37.698365
1302	1.3020e+000	218.414307	37.673693
1303	1.3030e+000	217.536926	37.649021
1304	1.3040e+000	216.156006	37.628462
1305	1.3050e+000	214.958191	37.594881
1306	1.3060e+000	213.951111	37.584601
1307	1.3070e+000	212.684631	37.557873
1308	1.3080e+000	211.608887	37.533887
1309	1.3090e+000	210.319519	37.518124
1310	1.3100e+000	208.992004	37.481802
1311	1.3110e+000	207.756042	37.469466
1312	1.3120e+000	206.504822	37.429032
1313	1.3130e+000	205.566406	37.421493
1314	1.3140e+000	204.444885	37.416011
1315	1.3150e+000	203.025818	37.389968
1316	1.3160e+000	201.789856	37.362555
1317	1.3170e+000	200.531006	37.351590
1318	1.3180e+000	199.150085	37.315953
1319	1.3190e+000	198.165894	37.330345
1320	1.3200e+000	197.090149	37.255645
1321	1.3210e+000	195.655823	37.250162
1322	1.3220e+000	194.862366	37.215211
1323	1.3230e+000	193.382263	37.188483
1324	1.3240e+000	192.298889	37.173406
1325	1.3250e+000	190.887451	37.139139
1326	1.3260e+000	189.865112	37.124748
1327	1.3270e+000	188.423157	37.089796
1328	1.3280e+000	187.385559	37.042509
1329	1.3290e+000	186.103821	37.056900
1330	1.3300e+000	184.974670	37.020578
1331	1.3310e+000	183.654785	37.004816
1332	1.3320e+000	182.556152	36.979459
1333	1.3330e+000	181.159973	36.968494
1334	1.3340e+000	180.404663	36.949304
1335	1.3350e+000	179.039001	36.905444
1336	1.3360e+000	177.680969	36.882143
1337	1.3370e+000	176.513672	36.865695
1338	1.3380e+000	175.437927	36.843079
1339	1.3390e+000	174.240112	36.823205
1340	1.3400e+000	172.973633	36.808127
1341	1.3410e+000	171.539307	36.789624
1342	1.3420e+000	170.677185	36.742336
1343	1.3430e+000	169.364929	36.725203
1344	1.3440e+000	168.296814	36.708070
1345	1.3450e+000	167.121887	36.686140
1346	1.3460e+000	165.611267	36.646391
1347	1.3470e+000	164.413452	36.627887
1348	1.3480e+000	163.352966	36.603215
1349	1.3490e+000	162.277222	36.602530
1350	1.3500e+000	161.041260	36.542221
1351	1.3510e+000	159.889221	36.553186
1352	1.3520e+000	158.393860	36.512067
1353	1.3530e+000	157.348633	36.476430
1354	1.3540e+000	156.242371	36.442849
1355	1.3550e+000	155.296326	36.417492
1356	1.3560e+000	153.785706	36.414065
1357	1.3570e+000	152.473450	36.364722
1358	1.3580e+000	151.283264	36.355128
1359	1.3590e+000	150.245667	36.325659
1360	1.3600e+000	148.834229	36.315379
1361	1.3610e+000	147.750854	36.270833
1362	1.3620e+000	146.545410	36.224230
1363	1.3630e+000	145.286560	36.227657
1364	1.3640e+000	144.195557	36.213265
1365	1.3650e+000	142.974854	36.171460
1366	1.3660e+000	141.746521	36.143362
1367	1.3670e+000	140.289307	36.111837
1368	1.3680e+000	139.411926	36.099501
1369	1.3690e+000	137.969971	36.080997
1370	1.3700e+000	136.817932	36.046731
1371	1.3710e+000	135.803223	36.038507
1372	1.3720e+000	134.605408	35.997388
1373	1.3730e+000	133.560181	35.969975
1374	1.3740e+000	132.202148	35.958324
1375	1.3750e+000	131.011963	35.927485
1376	1.3760e+000	129.524231	35.893904
1377	1.3770e+000	128.410339	35.870603
1378	1.3780e+000	127.647400	35.847302
1379	1.3790e+000	126.174927	35.826742
1380	1.3800e+000	124.931335	35.773286
1381	1.3810e+000	124.008179	35.732167
1382	1.3820e+000	122.711182	35.743817
1383	1.3830e+000	121.177673	35.693789
1384	1.3840e+000	120.231628	35.715034
1385	1.3850e+000	118.942261	35.639648
1386	1.3860e+000	117.805481	35.619774
1387	1.3870e+000	116.569519	35.605382
1388	1.3880e+000	115.371704	35.556038
1389	1.3890e+000	114.158630	35.527255
1390	1.3900e+000	113.159180	35.501212
1391	1.3910e+000	111.968994	35.474485
1392	1.3920e+000	110.481262	35.445701
1393	1.3930e+000	109.062195	35.421029
1394	1.3940e+000	108.177185	35.385392
1395	1.3950e+000	106.903076	35.359350
1396	1.3960e+000	106.025696	35.338790
1397	1.3970e+000	104.667664	35.330566
1398	1.3980e+000	103.439331	35.260663
1399	1.3990e+000	102.203369	35.248327
1400	1.4000e+000	101.242065	35.217488
1401	1.4010e+000	99.754333	35.197613
1402	1.4020e+000	98.838806	35.152382
1403	1.4030e+000	97.473145	35.127710
1404	1.4040e+000	96.206665	35.098927
1405	1.4050e+000	94.833374	35.074255
1406	1.4060e+000	93.719482	35.040674
1407	1.4070e+000	92.872620	35.007093
1408	1.4080e+000	91.392517	34.984477
1409	1.4090e+000	90.362549	34.931022
1410	1.4100e+000	89.279175	34.904980
1411	1.4110e+000	87.783813	34.876881
1412	1.4120e+000	87.059021	34.889902
1413	1.4130e+000	85.365295	34.796013
1414	1.4140e+000	84.259033	34.779565
1415	1.4150e+000	83.290100	34.747355
1416	1.4160e+000	81.863403	34.715144
1417	1.4170e+000	80.863953	34.689787
1418	1.4180e+000	79.513550	34.639759
1419	1.4190e+000	78.254700	34.618514
1420	1.4200e+000	77.232361	34.587674
1421	1.4210e+000	75.889587	34.536960
1422	1.4220e+000	74.760437	34.506806
1423	1.4230e+000	73.585510	34.487617
1424	1.4240e+000	72.319031	34.449238
1425	1.4250e+000	70.739746	34.406063
1426	1.4260e+000	69.908142	34.367685
1427	1.4270e+000	68.748474	34.369055
1428	1.4280e+000	67.520142	34.298467
1429	1.4290e+000	66.078186	34.271054
1430	1.4300e+000	64.971924	34.229249
1431	1.4310e+000	63.690186	34.210745
1432	1.4320e+000	62.576294	34.155919
1433	1.4330e+000	61.378479	34.116856
1434	1.4340e+000	60.134888	34.090813
1435	1.4350e+000	58.929443	34.035302
1436	1.4360e+000	57.708740	34.025022
1437	1.4370e+000	56.564331	33.965399
1438	1.4380e+000	55.419922	33.907831
1439	1.4390e+000	54.161072	33.866027
1440	1.4400e+000	52.963257	33.809145
1441	1.4410e+000	52.040100	33.774193
1442	1.4420e+000	50.689697	33.754319
1443	1.4430e+000	49.591064	33.707717
1444	1.4440e+000	48.294067	33.654947
1445	1.4450e+000	46.897888	33.619995
1446	1.4460e+000	45.761108	33.577505
1447	1.4470e+000	44.662476	33.513084
1448	1.4480e+000	43.350220	33.473335
1449	1.4490e+000	42.129517	33.376704
1450	1.4500e+000	40.679932	33.381502
1451	1.4510e+000	39.840698	33.322564
1452	1.4520e+000	38.513184	33.264311
1453	1.4530e+000	37.437439	33.217709
1454	1.4540e+000	36.010742	33.163568
1455	1.4550e+000	34.706116	33.086812
1456	1.4560e+000	33.973694	33.049119
1457	1.4570e+000	32.402039	32.984013
1458	1.4580e+000	31.143188	32.893550
1459	1.4590e+000	30.158997	32.875732
1460	1.4600e+000	28.968811	32.798975
1461	1.4610e+000	27.687073	32.739352
1462	1.4620e+000	26.535034	32.671505
1463	1.4630e+000	25.741577	32.583783
1464	1.4640e+000	24.421692	32.490579
1465	1.4650e+000	22.872925	32.436438
1466	1.4660e+000	21.820068	32.358311
1467	1.4670e+000	20.538330	32.281555
1468	1.4680e+000	19.325256	32.188351
1469	1.4690e+000	18.135071	32.102685
1470	1.4700e+000	17.028809	32.032097
1471	1.4710e+000	15.754700	31.909423
1472	1.4720e+000	14.717102	31.805939
1473	1.4730e+000	13.092041	31.692175
1474	1.4740e+000	11.978149	31.574299
1475	1.4750e+000	10.963440	31.455738
1476	1.4760e+000	9.552002	31.331694
1477	1.4770e+000	8.453369	31.184349
1478	1.4780e+000	7.286072	31.071271
1479	1.4790e+000	6.141663	30.912961
1480	1.4800e+000	4.806519	30.745056
1481	1.4810e+000	3.616333	30.551109
1482	1.4820e+000	2.639771	30.388002
1483	1.4830e+000	1.396179	30.211873
1484	1.4840e+000	0.267029	29.975436
1485	1.4850e+000	-0.984192	29.774636
1486	1.4860e+000	-2.090454	29.530660
1487	1.4870e+000	-3.234863	29.239397
1488	1.4880e+000	-4.508972	28.965952
1489	1.4890e+000	-5.783081	28.663038
1490	1.4900e+000	-7.064819	28.330656
1491	1.4910e+000	-8.331299	28.021574
1492	1.4920e+000	-9.284973	27.576798
1493	1.4930e+000	-10.551453	27.187533
1494	1.4940e+000	-11.703491	26.757149
1495	1.4950e+000	-12.931824	26.269198
1496	1.4960e+000	-14.175415	25.770281
1497	1.4970e+000	-15.541077	25.195293
1498	1.4980e+000	-16.578674	24.586039
1499	1.4990e+000	-17.692566	23.934295
1500	1.5000e+000	-19.180298	23.256508
1501	1.5010e+000	-20.111084	22.525266
1502	1.5020e+000	-21.217346	21.730975
1503	1.5030e+000	-22.422791	20.899675
1504	1.5040e+000	-23.445129	20.032054
1505	1.5050e+000	-24.887085	19.106179
1506	1.5060e+000	-25.970459	18.133018
1507	1.5070e+000	-27.023315	17.124219
1508	1.5080e+000	-28.320313	16.056482
1509	1.5090e+000	-29.533386	14.968871
1510	1.5100e+000	-30.723572	13.850421
1511	1.5110e+000	-32.241821	12.690165
1512	1.5120e+000	-33.226013	11.479881
1513	1.5130e+000	-34.469604	10.269597
1514	1.5140e+000	-35.354614	9.027103
1515	1.5150e+000	-36.720276	7.790091
1516	1.5160e+000	-37.872314	6.510589
1517	1.5170e+000	-39.154053	5.261926
1518	1.5180e+000	-40.641785	4.015320
1519	1.5190e+000	-41.229248	2.724167
1520	1.5200e+000	-42.739868	1.497435
1521	1.5210e+000	-44.151306	0.307711
1522	1.5220e+000	-45.394897	-0.876531
1523	1.5230e+000	-46.371460	-2.063514
1524	1.5240e+000	-47.721863	-3.209378
1525	1.5250e+000	-48.591614	-4.279855
1526	1.5260e+000	-49.964905	-5.327032
1527	1.5270e+000	-51.300049	-6.320068
1528	1.5280e+000	-52.665710	-7.266502
1529	1.5290e+000	-53.733826	-8.208139
1530	1.5300e+000	-54.931641	-9.041494
1531	1.5310e+000	-55.908203	-9.854975
1532	1.5320e+000	-57.083130	-10.673254
1533	1.5330e+000	-58.616638	-11.385306
1534	1.5340e+000	-59.494019	-12.102156
1535	1.5350e+000	-60.897827	-12.785426
1536	1.5360e+000	-62.438965	-13.423463
1537	1.5370e+000	-63.385010	-13.999822
1538	1.5380e+000	-64.369202	-14.582348
1539	1.5390e+000	-65.658569	-15.122384
1540	1.5400e+000	-66.825867	-15.656253
1541	1.5410e+000	-68.214417	-16.165449
1542	1.5420e+000	-69.465637	-16.685611
1543	1.5430e+000	-70.526123	-17.105030
1544	1.5440e+000	-71.609497	-17.538841
1545	1.5450e+000	-73.120117	-17.963742
1546	1.5460e+000	-73.844910	-18.363287
1547	1.5470e+000	-75.050354	-18.762146
1548	1.5480e+000	-76.492310	-19.122627
1549	1.5490e+000	-77.705383	-19.498871
1550	1.5500e+000	-78.681946	-19.849757
1551	1.5510e+000	-80.070496	-20.193790
1552	1.5520e+000	-81.123352	-20.505613
1553	1.5530e+000	-82.382202	-20.823604
1554	1.5540e+000	-83.824158	-21.123091
1555	1.5550e+000	-84.945679	-21.419837
1556	1.5560e+000	-86.059570	-21.696023
1557	1.5570e+000	-87.303162	-21.961244
1558	1.5580e+000	-88.249207	-22.242912
1559	1.5590e+000	-89.508057	-22.488944
1560	1.5600e+000	-90.820313	-22.742514
1561	1.5610e+000	-91.857910	-22.972098
1562	1.5620e+000	-93.269348	-23.233893
1563	1.5630e+000	-94.360352	-23.477868
1564	1.5640e+000	-95.649719	-23.691004
1565	1.5650e+000	-96.908569	-23.914420
1566	1.5660e+000	-98.175049	-24.137836
1567	1.5670e+000	-99.411011	-24.355084
1568	1.5680e+000	-100.433350	-24.572333
1569	1.5690e+000	-101.776123	-24.788895
1570	1.5700e+000	-102.691650	-24.967080
1571	1.5710e+000	-104.232788	-25.186384
1572	1.5720e+000	-105.400085	-25.385813
1573	1.5730e+000	-106.422424	-25.581131
1574	1.5740e+000	-107.467651	-25.799750
1575	1.5750e+000	-108.932495	-25.964228
1576	1.5760e+000	-110.061646	-26.172567
1577	1.5770e+000	-111.595154	-26.339101
1578	1.5780e+000	-112.663269	-26.512488
1579	1.5790e+000	-113.891602	-26.687931
1580	1.5800e+000	-114.967346	-26.871598
1581	1.5810e+000	-115.859985	-27.016202
1582	1.5820e+000	-117.210388	-27.202610
1583	1.5830e+000	-118.492126	-27.361606
1584	1.5840e+000	-119.644165	-27.535678
1585	1.5850e+000	-120.887756	-27.699471
1586	1.5860e+000	-122.276306	-27.831739
1587	1.5870e+000	-123.352051	-28.005126
1588	1.5880e+000	-124.282837	-28.142191
1589	1.5890e+000	-125.808716	-28.257326
1590	1.5900e+000	-126.861572	-28.440308
1591	1.5910e+000	-128.036499	-28.595191
1592	1.5920e+000	-129.234314	-28.719235
1593	1.5930e+000	-130.531311	-28.858356
1594	1.5940e+000	-131.774902	-28.998848
1595	1.5950e+000	-132.835388	-29.135227
1596	1.5960e+000	-134.094238	-29.274348
1597	1.5970e+000	-135.375977	-29.398392
1598	1.5980e+000	-136.314392	-29.534772
1599	1.5990e+000	-137.840271	-29.656074
1600	1.6000e+000	-138.854980	-29.793825
1601	1.6010e+000	-139.999390	-29.912386
1602	1.6020e+000	-141.532898	-30.079605
1603	1.6030e+000	-142.539978	-30.183089
1604	1.6040e+000	-143.829346	-30.296168
1605	1.6050e+000	-144.927979	-30.409247
1606	1.6060e+000	-145.996094	-30.549053
1607	1.6070e+000	-147.399902	-30.666929
1608	1.6080e+000	-148.887634	-30.797141
1609	1.6090e+000	-149.696350	-30.889660
1610	1.6100e+000	-150.917053	-30.992458
1611	1.6110e+000	-152.328491	-31.109649
1612	1.6120e+000	-153.533936	-31.220672
1613	1.6130e+000	-154.548645	-31.324156
1614	1.6140e+000	-155.914307	-31.454368
1615	1.6150e+000	-157.012939	-31.577041
1616	1.6160e+000	-157.989502	-31.644888
1617	1.6170e+000	-159.408569	-31.748372
1618	1.6180e+000	-160.667419	-31.847744
1619	1.6190e+000	-161.865234	-31.952599
1620	1.6200e+000	-162.765503	-32.049230
1621	1.6210e+000	-164.039612	-32.149287
1622	1.6220e+000	-165.328979	-32.244547
1623	1.6230e+000	-166.542053	-32.336381
1624	1.6240e+000	-167.823792	-32.413137
1625	1.6250e+000	-169.036865	-32.528957
1626	1.6260e+000	-170.150757	-32.647519
1627	1.6270e+000	-171.180725	-32.699603
1628	1.6280e+000	-172.683716	-32.789381
1629	1.6290e+000	-173.667908	-32.888753
1630	1.6300e+000	-174.736023	-32.970992
1631	1.6310e+000	-176.208496	-33.063511
1632	1.6320e+000	-177.291870	-33.136841
1633	1.6330e+000	-178.398132	-33.215653
1634	1.6340e+000	-179.801941	-33.304060
1635	1.6350e+000	-180.885315	-33.373278
1636	1.6360e+000	-182.106018	-33.426733
1637	1.6370e+000	-183.258057	-33.541183
1638	1.6380e+000	-184.555054	-33.607659
1639	1.6390e+000	-185.737610	-33.683730
1640	1.6400e+000	-186.912537	-33.759801
1641	1.6410e+000	-188.201904	-33.855061
1642	1.6420e+000	-189.277649	-33.919482
1643	1.6430e+000	-190.605164	-33.976364
1644	1.6440e+000	-191.711426	-34.042841
1645	1.6450e+000	-192.733765	-34.127821
1646	1.6460e+000	-194.107056	-34.195668
1647	1.6470e+000	-195.190430	-34.265571
1648	1.6480e+000	-196.624756	-34.327250
1649	1.6490e+000	-197.975159	-34.382762
1650	1.6500e+000	-198.692322	-34.484875
1651	1.6510e+000	-200.027466	-34.535589
1652	1.6520e+000	-201.316833	-34.606863
1653	1.6530e+000	-202.499390	-34.672654
1654	1.6540e+000	-203.613281	-34.725424
1655	1.6550e+000	-205.009460	-34.784362
1656	1.6560e+000	-206.069946	-34.843300
1657	1.6570e+000	-207.244873	-34.940616
1658	1.6580e+000	-208.450317	-34.988589
1659	1.6590e+000	-209.686279	-35.045471
1660	1.6600e+000	-210.861206	-35.096185
1661	1.6610e+000	-211.898804	-35.138675
1662	1.6620e+000	-213.294983	-35.205152
1663	1.6630e+000	-214.607239	-35.207893
1664	1.6640e+000	-215.492249	-35.322343
1665	1.6650e+000	-216.819763	-35.371001
1666	1.6660e+000	-217.994690	-35.405952
1667	1.6670e+000	-219.352722	-35.479282
1668	1.6680e+000	-220.397949	-35.536849
1669	1.6690e+000	-221.824646	-35.585507
1670	1.6700e+000	-222.869873	-35.647872
1671	1.6710e+000	-224.212646	-35.680082
1672	1.6720e+000	-225.463867	-35.745873
1673	1.6730e+000	-226.356506	-35.787678
1674	1.6740e+000	-227.630615	-35.836336
1675	1.6750e+000	-228.813171	-35.878827
1676	1.6760e+000	-229.759216	-35.931597
1677	1.6770e+000	-231.246948	-35.973401
1678	1.6780e+000	-232.368469	-36.024801
1679	1.6790e+000	-233.703613	-36.084424
1680	1.6800e+000	-234.771729	-36.124858
1681	1.6810e+000	-236.122131	-36.157754
1682	1.6820e+000	-237.220764	-36.224916
1683	1.6830e+000	-238.548279	-36.256441
1684	1.6840e+000	-239.768982	-36.316749
1685	1.6850e+000	-240.898132	-36.357869
1686	1.6860e+000	-242.378235	-36.394876
1687	1.6870e+000	-243.125916	-36.440108
1688	1.6880e+000	-244.392395	-36.507270
1689	1.6890e+000	-245.750427	-36.532627
1690	1.6900e+000	-246.726990	-36.560725
1691	1.6910e+000	-248.146057	-36.571690
1692	1.6920e+000	-249.313354	-36.651873
1693	1.6930e+000	-250.328064	-36.693678
1694	1.6940e+000	-251.571655	-36.699846
1695	1.6950e+000	-252.838135	-36.801274
1696	1.6960e+000	-254.020691	-36.790309
1697	1.6970e+000	-255.462646	-36.856786
1698	1.6980e+000	-256.347656	-36.875289
1699	1.6990e+000	-257.667542	-36.921206
1700	1.7000e+000	-258.872986	-36.955472
1701	1.7010e+000	-260.108948	-36.997277
1702	1.7020e+000	-261.161804	-37.037711
1703	1.7030e+000	-262.619019	-37.070607
1704	1.7040e+000	-263.946533	-37.112412
1705	1.7050e+000	-265.075684	-37.145993
1706	1.7060e+000	-266.006470	-37.211099
1707	1.7070e+000	-267.410278	-37.216581
1708	1.7080e+000	-268.455505	-37.269351
1709	1.7090e+000	-269.836426	-37.291282
1710	1.7100e+000	-271.087646	-37.329660
1711	1.7110e+000	-272.155762	-37.362555
1712	1.7120e+000	-273.147583	-37.426976
1713	1.7130e+000	-274.597168	-37.456445
1714	1.7140e+000	-275.611877	-37.484543
1715	1.7150e+000	-277.091980	-37.514698
1716	1.7160e+000	-278.022766	-37.559929
1717	1.7170e+000	-279.586792	-37.603105
1718	1.7180e+000	-280.311584	-37.641483
1719	1.7190e+000	-281.959534	-37.625035
1720	1.7200e+000	-282.836914	-37.691512
1721	1.7210e+000	-284.347534	-37.736058
1722	1.7220e+000	-285.499573	-37.753876
1723	1.7230e+000	-286.499023	-37.808702
1724	1.7240e+000	-287.757874	-37.838171
1725	1.7250e+000	-288.955688	-37.907389
1726	1.7260e+000	-290.245056	-37.887515
1727	1.7270e+000	-291.213989	-37.940970
1728	1.7280e+000	-292.686462	-37.975236
1729	1.7290e+000	-293.937683	-38.001278
1730	1.7300e+000	-294.906616	-38.031433
1731	1.7310e+000	-296.165466	-38.056104
1732	1.7320e+000	-297.218323	-38.099965
1733	1.7330e+000	-298.782349	-38.133546
1734	1.7340e+000	-299.743652	-38.169868
1735	1.7350e+000	-300.773621	-38.160274
1736	1.7360e+000	-301.887512	-38.232233
1737	1.7370e+000	-303.344727	-38.253478
1738	1.7380e+000	-304.405212	-38.278835
1739	1.7390e+000	-305.587769	-38.319955
1740	1.7400e+000	-307.250977	-38.348738
1741	1.7410e+000	-308.158875	-38.385061
1742	1.7420e+000	-309.402466	-38.416586
1743	1.7430e+000	-310.348511	-38.439887
1744	1.7440e+000	-311.500549	-38.485118
1745	1.7450e+000	-312.896729	-38.521440
1746	1.7460e+000	-313.964844	-38.561874
1747	1.7470e+000	-315.429688	-38.551595
1748	1.7480e+000	-316.337585	-38.618071
1749	1.7490e+000	-317.749023	-38.648911
1750	1.7500e+000	-318.817139	-38.687974
1751	1.7510e+000	-320.053101	-38.727038
1752	1.7520e+000	-319.198608	-38.716073
1753	1.7530e+000	-317.871094	-38.681806
1754	1.7540e+000	-316.436768	-38.673582
1755	1.7550e+000	-315.444946	-38.666044
1756	1.7560e+000	-313.987732	-38.632463
1757	1.7570e+000	-312.927246	-38.616700
1758	1.7580e+000	-311.691284	-38.591343
1759	1.7590e+000	-310.585022	-38.566672
1760	1.7600e+000	-309.303284	-38.561874
1761	1.7610e+000	-308.143616	-38.541315
1762	1.7620e+000	-306.816101	-38.498825
1763	1.7630e+000	-305.549622	-38.482377
1764	1.7640e+000	-304.565430	-38.467985
1765	1.7650e+000	-303.344727	-38.448110
1766	1.7660e+000	-302.017212	-38.417956
1767	1.7670e+000	-300.727844	-38.431663
1768	1.7680e+000	-299.690247	-38.390543
1769	1.7690e+000	-298.675537	-38.365186
1770	1.7700e+000	-297.210693	-38.306933
1771	1.7710e+000	-296.287537	-38.332291
1772	1.7720e+000	-295.188904	-38.292542
1773	1.7730e+000	-293.334961	-38.276094
1774	1.7740e+000	-292.877197	-38.250051
1775	1.7750e+000	-291.374207	-38.193170
1776	1.7760e+000	-290.145874	-38.204135
1777	1.7770e+000	-288.986206	-38.199337
1778	1.7780e+000	-287.612915	-38.172610
1779	1.7790e+000	-286.285400	-38.147938
1780	1.7800e+000	-285.285950	-38.129434
1781	1.7810e+000	-283.920288	-38.088315
1782	1.7820e+000	-282.836914	-38.080091
1783	1.7830e+000	-281.951904	-38.056104
1784	1.7840e+000	-280.464172	-38.036915
1785	1.7850e+000	-279.373169	-38.012929
1786	1.7860e+000	-278.144836	-37.968383
1787	1.7870e+000	-276.794434	-37.947823
1788	1.7880e+000	-275.741577	-37.929319
1789	1.7890e+000	-274.429321	-37.900536
1790	1.7900e+000	-273.422241	-37.884088
1791	1.7910e+000	-272.102356	-37.853248
1792	1.7920e+000	-270.698547	-37.836800
1793	1.7930e+000	-269.836426	-37.819667
1794	1.7940e+000	-268.478394	-37.781974
1795	1.7950e+000	-267.395020	-37.766212
1796	1.7960e+000	-266.258240	-37.718239
1797	1.7970e+000	-264.709473	-37.699050
1798	1.7980e+000	-263.648987	-37.681917
1799	1.7990e+000	-262.649536	-37.673693
1800	1.8000e+000	-261.291504	-37.628462
1801	1.8010e+000	-259.819031	-37.570894
1802	1.8020e+000	-258.979797	-37.554446
1803	1.8030e+000	-257.469177	-37.548279
1804	1.8040e+000	-256.340027	-37.507159
1805	1.8050e+000	-255.149841	-37.493453
1806	1.8060e+000	-254.028320	-37.467410
1807	1.8070e+000	-252.922058	-37.446165
1808	1.8080e+000	-251.770020	-37.385857
1809	1.8090e+000	-250.381470	-37.378318
1810	1.8100e+000	-249.145508	-37.350905
1811	1.8110e+000	-248.023987	-37.326233
1812	1.8120e+000	-246.551514	-37.258386
1813	1.8130e+000	-245.735168	-37.274834
1814	1.8140e+000	-244.682312	-37.238512
1815	1.8150e+000	-243.148804	-37.226861
1816	1.8160e+000	-242.187500	-37.185056
1817	1.8170e+000	-241.119385	-37.155587
1818	1.8180e+000	-239.753723	-37.101447
1819	1.8190e+000	-238.380432	-37.098020
1820	1.8200e+000	-237.342834	-37.064439
1821	1.8210e+000	-236.000061	-37.039082
1822	1.8220e+000	-235.168457	-37.004816
1823	1.8230e+000	-233.657837	-36.977403
1824	1.8240e+000	-232.406616	-36.943822
1825	1.8250e+000	-231.170654	-36.921891
1826	1.8260e+000	-229.850769	-36.903388
1827	1.8270e+000	-228.866577	-36.855415
1828	1.8280e+000	-227.371216	-36.826631
1829	1.8290e+000	-226.554871	-36.780714
1830	1.8300e+000	-225.212097	-36.770435
1831	1.8310e+000	-224.349976	-36.751931
1832	1.8320e+000	-222.946167	-36.703273
1833	1.8330e+000	-221.481323	-36.651873
1834	1.8340e+000	-220.680237	-36.649817
1835	1.8350e+000	-219.467163	-36.608012
1836	1.8360e+000	-218.025208	-36.548389
1837	1.8370e+000	-216.873169	-36.526459
1838	1.8380e+000	-215.820313	-36.503843
1839	1.8390e+000	-214.416504	-36.465465
1840	1.8400e+000	-213.264465	-36.413380
1841	1.8410e+000	-211.898804	-36.400359
1842	1.8420e+000	-210.678101	-36.365407
1843	1.8430e+000	-209.831238	-36.333197
1844	1.8440e+000	-208.496094	-36.294134
1845	1.8450e+000	-207.160950	-36.265350
1846	1.8460e+000	-205.902100	-36.206412
1847	1.8470e+000	-205.062866	-36.193391
1848	1.8480e+000	-203.979492	-36.155698
1849	1.8490e+000	-202.468872	-36.109096
1850	1.8500e+000	-201.011658	-36.100187
1851	1.8510e+000	-200.233459	-36.048102
1852	1.8520e+000	-199.058533	-36.007668
1853	1.8530e+000	-198.013306	-35.952156
1854	1.8540e+000	-196.693420	-35.939135
1855	1.8550e+000	-195.190430	-35.902128
1856	1.8560e+000	-194.061279	-35.853470
1857	1.8570e+000	-192.840576	-35.815777
1858	1.8580e+000	-191.726685	-35.782196
1859	1.8590e+000	-190.452576	-35.724628
1860	1.8600e+000	-189.231873	-35.701327
1861	1.8610e+000	-187.850952	-35.667746
1862	1.8620e+000	-186.798096	-35.625942
1863	1.8630e+000	-185.691833	-35.585507
1864	1.8640e+000	-184.448242	-35.531367
1865	1.8650e+000	-183.227539	-35.523828
1866	1.8660e+000	-181.930542	-35.449128
1867	1.8670e+000	-180.831909	-35.410064
1868	1.8680e+000	-179.687500	-35.357294
1869	1.8690e+000	-178.512573	-35.307265
1870	1.8700e+000	-177.368164	-35.265461
1871	1.8710e+000	-176.132202	-35.214061
1872	1.8720e+000	-174.697876	-35.188019
1873	1.8730e+000	-173.583984	-35.136619
1874	1.8740e+000	-172.477722	-35.077681
1875	1.8750e+000	-171.447754	-35.035877
1876	1.8760e+000	-169.891357	-34.989275
1877	1.8770e+000	-168.754578	-34.904980
1878	1.8780e+000	-167.709351	-34.895385
1879	1.8790e+000	-166.221619	-34.829594
1880	1.8800e+000	-165.351868	-34.783677
1881	1.8810e+000	-164.367676	-34.741872
1882	1.8820e+000	-162.879944	-34.671284
1883	1.8830e+000	-161.537170	-34.648668
1884	1.8840e+000	-160.469055	-34.573968
1885	1.8850e+000	-159.393311	-34.519827
1886	1.8860e+000	-158.142090	-34.467742
1887	1.8870e+000	-156.753540	-34.414287
1888	1.8880e+000	-155.525208	-34.349866
1889	1.8890e+000	-154.403687	-34.297096
1890	1.8900e+000	-153.305054	-34.244326
1891	1.8910e+000	-152.000427	-34.185388
1892	1.8920e+000	-150.749207	-34.123709
1893	1.8930e+000	-149.787903	-34.068883
1894	1.8940e+000	-148.300171	-34.003777
1895	1.8950e+000	-147.430420	-33.922223
1896	1.8960e+000	-146.186829	-33.857117
1897	1.8970e+000	-144.943237	-33.815998
1898	1.8980e+000	-143.646240	-33.752948
1899	1.8990e+000	-142.326355	-33.671394
1900	1.9000e+000	-141.372681	-33.604918
1901	1.9010e+000	-140.113831	-33.537071
1902	1.9020e+000	-138.778687	-33.480189
1903	1.9030e+000	-137.565613	-33.393152
1904	1.9040e+000	-136.322021	-33.330102
1905	1.9050e+000	-135.078430	-33.245807
1906	1.9060e+000	-133.895874	-33.170422
1907	1.9070e+000	-132.553101	-33.119708
1908	1.9080e+000	-131.637573	-33.059399
1909	1.9090e+000	-130.271912	-32.966880
1910	1.9100e+000	-129.127502	-32.892865
1911	1.9110e+000	-128.089905	-32.818165
1912	1.9120e+000	-126.861572	-32.713310
1913	1.9130e+000	-125.511169	-32.626959
1914	1.9140e+000	-124.534607	-32.550202
1915	1.9150e+000	-123.252869	-32.480985
1916	1.9160e+000	-122.062683	-32.402172
1917	1.9170e+000	-120.956421	-32.320618
1918	1.9180e+000	-119.750977	-32.215764
1919	1.9190e+000	-118.522644	-32.143119
1920	1.9200e+000	-117.149353	-32.041006
1921	1.9210e+000	-115.928650	-31.923815
1922	1.9220e+000	-115.036011	-31.884752
1923	1.9230e+000	-113.563538	-31.775785
1924	1.9240e+000	-112.564087	-31.668189
1925	1.9250e+000	-111.198425	-31.590747
1926	1.9260e+000	-109.970093	-31.500284
1927	1.9270e+000	-108.909607	-31.396800
1928	1.9280e+000	-107.894897	-31.289204
1929	1.9290e+000	-106.544495	-31.169272
1930	1.9300e+000	-105.384827	-31.092516
1931	1.9310e+000	-103.965759	-30.973955
1932	1.9320e+000	-102.920532	-30.895828
1933	1.9330e+000	-101.715088	-30.817015
1934	1.9340e+000	-100.646973	-30.671726
1935	1.9350e+000	-99.349976	-30.565501
1936	1.9360e+000	-97.999573	-30.432548
1937	1.9370e+000	-97.221375	-30.341399
1938	1.9380e+000	-95.680237	-30.211873
1939	1.9390e+000	-94.482422	-30.103592
1940	1.9400e+000	-93.299866	-29.986401
1941	1.9410e+000	-92.201233	-29.875378
1942	1.9420e+000	-91.072083	-29.784230
1943	1.9430e+000	-89.752197	-29.626605
1944	1.9440e+000	-88.615417	-29.503247
1945	1.9450e+000	-87.371826	-29.388798
1946	1.9460e+000	-86.013794	-29.230487
1947	1.9470e+000	-84.976196	-29.118094
1948	1.9480e+000	-83.648682	-28.964581
1949	1.9490e+000	-82.679749	-28.853559
1950	1.9500e+000	-81.146240	-28.705528
1951	1.9510e+000	-79.963684	-28.589023
1952	1.9520e+000	-79.208374	-28.424545
1953	1.9530e+000	-77.758789	-28.268976
1954	1.9540e+000	-76.522827	-28.129855
1955	1.9550e+000	-75.408936	-27.996217
1956	1.9560e+000	-74.073792	-27.839277
1957	1.9570e+000	-72.952271	-27.678911
1958	1.9580e+000	-71.495056	-27.528825
1959	1.9590e+000	-70.632935	-27.341731
1960	1.9600e+000	-69.419861	-27.205352
1961	1.9610e+000	-68.298340	-27.062804
1962	1.9620e+000	-67.001343	-26.901753
1963	1.9630e+000	-65.643311	-26.711232
1964	1.9640e+000	-64.407349	-26.549496
1965	1.9650e+000	-63.140869	-26.367884
1966	1.9660e+000	-62.103271	-26.162972
1967	1.9670e+000	-60.745239	-26.015627
1968	1.9680e+000	-59.585571	-25.823736
1969	1.9690e+000	-58.532715	-25.645552
1970	1.9700e+000	-57.327271	-25.439269
1971	1.9710e+000	-56.251526	-25.252175
1972	1.9720e+000	-54.924011	-25.054116
1973	1.9730e+000	-54.107666	-24.830700
1974	1.9740e+000	-52.490234	-24.629900
1975	1.9750e+000	-51.361084	-24.411281
1976	1.9760e+000	-50.201416	-24.194033
1977	1.9770e+000	-48.995972	-23.971988
1978	1.9780e+000	-47.882080	-23.719103
1979	1.9790e+000	-46.554565	-23.492945
1980	1.9800e+000	-45.227051	-23.257194
1981	1.9810e+000	-44.174194	-22.998826
1982	1.9820e+000	-43.136597	-22.749368
1983	1.9830e+000	-41.603088	-22.486203
1984	1.9840e+000	-40.588379	-22.234003
1985	1.9850e+000	-39.375305	-21.972209
1986	1.9860e+000	-38.154602	-21.697394
1987	1.9870e+000	-36.842346	-21.449991
1988	1.9880e+000	-35.697937	-21.145022
1989	1.9890e+000	-34.591675	-20.819492
1990	1.9900e+000	-33.432007	-20.525488
1991	1.9910e+000	-32.318115	-20.215035
1992	1.9920e+000	-30.815125	-19.929255
1993	1.9930e+000	-29.640198	-19.616061
1994	1.9940e+000	-28.549194	-19.260377
1995	1.9950e+000	-27.412415	-18.923883
1996	1.9960e+000	-26.199341	-18.569570
1997	1.9970e+000	-24.993896	-18.205662
1998	1.9980e+000	-23.597717	-17.831475
1999	1.9990e+000	-22.605896	-17.466196
2000	2.0000e+000	-21.354675	-17.105715
2001	2.0010e+000	-19.905090	-16.686982

Center data before PMax,±Pr and ±Vc Calc.

PMax (µC/cm2):	3.87e+001
Pr (µC/cm2):	2.99e+001
-Pr (µC/cm2):	-1.67e+001
Vc:	1.41e-001
-Vc:	-4.45e-001
C (Max-Eff) (nF):	8.00e-001
K (Eff):	1.46e+003
Vert. (±Pr) Shift (µC/cm2):	6.62e+000
Horiz. Shift (±Vc):	-1.52e-001
Offset (µC/cm2):	1.10e+001

A (Loop Area - µC/cm2·Volts):	4.02e+001



Hysteresis Version: 5.16.2 - Radiant Technologies, Inc., 1999 - 3/20/18

