»»»»»»»»»»»»»»»»»»»»»»»»»»»»»»»»»»»» Hysteresis ««««««««««««««««««««««««««««««««««««
»»»  Executed Version:	5.16.2
»»»  Vision Version:	5.16.10 (R)
»»»  Vision Compiled:	4/26/18
»»»  Driver Version:	5.16.6
»»»  Windows Version:	Windows 8
»»»  Processor Information:	x86 (AMD or Intel) - 8 Processors
»»»  Tester Name:	PPM21016-863
»»»  Tester S/N:	PPM21016-863
»»»  Internal Amp Type:	 RTI ML200V    
»»»  Internal Amp S/N:	 iAB2-0000     
»»»  Execution Count:	1
»»»»»»»»»»»»»»»»»»»»»»»»»»»»»»»»»»»»»»»»»»««««««««««««««««««««««««««««««««««««««««««

Stored:	5/23/2018 - 6:44:36
Configured:	05/23/18 06:37:56 AM
Executed:	05/23/18 06:44:16 AM

»»»»»»»»»»»»»»»»»»»»»»»»»»»»»»»»»»» Sample Info ««««««««««««««««««««««««««««««««««««
Sample Name:	Internal Reference Cap.
Lot Name:	N/A
Wafer Name:	N/A
Die Row/Column:	0/0
Capacitor Number:	0
Sample Area (cm2):	7.85e-005
Sample Thickness (µm):	1.00e-001

Mux Loop Adjustment:	Disabled

Amplifier:	Internal

»»»»»»»»»»»»»»»»»»»»»»»»»»»»»»»»»»» Tester Info «««««««««««««««««««««««««««««««««««
Tester Name:	PPM21016-863
Tester Serial Number:	PPM21016-863
Return Signal Amp. Level:	1.79 [Index: 2]

»»»»»»»»»»»»»»»»»»»»»»»»»»»»»»»» Hysteresis Info ««««««««««««««««««««««««««««««««««
Task Name:	Hyst-1
Volts:	3.00
Field:	300.00 (kV/cm)
Hysteresis Period (ms):	2.00e+000
Preset:	Enabled
Preset Delay (ms):	1.00e+003
Profile:	Double Bipolar

»»»»»»»»»»»»»»»»»»»»»»»»»»»»»»»»»»»»»» Data «««««««««««««««««««««««««««««««««««««««
Points:	2001

Valid Data

Point	Time (ms)	Field (kV/cm)	Measured Polarization
   1	1.0000e-003	19.760132	-20.562337
   2	2.0000e-003	21.385193	-20.480646
   3	3.0000e-003	22.682190	-20.403283
   4	4.0000e-003	23.773193	-20.329707
   5	5.0000e-003	24.841309	-20.211228
   6	6.0000e-003	26.077271	-20.046764
   7	7.0000e-003	27.252197	-19.852003
   8	8.0000e-003	28.564453	-19.559863
   9	9.0000e-003	28.419495	-19.250952
  10	1.0000e-002	30.662537	-18.801922
  11	1.1000e-002	32.142639	-18.130541
  12	1.2000e-002	33.218384	-17.568441
  13	1.3000e-002	34.332275	-16.796975
  14	1.4000e-002	35.400391	-15.885390
  15	1.5000e-002	36.834717	-14.898064
  16	1.6000e-002	38.063049	-13.779276
  17	1.7000e-002	39.024353	-12.506302
  18	1.8000e-002	40.222168	-11.138113
  19	1.9000e-002	41.732788	-9.679035
  20	2.0000e-002	42.938232	-8.180464
  21	2.1000e-002	44.105530	-6.577481
  22	2.2000e-002	45.082092	-4.972874
  23	2.3000e-002	46.371460	-3.343381
  24	2.4000e-002	47.607422	-1.770153
  25	2.5000e-002	48.446655	-0.241827
  26	2.6000e-002	49.903870	1.252416
  27	2.7000e-002	50.575256	2.549193
  28	2.8000e-002	52.185059	3.996910
  29	2.9000e-002	53.817749	5.267719
  30	3.0000e-002	54.801941	6.421673
  31	3.1000e-002	55.938721	7.576708
  32	3.2000e-002	57.212830	8.588920
  33	3.3000e-002	58.479309	9.588688
  34	3.4000e-002	59.555054	10.551668
  35	3.5000e-002	60.791016	11.475697
  36	3.6000e-002	61.851501	12.400807
  37	3.7000e-002	63.606262	13.276687
  38	3.8000e-002	63.194275	14.021644
  39	3.9000e-002	65.414429	14.873719
  40	4.0000e-002	66.940308	15.581889
  41	4.1000e-002	68.031311	16.310616
  42	4.2000e-002	69.152832	16.998227
  43	4.3000e-002	70.274353	17.667445
  44	4.4000e-002	71.372986	18.244692
  45	4.5000e-002	72.402954	18.753232
  46	4.6000e-002	73.936462	19.381333
  47	4.7000e-002	75.248718	19.883922
  48	4.8000e-002	76.332092	20.374069
  49	4.9000e-002	77.697754	20.857182
  50	5.0000e-002	78.819275	21.271047
  51	5.1000e-002	79.818726	21.711421
  52	5.2000e-002	81.321716	22.109056
  53	5.3000e-002	82.511902	22.521840
  54	5.4000e-002	83.328247	22.875654
  55	5.5000e-002	84.953308	23.207828
  56	5.6000e-002	85.861206	23.582200
  57	5.7000e-002	87.455750	23.907882
  58	5.8000e-002	88.478088	24.201104
  59	5.9000e-002	89.942932	24.551131
  60	6.0000e-002	90.965271	24.814058
  61	6.1000e-002	92.124939	25.113231
  62	6.2000e-002	93.223572	25.403748
  63	6.3000e-002	94.390869	25.578491
  64	6.4000e-002	95.703125	25.958273
  65	6.5000e-002	96.244812	26.176837
  66	6.6000e-002	98.205566	26.465190
  67	6.7000e-002	99.311829	26.713509
  68	6.8000e-002	100.601196	26.939647
  69	6.9000e-002	101.722717	27.203115
  70	7.0000e-002	102.897644	27.409236
  71	7.1000e-002	104.042053	27.620226
  72	7.2000e-002	105.308533	27.866381
  73	7.3000e-002	106.353760	28.084404
  74	7.4000e-002	107.574463	28.340297
  75	7.5000e-002	108.863831	28.531270
  76	7.6000e-002	110.137939	28.741719
  77	7.7000e-002	111.137390	28.933774
  78	7.8000e-002	112.472534	29.122583
  79	7.9000e-002	113.716125	29.326540
  80	8.0000e-002	114.974976	29.503448
  81	8.1000e-002	115.898132	29.639780
  82	8.2000e-002	117.317200	29.891345
  83	8.3000e-002	118.614197	30.069334
  84	8.4000e-002	119.926453	30.258684
  85	8.5000e-002	120.918274	30.387983
  86	8.6000e-002	121.940613	30.589776
  87	8.7000e-002	123.275757	30.779126
  88	8.8000e-002	124.694824	30.907343
  89	8.9000e-002	125.785828	31.112923
  90	9.0000e-002	127.983093	31.335274
  91	9.1000e-002	127.914429	31.415342
  92	9.2000e-002	129.463196	31.565740
  93	9.3000e-002	130.424500	31.729123
  94	9.4000e-002	131.820679	31.863291
  95	9.5000e-002	133.232117	31.971491
  96	9.6000e-002	134.086609	32.145152
  97	9.7000e-002	135.322571	32.291763
  98	9.8000e-002	136.550903	32.419980
  99	9.9000e-002	138.473511	32.527639
 100	1.0000e-001	139.015198	32.674791
 101	1.0100e-001	140.098572	32.828976
 102	1.0200e-001	141.326904	32.976128
 103	1.0300e-001	142.227173	33.075672
 104	1.0400e-001	143.829346	33.211463
 105	1.0500e-001	144.973755	33.335893
 106	1.0600e-001	146.232605	33.411633
 107	1.0700e-001	147.262573	33.555539
 108	1.0800e-001	148.529053	33.669690
 109	1.0900e-001	149.673462	33.777349
 110	1.1000e-001	151.008606	33.960748
 111	1.1100e-001	151.832581	34.008356
 112	1.1200e-001	153.106689	34.092212
 113	1.1300e-001	154.525757	34.188510
 114	1.1400e-001	155.822754	34.301579
 115	1.1500e-001	156.791687	34.383270
 116	1.1600e-001	158.103943	34.508241
 117	1.1700e-001	160.873413	34.685148
 118	1.1800e-001	160.667419	34.712739
 119	1.1900e-001	161.964417	34.773331
 120	1.2000e-001	162.857056	34.862596
 121	1.2100e-001	164.794922	34.959976
 122	1.2200e-001	165.748596	35.103341
 123	1.2300e-001	166.297913	35.141211
 124	1.2400e-001	167.976379	35.219656
 125	1.2500e-001	169.097900	35.285117
 126	1.2600e-001	169.837952	35.331102
 127	1.2700e-001	171.409607	35.448499
 128	1.2800e-001	172.401428	35.524239
 129	1.2900e-001	174.026489	35.603225
 130	1.3000e-001	174.293518	35.634603
 131	1.3100e-001	176.261902	35.763361
 132	1.3200e-001	177.330017	35.811510
 133	1.3300e-001	178.176880	35.870479
 134	1.3400e-001	179.733276	35.970564
 135	1.3500e-001	180.480957	36.077682
 136	1.3600e-001	182.090759	36.120421
 137	1.3700e-001	183.563232	36.169111
 138	1.3800e-001	183.738708	36.225916
 139	1.3900e-001	185.821533	36.305443
 140	1.4000e-001	186.904907	36.346559
 141	1.4100e-001	188.102722	36.415807
 142	1.4200e-001	189.140320	36.503450
 143	1.4300e-001	190.711975	36.521844
 144	1.4400e-001	191.917419	36.577026
 145	1.4500e-001	192.657471	36.629503
 146	1.4600e-001	194.076538	36.697128
 147	1.4700e-001	195.411682	36.764212
 148	1.4800e-001	196.525574	36.808574
 149	1.4900e-001	197.891235	36.863756
 150	1.5000e-001	199.028015	36.915151
 151	1.5100e-001	200.080872	36.971415
 152	1.5200e-001	201.210022	37.019023
 153	1.5300e-001	201.377869	37.071500
 154	1.5400e-001	203.987122	37.136961
 155	1.5500e-001	204.841614	37.145076
 156	1.5600e-001	206.199646	37.200799
 157	1.5700e-001	207.351685	37.266801
 158	1.5800e-001	208.915710	37.313327
 159	1.5900e-001	209.609985	37.338213
 160	1.6000e-001	210.914612	37.384739
 161	1.6100e-001	212.326050	37.429101
 162	1.6200e-001	213.554382	37.481578
 163	1.6300e-001	214.500427	37.516743
 164	1.6400e-001	215.591431	37.577876
 165	1.6500e-001	216.987610	37.609795
 166	1.6600e-001	218.139648	37.638468
 167	1.6700e-001	219.207764	37.676338
 168	1.6800e-001	220.825195	37.720159
 169	1.6900e-001	222.091675	37.774800
 170	1.7000e-001	222.877502	37.794276
 171	1.7100e-001	222.770691	37.736930
 172	1.7200e-001	225.479126	37.894902
 173	1.7300e-001	226.760864	37.967937
 174	1.7400e-001	227.905273	37.979839
 175	1.7500e-001	229.049683	37.997151
 176	1.7600e-001	230.072021	38.020955
 177	1.7700e-001	230.773926	38.056120
 178	1.7800e-001	232.635498	38.087498
 179	1.7900e-001	234.046936	38.161074
 180	1.8000e-001	235.038757	38.176222
 181	1.8100e-001	236.053467	38.196239
 182	1.8200e-001	237.197876	38.236814
 183	1.8300e-001	238.563538	38.260618
 184	1.8400e-001	239.273071	38.297406
 185	1.8500e-001	241.142273	38.395327
 186	1.8600e-001	241.760254	38.383425
 187	1.8700e-001	243.278503	38.424000
 188	1.8800e-001	244.255066	38.434279
 189	1.8900e-001	244.926453	38.388835
 190	1.9000e-001	246.986389	38.477559
 191	1.9100e-001	248.222351	38.535987
 192	1.9200e-001	249.465942	38.570611
 193	1.9300e-001	250.442505	38.608481
 194	1.9400e-001	251.777649	38.642023
 195	1.9500e-001	253.372192	38.709107
 196	1.9600e-001	253.944397	38.696123
 197	1.9700e-001	255.355835	38.719927
 198	1.9800e-001	256.652832	38.741567
 199	1.9900e-001	257.408142	38.765912
 200	2.0000e-001	259.071350	38.836243
 201	2.0100e-001	260.047913	38.783766
 202	2.0200e-001	261.260986	38.881146
 203	2.0300e-001	262.458801	38.914688
 204	2.0400e-001	263.450623	38.920098
 205	2.0500e-001	264.823914	39.035872
 206	2.0600e-001	266.044617	38.995838
 207	2.0700e-001	266.822815	38.952017
 208	2.0800e-001	268.547058	39.065627
 209	2.0900e-001	269.515991	39.092136
 210	2.1000e-001	270.896912	39.129465
 211	2.1100e-001	272.010803	39.154892
 212	2.1200e-001	273.101807	39.187893
 213	2.1300e-001	274.391174	39.218189
 214	2.1400e-001	273.178101	39.157597
 215	2.1500e-001	277.145386	39.285814
 216	2.1600e-001	278.144836	39.278781
 217	2.1700e-001	279.113770	39.336127
 218	2.1800e-001	280.540466	39.351275
 219	2.1900e-001	281.730652	39.398342
 220	2.2000e-001	283.142090	39.440540
 221	2.2100e-001	284.362793	39.415113
 222	2.2200e-001	285.446167	39.467590
 223	2.2300e-001	286.430359	39.497886
 224	2.2400e-001	287.536621	39.510870
 225	2.2500e-001	288.566589	39.475164
 226	2.2600e-001	290.313721	39.589315
 227	2.2700e-001	291.557312	39.616365
 228	2.2800e-001	292.373657	39.634759
 229	2.2900e-001	293.121338	39.669383
 230	2.3000e-001	294.975281	39.704548
 231	2.3100e-001	296.157837	39.723483
 232	2.3200e-001	297.172546	39.740795
 233	2.3300e-001	298.210144	39.761894
 234	2.3400e-001	299.606323	39.814371
 235	2.3500e-001	300.712585	39.840880
 236	2.3600e-001	302.032471	39.877127
 237	2.3700e-001	303.527832	39.938260
 238	2.3800e-001	304.489136	39.907964
 239	2.3900e-001	305.595398	39.944211
 240	2.4000e-001	306.846619	39.983163
 241	2.4100e-001	308.029175	39.995606
 242	2.4200e-001	309.745789	40.049706
 243	2.4300e-001	310.745239	40.011295
 244	2.4400e-001	311.698914	40.116790
 245	2.4500e-001	313.056946	40.149791
 246	2.4600e-001	314.079285	40.133561
 247	2.4700e-001	315.429688	40.190366
 248	2.4800e-001	316.535950	40.201727
 249	2.4900e-001	318.008423	40.242302
 250	2.5000e-001	319.023132	40.261778
 251	2.5100e-001	320.152283	40.303435
 252	2.5200e-001	318.778992	40.271516
 253	2.5300e-001	317.901611	40.245548
 254	2.5400e-001	316.612244	40.243384
 255	2.5500e-001	315.322876	40.232564
 256	2.5600e-001	314.201355	40.194153
 257	2.5700e-001	312.927246	40.193612
 258	2.5800e-001	311.820984	40.175759
 259	2.5900e-001	310.470581	40.152496
 260	2.6000e-001	309.303284	40.129774
 261	2.6100e-001	308.891296	40.101642
 262	2.6200e-001	306.716919	40.103265
 263	2.6300e-001	305.801392	40.078920
 264	2.6400e-001	304.573059	39.962605
 265	2.6500e-001	303.375244	40.029148
 266	2.6600e-001	302.177429	40.001016
 267	2.6700e-001	300.888062	40.011836
 268	2.6800e-001	299.789429	39.979376
 269	2.6900e-001	298.629761	39.971261
 270	2.7000e-001	296.318054	39.898767
 271	2.7100e-001	296.287537	39.927440
 272	2.7200e-001	294.975281	39.910669
 273	2.7300e-001	293.746948	39.877127
 274	2.7400e-001	292.427063	39.870094
 275	2.7500e-001	290.611267	39.829519
 276	2.7600e-001	290.206909	39.834388
 277	2.7700e-001	288.856506	39.804633
 278	2.7800e-001	287.704468	39.794895
 279	2.7900e-001	288.490295	39.909587
 280	2.8000e-001	285.469055	39.729975
 281	2.8100e-001	284.179688	39.747828
 282	2.8200e-001	282.966614	39.706171
 283	2.8300e-001	281.616211	39.685072
 284	2.8400e-001	280.593872	39.605545
 285	2.8500e-001	279.144287	39.635300
 286	2.8600e-001	278.144836	39.622316
 287	2.8700e-001	276.824951	39.610955
 288	2.8800e-001	275.627136	39.576331
 289	2.8900e-001	274.330139	39.560101
 290	2.9000e-001	273.727417	39.595807
 291	2.9100e-001	271.942139	39.503296
 292	2.9200e-001	270.866394	39.489230
 293	2.9300e-001	269.599915	39.515198
 294	2.9400e-001	268.478394	39.442704
 295	2.9500e-001	267.272949	39.449196
 296	2.9600e-001	265.983582	39.408080
 297	2.9700e-001	265.876770	39.467590
 298	2.9800e-001	263.984680	39.368046
 299	2.9900e-001	262.596130	39.339373
 300	3.0000e-001	261.375427	39.253895
 301	3.0100e-001	260.200500	39.320979
 302	3.0200e-001	259.117126	39.275535
 303	3.0300e-001	257.759094	39.251731
 304	3.0400e-001	256.629944	39.239829
 305	3.0500e-001	255.111694	39.185729
 306	3.0600e-001	254.058838	39.181401
 307	3.0700e-001	253.654480	39.169499
 308	3.0800e-001	251.831055	39.153810
 309	3.0900e-001	250.282288	39.113776
 310	3.1000e-001	249.214172	39.100792
 311	3.1100e-001	248.252869	39.084021
 312	3.1200e-001	246.803284	39.061840
 313	3.1300e-001	245.719910	39.029921
 314	3.1400e-001	244.697571	39.015314
 315	3.1500e-001	244.201660	39.052643
 316	3.1600e-001	242.500305	39.055348
 317	3.1700e-001	240.776062	38.942279
 318	3.1800e-001	239.715576	38.933082
 319	3.1900e-001	238.304138	38.887097
 320	3.2000e-001	237.098694	38.867080
 321	3.2100e-001	236.122131	38.873031
 322	3.2200e-001	234.931946	38.804324
 323	3.2300e-001	233.886719	38.788635
 324	3.2400e-001	232.650757	38.755092
 325	3.2500e-001	231.040955	38.733993
 326	3.2600e-001	230.453491	38.740485
 327	3.2700e-001	228.874207	38.677729
 328	3.2800e-001	227.798462	38.666909
 329	3.2900e-001	226.531982	38.636072
 330	3.3000e-001	225.425720	38.661499
 331	3.3100e-001	224.433899	38.595497
 332	3.3200e-001	223.121643	38.591169
 333	3.3300e-001	221.740723	38.553299
 334	3.3400e-001	220.588684	38.516511
 335	3.3500e-001	218.315125	38.528954
 336	3.3600e-001	218.009949	38.470526
 337	3.3700e-001	216.819763	38.438607
 338	3.3800e-001	215.751648	38.427787
 339	3.3900e-001	214.691162	38.402360
 340	3.4000e-001	213.432312	38.336358
 341	3.4100e-001	212.402344	38.340145
 342	3.4200e-001	211.158752	38.302816
 343	3.4300e-001	209.892273	38.284422
 344	3.4400e-001	208.183289	38.279012
 345	3.4500e-001	207.115173	38.229781
 346	3.4600e-001	206.565857	38.223289
 347	3.4700e-001	204.971313	38.233568
 348	3.4800e-001	203.948975	38.151877
 349	3.4900e-001	202.651978	38.118335
 350	3.5000e-001	202.606201	38.149713
 351	3.5100e-001	199.798584	38.077219
 352	3.5200e-001	199.043274	38.039349
 353	3.5300e-001	198.043823	38.045841
 354	3.5400e-001	196.601868	37.996069
 355	3.5500e-001	195.442200	37.940346
 356	3.5600e-001	194.129944	37.933854
 357	3.5700e-001	192.779541	37.899771
 358	3.5800e-001	191.795349	37.898148
 359	3.5900e-001	190.437317	37.852704
 360	3.6000e-001	189.575195	37.826195
 361	3.6100e-001	188.072205	37.763439
 362	3.6200e-001	187.004089	37.742340
 363	3.6300e-001	185.554504	37.727192
 364	3.6400e-001	184.547424	37.701224
 365	3.6500e-001	183.471680	37.682830
 366	3.6600e-001	182.479858	37.652534
 367	3.6700e-001	180.870056	37.644419
 368	3.6800e-001	179.779053	37.583827
 369	3.6900e-001	177.757263	37.490775
 370	3.7000e-001	177.444458	37.516202
 371	3.7100e-001	176.139832	37.491857
 372	3.7200e-001	175.209045	37.463725
 373	3.7300e-001	173.667908	37.439380
 374	3.7400e-001	172.637939	37.400428
 375	3.7500e-001	171.257019	37.348492
 376	3.7600e-001	169.395447	37.321983
 377	3.7700e-001	169.105530	37.421527
 378	3.7800e-001	167.732239	37.238128
 379	3.7900e-001	166.732788	37.220275
 380	3.8000e-001	165.222168	37.201881
 381	3.8100e-001	164.199829	37.156437
 382	3.8200e-001	162.879944	37.113157
 383	3.8300e-001	161.674500	37.087189
 384	3.8400e-001	160.514832	37.039581
 385	3.8500e-001	159.271240	37.014154
 386	3.8600e-001	158.073425	36.979530
 387	3.8700e-001	156.227112	36.882150
 388	3.8800e-001	155.609131	36.914069
 389	3.8900e-001	154.563904	36.871871
 390	3.9000e-001	152.572632	36.780983
 391	3.9100e-001	152.091980	36.801000
 392	3.9200e-001	151.031494	36.765294
 393	3.9300e-001	149.833679	36.685226
 394	3.9400e-001	148.612976	36.671160
 395	3.9500e-001	147.247314	36.604076
 396	3.9600e-001	146.324158	36.617601
 397	3.9700e-001	145.057678	36.544025
 398	3.9800e-001	143.684387	36.507237
 399	3.9900e-001	142.051697	36.427169
 400	4.0000e-001	141.304016	36.413102
 401	4.0100e-001	140.037537	36.381183
 402	4.0200e-001	138.572693	36.337362
 403	4.0300e-001	137.664795	36.293541
 404	4.0400e-001	136.322021	36.265409
 405	4.0500e-001	134.613037	36.134487
 406	4.0600e-001	133.972168	36.121503
 407	4.0700e-001	133.140564	36.095535
 408	4.0800e-001	131.820679	36.052255
 409	4.0900e-001	130.538940	35.986253
 410	4.1000e-001	129.272461	35.926743
 411	4.1100e-001	128.501892	35.920792
 412	4.1200e-001	126.831055	35.797985
 413	4.1300e-001	125.801086	35.748754
 414	4.1400e-001	124.504089	35.687621
 415	4.1500e-001	122.962952	35.624865
 416	4.1600e-001	122.261047	35.576716
 417	4.1700e-001	120.811462	35.515583
 418	4.1800e-001	119.056702	35.454450
 419	4.1900e-001	118.782043	35.388989
 420	4.2000e-001	117.324829	35.307298
 421	4.2100e-001	116.088867	35.256985
 422	4.2200e-001	115.066528	35.185573
 423	4.2300e-001	114.143372	35.159605
 424	4.2400e-001	112.480164	35.026519
 425	4.2500e-001	111.183167	34.939418
 426	4.2600e-001	109.855652	34.836087
 427	4.2700e-001	108.390808	34.807955
 428	4.2800e-001	107.910156	34.717608
 429	4.2900e-001	106.597900	34.653770
 430	4.3000e-001	105.438232	34.550980
 431	4.3100e-001	104.179382	34.480650
 432	4.3200e-001	102.828979	34.355679
 433	4.3300e-001	101.753235	34.318891
 434	4.3400e-001	100.440979	34.210691
 435	4.3500e-001	99.296570	34.115475
 436	4.3600e-001	97.778320	34.006733
 437	4.3700e-001	96.565247	33.895828
 438	4.3800e-001	95.817566	33.795743
 439	4.3900e-001	94.345093	33.704855
 440	4.4000e-001	93.009949	33.603688
 441	4.4100e-001	92.735291	33.585294
 442	4.4200e-001	90.873718	33.379714
 443	4.4300e-001	89.591980	33.272596
 444	4.4400e-001	88.439941	33.175216
 445	4.4500e-001	87.516785	33.044294
 446	4.4600e-001	86.051941	32.940963
 447	4.4700e-001	84.999084	32.816533
 448	4.4800e-001	83.747864	32.686152
 449	4.4900e-001	82.603455	32.577411
 450	4.5000e-001	81.359863	32.432423
 451	4.5100e-001	80.192566	32.298255
 452	4.5200e-001	79.010010	32.151644
 453	4.5300e-001	77.598572	31.989885
 454	4.5400e-001	76.660156	31.884931
 455	4.5500e-001	75.286865	31.722089
 456	4.5600e-001	75.035095	31.614430
 457	4.5700e-001	72.608948	31.396407
 458	4.5800e-001	71.746826	31.272518
 459	4.5900e-001	70.976257	31.129694
 460	4.6000e-001	69.358826	30.941426
 461	4.6100e-001	68.298340	30.794815
 462	4.6200e-001	66.818237	30.622236
 463	4.6300e-001	65.734863	30.449657
 464	4.6400e-001	64.048767	30.251110
 465	4.6500e-001	63.316345	30.077449
 466	4.6600e-001	62.217712	29.890263
 467	4.6700e-001	60.981750	29.715520
 468	4.6800e-001	59.509277	29.513186
 469	4.6900e-001	58.479309	29.275686
 470	4.7000e-001	57.540894	29.062532
 471	4.7100e-001	56.243896	28.890494
 472	4.7200e-001	55.213928	28.629732
 473	4.7300e-001	53.833008	28.463645
 474	4.7400e-001	52.543640	28.208834
 475	4.7500e-001	51.292419	27.962138
 476	4.7600e-001	50.071716	27.708950
 477	4.7700e-001	49.148560	27.471992
 478	4.7800e-001	47.775269	27.195541
 479	4.7900e-001	46.363831	26.880137
 480	4.8000e-001	45.471191	26.648048
 481	4.8100e-001	44.227600	26.371056
 482	4.8200e-001	42.419434	26.048620
 483	4.8300e-001	41.427612	25.691019
 484	4.8400e-001	40.603638	25.443782
 485	4.8500e-001	39.634705	25.095378
 486	4.8600e-001	38.169861	24.792959
 487	4.8700e-001	37.124634	24.451587
 488	4.8800e-001	35.820007	24.071805
 489	4.8900e-001	34.492493	23.702302
 490	4.9000e-001	33.500671	23.305749
 491	4.9100e-001	32.318115	22.918934
 492	4.9200e-001	31.250000	22.470986
 493	4.9300e-001	29.800415	22.056579
 494	4.9400e-001	28.579712	21.630812
 495	4.9500e-001	27.305603	21.081156
 496	4.9600e-001	26.268005	20.608322
 497	4.9700e-001	25.177002	20.105733
 498	4.9800e-001	23.864746	19.483582
 499	4.9900e-001	22.392273	18.962599
 500	5.0000e-001	21.568298	18.382106
 501	5.0100e-001	20.301819	17.776186
 502	5.0200e-001	18.890381	17.164314
 503	5.0300e-001	17.929077	16.425308
 504	5.0400e-001	16.876221	15.790174
 505	5.0500e-001	15.335083	15.062528
 506	5.0600e-001	14.053345	14.314866
 507	5.0700e-001	13.122559	13.537449
 508	5.0800e-001	11.848450	12.707013
 509	5.0900e-001	10.925293	11.898759
 510	5.1000e-001	8.926392	10.976895
 511	5.1100e-001	8.323669	10.125901
 512	5.1200e-001	7.164001	9.172118
 513	5.1300e-001	6.340027	8.233483
 514	5.1400e-001	3.288269	7.125514
 515	5.1500e-001	3.562927	6.170649
 516	5.1600e-001	2.113342	5.154109
 517	5.1700e-001	0.923157	4.082929
 518	5.1800e-001	-0.167847	2.969009
 519	5.1900e-001	-1.403809	1.854549
 520	5.2000e-001	-2.563477	0.715743
 521	5.2100e-001	-3.707886	-0.426308
 522	5.2200e-001	-4.791260	-1.586754
 523	5.2300e-001	-5.973816	-2.804004
 524	5.2400e-001	-7.194519	-4.008271
 525	5.2500e-001	-8.407593	-5.287195
 526	5.2600e-001	-9.552002	-6.559087
 527	5.2700e-001	-10.894775	-7.886701
 528	5.2800e-001	-11.665344	-9.214857
 529	5.2900e-001	-13.259888	-10.563570
 530	5.3000e-001	-14.663696	-11.959351
 531	5.3100e-001	-15.144348	-13.318885
 532	5.3200e-001	-16.723633	-14.697894
 533	5.3300e-001	-17.974854	-16.075822
 534	5.3400e-001	-19.119263	-17.428863
 535	5.3500e-001	-20.271301	-18.805168
 536	5.3600e-001	-21.713257	-20.127914
 537	5.3700e-001	-22.804260	-21.387903
 538	5.3800e-001	-23.620605	-22.633286
 539	5.3900e-001	-25.184631	-23.776960
 540	5.4000e-001	-26.535034	-24.877355
 541	5.4100e-001	-27.816772	-25.813285
 542	5.4200e-001	-28.755188	-26.708640
 543	5.4300e-001	-30.212402	-27.468205
 544	5.4400e-001	-31.150818	-28.171505
 545	5.4500e-001	-32.424927	-28.735768
 546	5.4600e-001	-33.737183	-29.296785
 547	5.4700e-001	-35.469055	-29.739324
 548	5.4800e-001	-35.942078	-30.146156
 549	5.4900e-001	-37.124634	-30.477248
 550	5.5000e-001	-39.337158	-30.893277
 551	5.5100e-001	-39.657593	-31.149711
 552	5.5200e-001	-41.038513	-31.386128
 553	5.5300e-001	-42.304993	-31.644726
 554	5.5400e-001	-43.395996	-31.855176
 555	5.5500e-001	-44.647217	-32.075363
 556	5.5600e-001	-45.227051	-32.228466
 557	5.5700e-001	-46.920776	-32.448112
 558	5.5800e-001	-48.149109	-32.631511
 559	5.5900e-001	-49.560547	-32.830058
 560	5.6000e-001	-50.750732	-32.942586
 561	5.6100e-001	-51.559448	-33.131936
 562	5.6200e-001	-52.833557	-33.237972
 563	5.6300e-001	-54.290771	-33.361320
 564	5.6400e-001	-55.244446	-33.501439
 565	5.6500e-001	-56.770325	-33.565277
 566	5.6600e-001	-58.006287	-33.731905
 567	5.6700e-001	-58.364868	-33.824957
 568	5.6800e-001	-60.195923	-33.948305
 569	5.6900e-001	-61.424255	-34.057046
 570	5.7000e-001	-62.362671	-34.160378
 571	5.7100e-001	-63.796997	-34.222052
 572	5.7200e-001	-64.872742	-34.326465
 573	5.7300e-001	-66.085815	-34.408697
 574	5.7400e-001	-67.443848	-34.455223
 575	5.7500e-001	-68.908691	-34.572079
 576	5.7600e-001	-69.976807	-34.649442
 577	5.7700e-001	-71.090698	-34.750609
 578	5.7800e-001	-72.082520	-34.827431
 579	5.7900e-001	-73.280334	-34.904253
 580	5.8000e-001	-74.882507	-34.992436
 581	5.8100e-001	-76.408386	-35.084406
 582	5.8200e-001	-76.766968	-35.119571
 583	5.8300e-001	-78.140259	-35.229394
 584	5.8400e-001	-79.223633	-35.262936
 585	5.8500e-001	-80.268860	-35.272133
 586	5.8600e-001	-81.787109	-35.380333
 587	5.8700e-001	-82.763672	-35.437679
 588	5.8800e-001	-84.251404	-35.504222
 589	5.8900e-001	-85.472107	-35.647587
 590	5.9000e-001	-86.479187	-35.588077
 591	5.9100e-001	-87.760925	-35.694654
 592	5.9200e-001	-88.790894	-35.734147
 593	5.9300e-001	-90.789795	-35.802854
 594	5.9400e-001	-91.300964	-35.836396
 595	5.9500e-001	-92.773438	-35.896988
 596	5.9600e-001	-93.620300	-35.940268
 597	5.9700e-001	-95.077515	-36.005188
 598	5.9800e-001	-96.176147	-36.075518
 599	5.9900e-001	-97.541809	-36.123667
 600	6.0000e-001	-98.518372	-36.090666
 601	6.0100e-001	-99.868774	-36.156668
 602	6.0200e-001	-100.753784	-36.232949
 603	6.0300e-001	-101.814270	-36.282721
 604	6.0400e-001	-103.485107	-36.383347
 605	6.0500e-001	-104.385376	-36.417430
 606	6.0600e-001	-105.682373	-36.434202
 607	6.0700e-001	-107.971191	-36.513188
 608	6.0800e-001	-108.428955	-36.515893
 609	6.0900e-001	-109.405518	-36.570534
 610	6.1000e-001	-110.549927	-36.608945
 611	6.1100e-001	-111.709595	-36.660881
 612	6.1200e-001	-112.960815	-36.707948
 613	6.1300e-001	-114.349365	-36.742572
 614	6.1400e-001	-115.234375	-36.773950
 615	6.1500e-001	-116.653442	-36.816689
 616	6.1600e-001	-118.041992	-36.842116
 617	6.1700e-001	-119.064331	-36.881609
 618	6.1800e-001	-119.949341	-36.933545
 619	6.1900e-001	-121.376038	-36.988186
 620	6.2000e-001	-122.833252	-37.024433
 621	6.2100e-001	-123.207092	-37.047155
 622	6.2200e-001	-125.373840	-37.082861
 623	6.2300e-001	-126.281738	-37.127223
 624	6.2400e-001	-127.464294	-37.164552
 625	6.2500e-001	-128.532410	-37.216488
 626	6.2600e-001	-129.821777	-37.283031
 627	6.2700e-001	-132.789612	-37.337131
 628	6.2800e-001	-132.049561	-37.304130
 629	6.2900e-001	-133.300781	-37.351197
 630	6.3000e-001	-134.902954	-37.380411
 631	6.3100e-001	-135.704041	-37.425855
 632	6.3200e-001	-137.107849	-37.455610
 633	6.3300e-001	-138.381958	-37.503218
 634	6.3400e-001	-139.442444	-37.512415
 635	6.3500e-001	-140.548706	-37.498890
 636	6.3600e-001	-141.662598	-37.555695
 637	6.3700e-001	-143.119812	-37.611959
 638	6.3800e-001	-143.768311	-37.645501
 639	6.3900e-001	-144.401550	-37.634681
 640	6.4000e-001	-146.369934	-37.728274
 641	6.4100e-001	-147.949219	-37.749373
 642	6.4200e-001	-149.032593	-37.777505
 643	6.4300e-001	-150.009155	-37.790489
 644	6.4400e-001	-151.214600	-37.847294
 645	6.4500e-001	-152.732849	-37.876508
 646	6.4600e-001	-153.640747	-37.852704
 647	6.4700e-001	-155.281067	-37.930067
 648	6.4800e-001	-156.379700	-37.997151
 649	6.4900e-001	-157.402039	-37.992823
 650	6.5000e-001	-158.584595	-38.053956
 651	6.5100e-001	-159.767151	-38.042595
 652	6.5200e-001	-160.980225	-38.091285
 653	6.5300e-001	-161.987305	-38.107515
 654	6.5400e-001	-163.192749	-38.138352
 655	6.5500e-001	-164.512634	-38.197321
 656	6.5600e-001	-165.710449	-38.202731
 657	6.5700e-001	-166.656494	-38.224371
 658	6.5800e-001	-169.982910	-38.360162
 659	6.5900e-001	-169.143677	-38.299029
 660	6.6000e-001	-170.532227	-38.337440
 661	6.6100e-001	-171.791077	-38.348801
 662	6.6200e-001	-173.095703	-38.355293
 663	6.6300e-001	-174.171448	-38.411557
 664	6.6400e-001	-175.323486	-38.429410
 665	6.6500e-001	-176.620483	-38.455378
 666	6.6600e-001	-177.955627	-38.543561
 667	6.6700e-001	-178.680420	-38.519757
 668	6.6800e-001	-180.465698	-38.539774
 669	6.6900e-001	-181.297302	-38.592251
 670	6.7000e-001	-182.312012	-38.606317
 671	6.7100e-001	-184.005737	-38.628498
 672	6.7200e-001	-185.119629	-38.613891
 673	6.7300e-001	-186.111450	-38.716681
 674	6.7400e-001	-187.225342	-38.699910
 675	6.7500e-001	-188.796997	-38.735616
 676	6.7600e-001	-189.628601	-38.745354
 677	6.7700e-001	-191.146851	-38.883851
 678	6.7800e-001	-192.153931	-38.823800
 679	6.7900e-001	-193.450928	-38.855178
 680	6.8000e-001	-194.564819	-38.874113
 681	6.8100e-001	-195.899963	-38.904409
 682	6.8200e-001	-196.907043	-38.935787
 683	6.8300e-001	-198.226929	-38.948771
 684	6.8400e-001	-199.447632	-38.976362
 685	6.8500e-001	-200.866699	-38.978526
 686	6.8600e-001	-201.828003	-39.030462
 687	6.8700e-001	-203.048706	-39.084562
 688	6.8800e-001	-204.254150	-39.078611
 689	6.8900e-001	-206.100464	-39.172745
 690	6.9000e-001	-206.504822	-39.132711
 691	6.9100e-001	-207.656860	-39.168958
 692	6.9200e-001	-209.060669	-39.194385
 693	6.9300e-001	-210.311890	-39.190598
 694	6.9400e-001	-211.303711	-39.246862
 695	6.9500e-001	-212.692261	-39.258764
 696	6.9600e-001	-213.851929	-39.295552
 697	6.9700e-001	-214.958191	-39.316651
 698	6.9800e-001	-216.171265	-39.335045
 699	6.9900e-001	-217.590332	-39.378325
 700	7.0000e-001	-218.467712	-39.390768
 701	7.0100e-001	-219.818115	-39.407539
 702	7.0200e-001	-221.084595	-39.452983
 703	7.0300e-001	-222.259521	-39.449196
 704	7.0400e-001	-223.739624	-39.488148
 705	7.0500e-001	-224.395752	-39.508165
 706	7.0600e-001	-225.746155	-39.540084
 707	7.0700e-001	-227.005005	-39.579036
 708	7.0800e-001	-228.363037	-39.629349
 709	7.0900e-001	-229.400635	-39.613660
 710	7.1000e-001	-230.682373	-39.649366
 711	7.1100e-001	-231.636047	-39.667760
 712	7.1200e-001	-233.131409	-39.695892
 713	7.1300e-001	-233.917236	-39.726188
 714	7.1400e-001	-235.427856	-39.746746
 715	7.1500e-001	-236.564636	-39.769468
 716	7.1600e-001	-238.128662	-39.764599
 717	7.1700e-001	-239.044189	-39.810584
 718	7.1800e-001	-240.295410	-39.788403
 719	7.1900e-001	-241.683960	-39.854946
 720	7.2000e-001	-241.500854	-39.818699
 721	7.2100e-001	-244.178772	-39.920948
 722	7.2200e-001	-244.430542	-39.888488
 723	7.2300e-001	-246.322632	-39.948539
 724	7.2400e-001	-247.253418	-39.965851
 725	7.2500e-001	-248.603821	-39.995065
 726	7.2600e-001	-249.839783	-40.019410
 727	7.2700e-001	-250.938416	-40.037804
 728	7.2800e-001	-252.235413	-40.030230
 729	7.2900e-001	-253.501892	-40.107593
 730	7.3000e-001	-254.531860	-40.132479
 731	7.3100e-001	-255.676270	-40.130315
 732	7.3200e-001	-256.942749	-40.155201
 733	7.3300e-001	-258.384705	-40.178464
 734	7.3400e-001	-259.399414	-40.221203
 735	7.3500e-001	-260.520935	-40.232564
 736	7.3600e-001	-261.337280	-40.222826
 737	7.3700e-001	-263.160706	-40.285041
 738	7.3800e-001	-264.022827	-40.299648
 739	7.3900e-001	-265.296936	-40.252581
 740	7.4000e-001	-266.754150	-40.341846
 741	7.4100e-001	-268.325806	-40.382962
 742	7.4200e-001	-268.890381	-40.392700
 743	7.4300e-001	-270.263672	-40.416504
 744	7.4400e-001	-271.537781	-40.424619
 745	7.4500e-001	-272.605896	-40.462489
 746	7.4600e-001	-273.551941	-40.452751
 747	7.4700e-001	-275.108337	-40.514425
 748	7.4800e-001	-276.336670	-40.512802
 749	7.4900e-001	-277.320862	-40.553377
 750	7.5000e-001	-278.221130	-40.533360
 751	7.5100e-001	-279.968262	-40.571771
 752	7.5200e-001	-278.709412	-40.586378
 753	7.5300e-001	-277.534485	-40.557164
 754	7.5400e-001	-276.260376	-40.534983
 755	7.5500e-001	-274.948120	-40.526868
 756	7.5600e-001	-273.887634	-40.520917
 757	7.5700e-001	-272.537231	-40.491162
 758	7.5800e-001	-271.469116	-40.450587
 759	7.5900e-001	-270.263672	-40.430029
 760	7.6000e-001	-269.096375	-40.434357
 761	7.6100e-001	-267.662048	-40.388372
 762	7.6200e-001	-266.769409	-40.406225
 763	7.6300e-001	-265.502930	-40.353748
 764	7.6400e-001	-264.274597	-40.345633
 765	7.6500e-001	-263.015747	-40.344010
 766	7.6600e-001	-261.962891	-40.312632
 767	7.6700e-001	-260.208130	-40.257450
 768	7.6800e-001	-259.826660	-40.260696
 769	7.6900e-001	-258.094788	-40.235810
 770	7.7000e-001	-256.919861	-40.247712
 771	7.7100e-001	-255.775452	-40.201727
 772	7.7200e-001	-254.600525	-40.179005
 773	7.7300e-001	-253.448486	-40.164398
 774	7.7400e-001	-252.197266	-40.141135
 775	7.7500e-001	-251.113892	-40.139512
 776	7.7600e-001	-249.572754	-40.101642
 777	7.7700e-001	-248.542786	-40.079461
 778	7.7800e-001	-247.673035	-40.069182
 779	7.7900e-001	-246.055603	-40.061608
 780	7.8000e-001	-245.010376	-40.013459
 781	7.8100e-001	-243.751526	-39.997229
 782	7.8200e-001	-242.942810	-40.024279
 783	7.8300e-001	-241.348267	-39.913374
 784	7.8400e-001	-240.379333	-39.960441
 785	7.8500e-001	-239.013672	-39.928522
 786	7.8600e-001	-237.792969	-39.907423
 787	7.8700e-001	-237.266541	-39.897685
 788	7.8800e-001	-235.427856	-39.865225
 789	7.8900e-001	-234.230042	-39.833306
 790	7.9000e-001	-233.070374	-39.828978
 791	7.9100e-001	-231.872559	-39.800305
 792	7.9200e-001	-231.124878	-39.808961
 793	7.9300e-001	-229.804993	-39.759730
 794	7.9400e-001	-228.179932	-39.737008
 795	7.9500e-001	-227.127075	-39.721319
 796	7.9600e-001	-225.555420	-39.687236
 797	7.9700e-001	-224.052429	-39.654776
 798	7.9800e-001	-223.434448	-39.676416
 799	7.9900e-001	-221.931458	-39.634218
 800	8.0000e-001	-221.115112	-39.615824
 801	8.0100e-001	-219.924927	-39.594184
 802	8.0200e-001	-218.742371	-39.559019
 803	8.0300e-001	-217.346191	-39.554150
 804	8.0400e-001	-216.117859	-39.533592
 805	8.0500e-001	-215.003967	-39.509788
 806	8.0600e-001	-213.233948	-39.441622
 807	8.0700e-001	-212.509155	-39.441622
 808	8.0800e-001	-211.486816	-39.432966
 809	8.0900e-001	-210.227966	-39.411867
 810	8.1000e-001	-208.663940	-39.403752
 811	8.1100e-001	-207.588196	-39.384276
 812	8.1200e-001	-206.893921	-39.354521
 813	8.1300e-001	-205.589294	-39.354521
 814	8.1400e-001	-204.177856	-39.318815
 815	8.1500e-001	-202.941895	-39.284732
 816	8.1600e-001	-201.774597	-39.259305
 817	8.1700e-001	-200.454712	-39.257141
 818	8.1800e-001	-199.455261	-39.223599
 819	8.1900e-001	-198.226929	-39.200336
 820	8.2000e-001	-196.853638	-39.178155
 821	8.2100e-001	-196.136475	-39.190598
 822	8.2200e-001	-194.869995	-39.147859
 823	8.2300e-001	-193.237305	-39.102956
 824	8.2400e-001	-191.894531	-39.054807
 825	8.2500e-001	-191.291809	-39.077529
 826	8.2600e-001	-189.834595	-39.034249
 827	8.2700e-001	-188.766479	-39.043446
 828	8.2800e-001	-187.179565	-39.001248
 829	8.2900e-001	-186.195374	-38.969870
 830	8.3000e-001	-185.050964	-38.957427
 831	8.3100e-001	-183.769226	-38.925508
 832	8.3200e-001	-182.579041	-38.918475
 833	8.3300e-001	-181.358337	-38.857342
 834	8.3400e-001	-180.152893	-38.867621
 835	8.3500e-001	-178.863525	-38.835161
 836	8.3600e-001	-177.833557	-38.810816
 837	8.3700e-001	-176.528931	-38.808111
 838	8.3800e-001	-175.216675	-38.752387
 839	8.3900e-001	-174.263000	-38.724255
 840	8.4000e-001	-172.744751	-38.713976
 841	8.4100e-001	-171.829224	-38.686385
 842	8.4200e-001	-170.227051	-38.661499
 843	8.4300e-001	-170.082092	-38.657171
 844	8.4400e-001	-167.823792	-38.613350
 845	8.4500e-001	-167.030334	-38.596038
 846	8.4600e-001	-165.733337	-38.566283
 847	8.4700e-001	-164.451599	-38.544643
 848	8.4800e-001	-163.497925	-38.497576
 849	8.4900e-001	-162.231445	-38.509478
 850	8.5000e-001	-160.980225	-38.475395
 851	8.5100e-001	-159.652710	-38.440771
 852	8.5200e-001	-158.203125	-38.471067
 853	8.5300e-001	-157.470703	-38.407229
 854	8.5400e-001	-156.166077	-38.363408
 855	8.5500e-001	-154.769897	-38.343391
 856	8.5600e-001	-153.541565	-38.329325
 857	8.5700e-001	-152.267456	-38.279553
 858	8.5800e-001	-151.054382	-38.289832
 859	8.5900e-001	-150.108337	-38.247093
 860	8.6000e-001	-148.834229	-38.226535
 861	8.6100e-001	-147.773743	-38.201649
 862	8.6200e-001	-146.438599	-38.169189
 863	8.6300e-001	-145.393372	-38.144844
 864	8.6400e-001	-144.142151	-38.115630
 865	8.6500e-001	-143.013000	-38.088580
 866	8.6600e-001	-141.479492	-38.065317
 867	8.6700e-001	-140.289307	-38.051792
 868	8.6800e-001	-139.343262	-38.017709
 869	8.6900e-001	-138.046265	-37.989036
 870	8.7000e-001	-136.940002	-37.973347
 871	8.7100e-001	-134.750366	-37.933854
 872	8.7200e-001	-134.765625	-37.916001
 873	8.7300e-001	-133.346558	-37.877049
 874	8.7400e-001	-132.118225	-37.847294
 875	8.7500e-001	-130.989075	-37.832146
 876	8.7600e-001	-129.875183	-37.800768
 877	8.7700e-001	-128.845215	-37.782915
 878	8.7800e-001	-127.319336	-37.750455
 879	8.7900e-001	-126.121521	-37.758570
 880	8.8000e-001	-125.495911	-37.702306
 881	8.8100e-001	-123.611450	-37.664436
 882	8.8200e-001	-122.436523	-37.635763
 883	8.8300e-001	-121.299744	-37.689322
 884	8.8400e-001	-120.231628	-37.564892
 885	8.8500e-001	-118.812561	-37.573007
 886	8.8600e-001	-116.783142	-37.502136
 887	8.8700e-001	-116.615295	-37.497267
 888	8.8800e-001	-115.280151	-37.482119
 889	8.8900e-001	-114.456177	-37.457774
 890	8.9000e-001	-112.701416	-37.419904
 891	8.9100e-001	-111.808777	-37.397723
 892	8.9200e-001	-110.511780	-37.344164
 893	8.9300e-001	-109.130859	-37.328475
 894	8.9400e-001	-108.161926	-37.304671
 895	8.9500e-001	-107.154846	-37.274375
 896	8.9600e-001	-105.720520	-37.234341
 897	8.9700e-001	-104.766846	-37.212160
 898	8.9800e-001	-102.951050	-37.138584
 899	8.9900e-001	-102.272034	-37.177536
 900	9.0000e-001	-100.967407	-37.132092
 901	9.0100e-001	-99.586487	-37.107206
 902	9.0200e-001	-98.594666	-37.065008
 903	9.0300e-001	-97.518921	-37.027679
 904	9.0400e-001	-96.084595	-36.989268
 905	9.0500e-001	-95.100403	-36.975743
 906	9.0600e-001	-93.750000	-36.930299
 907	9.0700e-001	-92.590332	-36.912446
 908	9.0800e-001	-91.423035	-36.882691
 909	9.0900e-001	-90.026855	-36.839411
 910	9.1000e-001	-88.859558	-36.800459
 911	9.1100e-001	-88.203430	-36.802082
 912	9.1200e-001	-86.914063	-36.744736
 913	9.1300e-001	-85.350037	-36.727965
 914	9.1400e-001	-84.411621	-36.582977
 915	9.1500e-001	-82.992554	-36.638700
 916	9.1600e-001	-81.642151	-36.575403
 917	9.1700e-001	-81.153870	-36.593797
 918	9.1800e-001	-79.345703	-36.545107
 919	9.1900e-001	-78.201294	-36.492089
 920	9.2000e-001	-76.713562	-36.469367
 921	9.2100e-001	-75.866699	-36.430956
 922	9.2200e-001	-74.676514	-36.387134
 923	9.2300e-001	-73.341370	-36.365494
 924	9.2400e-001	-72.311401	-36.327083
 925	9.2500e-001	-70.999146	-36.302197
 926	9.2600e-001	-69.534302	-36.245392
 927	9.2700e-001	-68.641663	-36.215096
 928	9.2800e-001	-67.276001	-36.173980
 929	9.2900e-001	-66.162109	-36.122585
 930	9.3000e-001	-65.048218	-36.104732
 931	9.3100e-001	-64.056396	-36.051173
 932	9.3200e-001	-62.561035	-35.997614
 933	9.3300e-001	-61.531067	-35.968400
 934	9.3400e-001	-60.356140	-35.938645
 935	9.3500e-001	-58.265686	-35.900234
 936	9.3600e-001	-57.937622	-35.869397
 937	9.3700e-001	-56.480408	-35.803395
 938	9.3800e-001	-55.465698	-35.783378
 939	9.3900e-001	-54.359436	-35.731442
 940	9.4000e-001	-53.100586	-35.698982
 941	9.4100e-001	-52.017212	-35.693031
 942	9.4200e-001	-50.750732	-35.592405
 943	9.4300e-001	-49.415588	-35.569683
 944	9.4400e-001	-47.996521	-35.497189
 945	9.4500e-001	-47.149658	-35.345709
 946	9.4600e-001	-46.043396	-35.430646
 947	9.4700e-001	-44.769287	-35.368972
 948	9.4800e-001	-43.342590	-35.315954
 949	9.4900e-001	-42.442322	-35.273215
 950	9.5000e-001	-40.893555	-35.225607
 951	9.5100e-001	-39.909363	-35.185032
 952	9.5200e-001	-38.459778	-35.102800
 953	9.5300e-001	-37.223816	-35.062225
 954	9.5400e-001	-36.445618	-35.021650
 955	9.5500e-001	-35.179138	-34.950779
 956	9.5600e-001	-33.744812	-34.903712
 957	9.5700e-001	-32.554626	-34.832841
 958	9.5800e-001	-31.387329	-34.794430
 959	9.5900e-001	-30.258179	-34.700296
 960	9.6000e-001	-29.190063	-34.717608
 961	9.6100e-001	-27.595520	-34.561800
 962	9.6200e-001	-26.618958	-34.525553
 963	9.6300e-001	-25.100708	-34.442780
 964	9.6400e-001	-24.192810	-34.361089
 965	9.6500e-001	-23.147583	-34.295087
 966	9.6600e-001	-21.774292	-34.245315
 967	9.6700e-001	-20.767212	-34.133328
 968	9.6800e-001	-19.386292	-34.085720
 969	9.6900e-001	-18.394470	-33.988880
 970	9.7000e-001	-16.777039	-33.913681
 971	9.7100e-001	-15.792847	-33.826039
 972	9.7200e-001	-14.457703	-33.735692
 973	9.7300e-001	-13.481140	-33.651837
 974	9.7400e-001	-12.199402	-33.530112
 975	9.7500e-001	-12.496948	-33.569605
 976	9.7600e-001	-9.574890	-33.309384
 977	9.7700e-001	-8.811951	-33.202807
 978	9.7800e-001	-7.766724	-33.069721
 979	9.7900e-001	-6.065369	-32.940963
 980	9.8000e-001	-4.898071	-32.827894
 981	9.8100e-001	-3.952026	-32.709956
 982	9.8200e-001	-2.967834	-32.541705
 983	9.8300e-001	-1.228333	-32.387520
 984	9.8400e-001	-0.099182	-32.236581
 985	9.8500e-001	0.732422	-32.063461
 986	9.8600e-001	2.082825	-31.894669
 987	9.8700e-001	3.562927	-31.689088
 988	9.8800e-001	4.371643	-31.530034
 989	9.8900e-001	5.920410	-31.260075
 990	9.9000e-001	6.919861	-30.976050
 991	9.9100e-001	8.819580	-30.760191
 992	9.9200e-001	9.208679	-30.511872
 993	9.9300e-001	10.536194	-30.244077
 994	9.9400e-001	11.817932	-29.937330
 995	9.9500e-001	12.985229	-29.602992
 996	9.9600e-001	13.877869	-29.263784
 997	9.9700e-001	15.411377	-28.869936
 998	9.9800e-001	16.471863	-28.442005
 999	9.9900e-001	17.730713	-28.002713
1000	1.0000e+000	18.852234	-27.520682
1001	1.0010e+000	19.912720	-27.033782
1002	1.0020e+000	21.354675	-26.447337
1003	1.0030e+000	22.499084	-25.840876
1004	1.0040e+000	23.628235	-25.222513
1005	1.0050e+000	24.772644	-24.509474
1006	1.0060e+000	26.039124	-23.730975
1007	1.0070e+000	27.236938	-22.944361
1008	1.0080e+000	28.549194	-22.078219
1009	1.0090e+000	29.479980	-21.141207
1010	1.0100e+000	30.487061	-20.141980
1011	1.0110e+000	31.990051	-19.073504
1012	1.0120e+000	33.256531	-17.898993
1013	1.0130e+000	34.194946	-16.688775
1014	1.0140e+000	35.522461	-15.388752
1015	1.0150e+000	36.529541	-13.949691
1016	1.0160e+000	37.681580	-12.449497
1017	1.0170e+000	38.810730	-10.900073
1018	1.0180e+000	40.420532	-9.254891
1019	1.0190e+000	41.976929	-7.581036
1020	1.0200e+000	43.022156	-5.857409
1021	1.0210e+000	43.952942	-4.166243
1022	1.0220e+000	45.242310	-2.496716
1023	1.0230e+000	46.195984	-0.871551
1024	1.0240e+000	47.599792	0.684365
1025	1.0250e+000	48.377991	2.173198
1026	1.0260e+000	49.705505	3.572766
1027	1.0270e+000	51.269531	4.901462
1028	1.0280e+000	52.818298	6.179846
1029	1.0290e+000	53.504944	7.302421
1030	1.0300e+000	54.817200	8.422833
1031	1.0310e+000	55.915833	9.475078
1032	1.0320e+000	57.136536	10.487830
1033	1.0330e+000	58.326721	11.437286
1034	1.0340e+000	59.608459	12.330477
1035	1.0350e+000	60.989380	13.282638
1036	1.0360e+000	61.943054	14.125516
1037	1.0370e+000	63.201904	14.927819
1038	1.0380e+000	64.353943	15.680351
1039	1.0390e+000	65.826416	16.440997
1040	1.0400e+000	66.864014	17.154576
1041	1.0410e+000	67.787170	17.799449
1042	1.0420e+000	69.244385	18.429173
1043	1.0430e+000	70.343018	19.048077
1044	1.0440e+000	71.556091	19.633980
1045	1.0450e+000	71.922302	20.120340
1046	1.0460e+000	74.134827	20.674865
1047	1.0470e+000	74.813843	21.176913
1048	1.0480e+000	76.461792	21.608631
1049	1.0490e+000	77.781677	22.050628
1050	1.0500e+000	79.269409	22.495872
1051	1.0510e+000	80.085754	22.882687
1052	1.0520e+000	81.405640	23.254895
1053	1.0530e+000	82.725525	23.660645
1054	1.0540e+000	83.488464	23.976589
1055	1.0550e+000	84.846497	24.321206
1056	1.0560e+000	85.647583	24.582509
1057	1.0570e+000	87.333679	24.956341
1058	1.0580e+000	88.493347	25.271744
1059	1.0590e+000	89.675903	25.558474
1060	1.0600e+000	91.728210	25.916616
1061	1.0610e+000	91.957092	26.141672
1062	1.0620e+000	93.345642	26.392696
1063	1.0630e+000	94.467163	26.697820
1064	1.0640e+000	95.825195	26.855792
1065	1.0650e+000	96.984863	27.236657
1066	1.0660e+000	98.014832	27.448729
1067	1.0670e+000	99.334717	27.701376
1068	1.0680e+000	100.532532	27.934547
1069	1.0690e+000	101.829529	28.148783
1070	1.0700e+000	103.012085	28.398725
1071	1.0710e+000	104.331970	28.588616
1072	1.0720e+000	105.178833	28.833689
1073	1.0730e+000	106.582642	29.049007
1074	1.0740e+000	107.650757	29.256751
1075	1.0750e+000	108.512878	29.426626
1076	1.0760e+000	110.649109	29.681978
1077	1.0770e+000	111.335754	29.856721
1078	1.0780e+000	112.236023	30.075826
1079	1.0790e+000	113.693237	30.177534
1080	1.0800e+000	114.845276	30.450739
1081	1.0810e+000	116.279602	30.637925
1082	1.0820e+000	117.156982	30.806717
1083	1.0830e+000	118.598938	30.982542
1084	1.0840e+000	119.308472	31.134563
1085	1.0850e+000	120.880127	31.325536
1086	1.0860e+000	122.016907	31.479180
1087	1.0870e+000	123.413086	31.651218
1088	1.0880e+000	124.397278	31.819470
1089	1.0890e+000	125.503540	31.927670
1090	1.0900e+000	126.907349	32.128922
1091	1.0910e+000	128.181458	32.260926
1092	1.0920e+000	129.493713	32.451899
1093	1.0930e+000	130.119324	32.523311
1094	1.0940e+000	131.858826	32.750531
1095	1.0950e+000	133.003235	32.858190
1096	1.0960e+000	134.033203	32.987489
1097	1.0970e+000	135.269165	33.122739
1098	1.0980e+000	136.566162	33.255284
1099	1.0990e+000	137.695313	33.413256
1100	1.1000e+000	138.931274	33.494406
1101	1.1010e+000	140.281677	33.626951
1102	1.1020e+000	141.311646	33.733528
1103	1.1030e+000	142.837524	33.889336
1104	1.1040e+000	143.798828	33.968863
1105	1.1050e+000	144.905090	34.083556
1106	1.1060e+000	146.148682	34.207986
1107	1.1070e+000	147.178650	34.369745
1108	1.1080e+000	148.445129	34.427091
1109	1.1090e+000	149.871826	34.488224
1110	1.1100e+000	150.878906	34.640245
1111	1.1110e+000	152.343750	34.710575
1112	1.1120e+000	153.717041	34.854481
1113	1.1130e+000	154.342651	34.911286
1114	1.1140e+000	155.685425	34.995682
1115	1.1150e+000	156.890869	35.101177
1116	1.1160e+000	158.042908	35.191524
1117	1.1170e+000	159.194946	35.277543
1118	1.1180e+000	160.614014	35.382497
1119	1.1190e+000	161.643982	35.446335
1120	1.1200e+000	163.017273	35.529649
1121	1.1210e+000	163.520813	35.604848
1122	1.1220e+000	165.336609	35.702228
1123	1.1230e+000	166.694641	35.788247
1124	1.1240e+000	167.648315	35.828281
1125	1.1250e+000	168.586731	35.894283
1126	1.1260e+000	170.021057	36.003565
1127	1.1270e+000	170.646667	36.041976
1128	1.1280e+000	173.019409	36.149094
1129	1.1290e+000	173.660278	36.218883
1130	1.1300e+000	175.277710	36.310312
1131	1.1310e+000	176.139832	36.331952
1132	1.1320e+000	177.513123	36.408233
1133	1.1330e+000	178.649902	36.464498
1134	1.1340e+000	179.862976	36.523467
1135	1.1350e+000	181.083679	36.567288
1136	1.1360e+000	182.182312	36.703079
1137	1.1370e+000	183.479309	36.700374
1138	1.1380e+000	184.593201	36.767458
1139	1.1390e+000	185.737610	36.850231
1140	1.1400e+000	187.042236	36.881068
1141	1.1410e+000	188.232422	36.920020
1142	1.1420e+000	189.247131	36.955726
1143	1.1430e+000	190.559387	37.004957
1144	1.1440e+000	191.787720	37.087189
1145	1.1450e+000	192.665100	37.114780
1146	1.1460e+000	194.389343	37.184569
1147	1.1470e+000	195.266724	37.206209
1148	1.1480e+000	196.533203	37.275457
1149	1.1490e+000	198.028564	37.311163
1150	1.1500e+000	199.020386	37.375001
1151	1.1510e+000	200.309753	37.405838
1152	1.1520e+000	201.271057	37.446954
1153	1.1530e+000	202.568054	37.486988
1154	1.1540e+000	204.353333	37.524317
1155	1.1550e+000	205.230713	37.602762
1156	1.1560e+000	205.932617	37.613041
1157	1.1570e+000	207.305908	37.654698
1158	1.1580e+000	208.946228	37.740176
1159	1.1590e+000	209.442139	37.742340
1160	1.1600e+000	210.990906	37.793735
1161	1.1610e+000	211.875916	37.812670
1162	1.1620e+000	213.356018	37.840802
1163	1.1630e+000	214.569092	37.898148
1164	1.1640e+000	215.751648	37.970101
1165	1.1650e+000	216.941833	37.968478
1166	1.1660e+000	218.215942	38.017709
1167	1.1670e+000	219.352722	38.044218
1168	1.1680e+000	220.306396	38.022578
1169	1.1690e+000	221.435547	38.101023
1170	1.1700e+000	223.190308	38.195157
1171	1.1710e+000	223.968506	38.194616
1172	1.1720e+000	225.357056	38.208682
1173	1.1730e+000	226.280212	38.291455
1174	1.1740e+000	227.867126	38.282258
1175	1.1750e+000	229.133606	38.339063
1176	1.1760e+000	230.125427	38.371523
1177	1.1770e+000	230.827332	38.382343
1178	1.1780e+000	232.536316	38.426164
1179	1.1790e+000	234.031677	38.396950
1180	1.1800e+000	234.947205	38.477018
1181	1.1810e+000	236.328125	38.515429
1182	1.1820e+000	237.083435	38.519216
1183	1.1830e+000	238.403320	38.580890
1184	1.1840e+000	239.471436	38.607399
1185	1.1850e+000	241.233826	38.643105
1186	1.1860e+000	242.164612	38.685844
1187	1.1870e+000	243.148804	38.695041
1188	1.1880e+000	244.476318	38.727501
1189	1.1890e+000	245.758057	38.752387
1190	1.1900e+000	247.283936	38.777815
1191	1.1910e+000	248.252869	38.824882
1192	1.1920e+000	249.259949	38.844899
1193	1.1930e+000	250.579834	38.883310
1194	1.1940e+000	251.602173	38.951476
1195	1.1950e+000	253.273010	38.973116
1196	1.1960e+000	253.974915	38.960132
1197	1.1970e+000	255.386353	38.988264
1198	1.1980e+000	256.576538	38.970952
1199	1.1990e+000	257.682800	39.042364
1200	1.2000e+000	259.086609	39.091054
1201	1.2010e+000	258.659363	39.069414
1202	1.2020e+000	261.238098	39.125137
1203	1.2030e+000	262.626648	39.169499
1204	1.2040e+000	263.725281	39.193844
1205	1.2050e+000	264.991760	39.213861
1206	1.2060e+000	265.716553	39.252272
1207	1.2070e+000	267.280579	39.279863
1208	1.2080e+000	268.424988	39.325307
1209	1.2090e+000	269.844055	39.321520
1210	1.2100e+000	270.828247	39.333963
1211	1.2110e+000	271.690369	39.401047
1212	1.2120e+000	273.094177	39.412949
1213	1.2130e+000	274.719238	39.506542
1214	1.2140e+000	275.199890	39.478951
1215	1.2150e+000	276.809692	39.490312
1216	1.2160e+000	278.045654	39.530346
1217	1.2170e+000	279.830933	39.614201
1218	1.2180e+000	280.609131	39.595807
1219	1.2190e+000	281.784058	39.617447
1220	1.2200e+000	283.203125	39.642874
1221	1.2210e+000	284.042358	39.698056
1222	1.2220e+000	285.346985	39.695351
1223	1.2230e+000	286.262512	39.683449
1224	1.2240e+000	287.773132	39.761353
1225	1.2250e+000	288.825989	39.762435
1226	1.2260e+000	290.260315	39.824109
1227	1.2270e+000	291.191101	39.823027
1228	1.2280e+000	292.541504	39.848995
1229	1.2290e+000	293.716431	39.920948
1230	1.2300e+000	294.883728	39.937719
1231	1.2310e+000	296.104431	39.954490
1232	1.2320e+000	297.309875	39.957195
1233	1.2330e+000	298.545837	39.980458
1234	1.2340e+000	299.736023	40.032394
1235	1.2350e+000	300.918579	40.045378
1236	1.2360e+000	301.971436	40.075133
1237	1.2370e+000	304.069519	40.154660
1238	1.2380e+000	304.435730	40.105970
1239	1.2390e+000	305.854797	40.156283
1240	1.2400e+000	306.976318	40.188202
1241	1.2410e+000	308.235168	40.213629
1242	1.2420e+000	308.746338	40.228236
1243	1.2430e+000	310.401917	40.254745
1244	1.2440e+000	311.668396	40.289910
1245	1.2450e+000	312.866211	40.307222
1246	1.2460e+000	314.216614	40.339682
1247	1.2470e+000	315.315247	40.373224
1248	1.2480e+000	317.008972	40.375388
1249	1.2490e+000	317.962646	40.412176
1250	1.2500e+000	319.175720	40.444095
1251	1.2510e+000	319.976807	40.480883
1252	1.2520e+000	318.870544	40.442472
1253	1.2530e+000	317.543030	40.418668
1254	1.2540e+000	316.513062	40.417586
1255	1.2550e+000	315.177917	40.404061
1256	1.2560e+000	314.155579	40.387290
1257	1.2570e+000	312.469482	40.354289
1258	1.2580e+000	311.935425	40.350502
1259	1.2590e+000	310.676575	40.343469
1260	1.2600e+000	309.211731	40.306140
1261	1.2610e+000	307.929993	40.287746
1262	1.2620e+000	307.151794	40.289910
1263	1.2630e+000	305.839539	40.253122
1264	1.2640e+000	304.862976	40.285582
1265	1.2650e+000	303.230286	40.222285
1266	1.2660e+000	301.979065	40.206055
1267	1.2670e+000	300.842285	40.169267
1268	1.2680e+000	299.644470	40.151955
1269	1.2690e+000	298.393250	40.136266
1270	1.2700e+000	296.989441	40.052952
1271	1.2710e+000	296.089172	40.099478
1272	1.2720e+000	294.998169	40.083248
1273	1.2730e+000	293.708801	40.056198
1274	1.2740e+000	292.350769	40.051329
1275	1.2750e+000	291.244507	39.977212
1276	1.2760e+000	290.191650	40.003721
1277	1.2770e+000	288.902283	39.977753
1278	1.2780e+000	287.750244	39.977212
1279	1.2790e+000	286.155701	39.916620
1280	1.2800e+000	285.308838	39.922571
1281	1.2810e+000	284.103394	39.914997
1282	1.2820e+000	282.737732	39.884701
1283	1.2830e+000	281.730652	39.852241
1284	1.2840e+000	281.105042	39.847913
1285	1.2850e+000	279.029846	39.818699
1286	1.2860e+000	278.282166	39.818699
1287	1.2870e+000	276.664734	39.759730
1288	1.2880e+000	275.711060	39.739713
1289	1.2890e+000	274.307251	39.739172
1290	1.2900e+000	273.384094	39.689941
1291	1.2910e+000	272.361755	39.682367
1292	1.2920e+000	270.988464	39.676416
1293	1.2930e+000	270.011902	39.622857
1294	1.2940e+000	268.554688	39.601758
1295	1.2950e+000	267.631531	39.597971
1296	1.2960e+000	266.044617	39.593102
1297	1.2970e+000	264.915466	39.543330
1298	1.2980e+000	263.862610	39.538461
1299	1.2990e+000	262.428284	39.521149
1300	1.3000e+000	261.734009	39.523854
1301	1.3010e+000	259.826660	39.468131
1302	1.3020e+000	258.880615	39.457311
1303	1.3030e+000	257.621765	39.417818
1304	1.3040e+000	256.584167	39.399424
1305	1.3050e+000	255.218506	39.395637
1306	1.3060e+000	254.310608	39.350734
1307	1.3070e+000	252.449036	39.316651
1308	1.3080e+000	251.640320	39.308536
1309	1.3090e+000	250.572205	39.282027
1310	1.3100e+000	249.374390	39.249026
1311	1.3110e+000	248.161316	39.283109
1312	1.3120e+000	247.146606	39.215484
1313	1.3130e+000	245.841980	39.200877
1314	1.3140e+000	244.529724	39.176532
1315	1.3150e+000	243.247986	39.153810
1316	1.3160e+000	242.179871	39.111071
1317	1.3170e+000	240.753174	39.022347
1318	1.3180e+000	239.768982	39.080234
1319	1.3190e+000	238.395691	39.065086
1320	1.3200e+000	237.350464	39.014773
1321	1.3210e+000	236.061096	39.027216
1322	1.3220e+000	235.183716	38.956345
1323	1.3230e+000	233.787537	38.954181
1324	1.3240e+000	232.467651	38.937951
1325	1.3250e+000	231.353760	38.909278
1326	1.3260e+000	229.835510	38.875195
1327	1.3270e+000	229.072571	38.871949
1328	1.3280e+000	227.714539	38.838948
1329	1.3290e+000	226.516724	38.810275
1330	1.3300e+000	225.456238	38.772404
1331	1.3310e+000	225.822449	38.888720
1332	1.3320e+000	222.785950	38.733993
1333	1.3330e+000	221.870422	38.719386
1334	1.3340e+000	220.611572	38.698828
1335	1.3350e+000	219.024658	38.668532
1336	1.3360e+000	218.070984	38.639318
1337	1.3370e+000	217.002869	38.544102
1338	1.3380e+000	215.591431	38.588464
1339	1.3390e+000	214.767456	38.530036
1340	1.3400e+000	213.096619	38.538692
1341	1.3410e+000	212.203979	38.526790
1342	1.3420e+000	210.357666	38.461870
1343	1.3430e+000	209.770203	38.451591
1344	1.3440e+000	208.747864	38.439148
1345	1.3450e+000	207.351685	38.418590
1346	1.3460e+000	206.199646	38.383966
1347	1.3470e+000	205.444336	38.395327
1348	1.3480e+000	203.651428	38.348801
1349	1.3490e+000	202.629089	38.300652
1350	1.3500e+000	201.637268	38.291455
1351	1.3510e+000	200.057983	38.264946
1352	1.3520e+000	198.898315	38.223289
1353	1.3530e+000	197.822571	38.163779
1354	1.3540e+000	196.823120	38.188124
1355	1.3550e+000	195.396423	38.138893
1356	1.3560e+000	194.145203	38.118335
1357	1.3570e+000	193.000793	38.102105
1358	1.3580e+000	192.039490	38.070727
1359	1.3590e+000	190.811157	38.037726
1360	1.3600e+000	189.384460	38.007430
1361	1.3610e+000	188.217163	37.969560
1362	1.3620e+000	187.011719	37.947379
1363	1.3630e+000	185.493469	37.925739
1364	1.3640e+000	184.608459	37.888410
1365	1.3650e+000	183.532715	37.849458
1366	1.3660e+000	182.044983	37.822949
1367	1.3670e+000	180.877686	37.818080
1368	1.3680e+000	179.824829	37.756947
1369	1.3690e+000	178.718567	37.745586
1370	1.3700e+000	177.398682	37.713667
1371	1.3710e+000	176.048279	37.668223
1372	1.3720e+000	175.498962	37.700142
1373	1.3730e+000	173.683167	37.625484
1374	1.3740e+000	172.554016	37.597893
1375	1.3750e+000	171.524048	37.568138
1376	1.3760e+000	169.990540	37.497808
1377	1.3770e+000	169.021606	37.486447
1378	1.3780e+000	166.679382	37.479414
1379	1.3790e+000	166.519165	37.423150
1380	1.3800e+000	165.412903	37.392854
1381	1.3810e+000	164.161682	37.359853
1382	1.3820e+000	162.933350	37.336590
1383	1.3830e+000	161.529541	37.291687
1384	1.3840e+000	160.308838	37.235423
1385	1.3850e+000	159.233093	37.242997
1386	1.3860e+000	158.241272	37.188356
1387	1.3870e+000	156.852722	37.162388
1388	1.3880e+000	155.570984	37.125059
1389	1.3890e+000	154.563904	37.088812
1390	1.3900e+000	153.587341	37.052565
1391	1.3910e+000	151.802063	37.007121
1392	1.3920e+000	151.054382	36.975202
1393	1.3930e+000	149.810791	36.953562
1394	1.3940e+000	148.307800	36.909200
1395	1.3950e+000	147.354126	36.859969
1396	1.3960e+000	146.095276	36.818853
1397	1.3970e+000	144.714355	36.786934
1398	1.3980e+000	143.600464	36.750146
1399	1.3990e+000	142.395020	36.696587
1400	1.4000e+000	141.998291	36.665750
1401	1.4010e+000	139.923096	36.612732
1402	1.4020e+000	139.030457	36.594338
1403	1.4030e+000	137.733459	36.547812
1404	1.4040e+000	136.688232	36.511024
1405	1.4050e+000	135.276794	36.445022
1406	1.4060e+000	134.056091	36.415266
1407	1.4070e+000	132.972717	36.356297
1408	1.4080e+000	131.813049	36.312476
1409	1.4090e+000	131.668091	36.317886
1410	1.4100e+000	129.272461	36.196702
1411	1.4110e+000	127.861023	36.163701
1412	1.4120e+000	127.037048	36.106896
1413	1.4130e+000	125.663757	36.049550
1414	1.4140e+000	124.473572	35.995450
1415	1.4150e+000	123.634338	35.974351
1416	1.4160e+000	122.306824	35.878594
1417	1.4170e+000	120.925903	35.839642
1418	1.4180e+000	119.522095	35.781214
1419	1.4190e+000	118.492126	35.716294
1420	1.4200e+000	117.004395	35.654620
1421	1.4210e+000	116.172791	35.592405
1422	1.4220e+000	115.097046	35.489615
1423	1.4230e+000	113.807678	35.469057
1424	1.4240e+000	112.571716	35.441466
1425	1.4250e+000	111.328125	35.308380
1426	1.4260e+000	110.176086	35.250493
1427	1.4270e+000	109.069824	35.107669
1428	1.4280e+000	107.391357	35.104423
1429	1.4290e+000	106.529236	35.014076
1430	1.4300e+000	105.598450	34.967009
1431	1.4310e+000	104.362488	34.939959
1432	1.4320e+000	102.912903	34.784151
1433	1.4330e+000	101.860046	34.701378
1434	1.4340e+000	100.410461	34.612654
1435	1.4350e+000	99.159241	34.517438
1436	1.4360e+000	98.381042	34.441157
1437	1.4370e+000	97.442627	34.350269
1438	1.4380e+000	95.565796	34.253971
1439	1.4390e+000	92.514038	34.031078
1440	1.4400e+000	93.498230	34.045685
1441	1.4410e+000	91.964722	33.925042
1442	1.4420e+000	90.888977	33.836318
1443	1.4430e+000	89.881897	33.732446
1444	1.4440e+000	88.554382	33.618836
1445	1.4450e+000	87.303162	33.497652
1446	1.4460e+000	86.860657	33.426240
1447	1.4470e+000	84.724426	33.333188
1448	1.4480e+000	82.885742	33.112460
1449	1.4490e+000	82.473755	33.034556
1450	1.4500e+000	81.428528	32.916077
1451	1.4510e+000	80.070496	32.780286
1452	1.4520e+000	79.132080	32.663971
1453	1.4530e+000	77.751160	32.517901
1454	1.4540e+000	76.408386	32.297714
1455	1.4550e+000	75.386047	32.216564
1456	1.4560e+000	74.340820	32.071035
1457	1.4570e+000	72.814941	31.928752
1458	1.4580e+000	71.762085	31.849225
1459	1.4590e+000	70.716858	31.626873
1460	1.4600e+000	69.107056	31.477557
1461	1.4610e+000	68.031311	31.331487
1462	1.4620e+000	66.871643	31.136186
1463	1.4630e+000	65.620422	30.976050
1464	1.4640e+000	64.552307	30.777503
1465	1.4650e+000	63.209534	30.585448
1466	1.4660e+000	62.438965	30.448575
1467	1.4670e+000	60.890198	30.210535
1468	1.4680e+000	59.738159	30.035251
1469	1.4690e+000	59.410095	29.802080
1470	1.4700e+000	57.151794	29.598123
1471	1.4710e+000	55.862427	29.399035
1472	1.4720e+000	54.985046	29.184257
1473	1.4730e+000	53.749084	28.985710
1474	1.4740e+000	53.222656	28.732522
1475	1.4750e+000	51.261902	28.504220
1476	1.4760e+000	50.216675	28.277541
1477	1.4770e+000	48.713684	28.004336
1478	1.4780e+000	47.889709	27.873414
1479	1.4790e+000	46.463013	27.474697
1480	1.4800e+000	45.417786	27.211771
1481	1.4810e+000	44.052124	26.939647
1482	1.4820e+000	42.900085	26.631277
1483	1.4830e+000	41.816711	26.337514
1484	1.4840e+000	42.228699	26.025898
1485	1.4850e+000	39.077759	25.668838
1486	1.4860e+000	38.223267	25.349107
1487	1.4870e+000	36.956787	24.997998
1488	1.4880e+000	35.858154	24.671774
1489	1.4890e+000	34.133911	24.272516
1490	1.4900e+000	33.355713	23.879209
1491	1.4910e+000	32.073975	23.459934
1492	1.4920e+000	31.112671	23.044446
1493	1.4930e+000	29.975891	22.645729
1494	1.4940e+000	28.572083	22.226453
1495	1.4950e+000	27.389526	21.695732
1496	1.4960e+000	25.932312	21.176913
1497	1.4970e+000	24.711609	20.699210
1498	1.4980e+000	23.559570	20.133865
1499	1.4990e+000	21.812439	19.499271
1500	1.5000e+000	21.537781	18.966386
1501	1.5010e+000	19.943237	18.377237
1502	1.5020e+000	19.996643	17.736152
1503	1.5030e+000	17.906189	17.112378
1504	1.5040e+000	16.700745	16.430177
1505	1.5050e+000	15.296936	15.776649
1506	1.5060e+000	14.350891	14.977591
1507	1.5070e+000	13.320923	14.199633
1508	1.5080e+000	12.123108	13.389756
1509	1.5090e+000	10.719299	12.531188
1510	1.5100e+000	9.773254	11.677490
1511	1.5110e+000	7.560730	10.733986
1512	1.5120e+000	7.049561	9.844040
1513	1.5130e+000	6.057739	8.904323
1514	1.5140e+000	3.318787	7.787157
1515	1.5150e+000	3.852844	6.867998
1516	1.5160e+000	2.494812	5.852540
1517	1.5170e+000	1.220703	4.795426
1518	1.5180e+000	-0.236511	3.700442
1519	1.5190e+000	-1.243591	2.611408
1520	1.5200e+000	-3.150940	1.407142
1521	1.5210e+000	-3.479004	0.277533
1522	1.5220e+000	-4.875183	-0.883994
1523	1.5230e+000	-6.072998	-2.076900
1524	1.5240e+000	-7.186890	-3.296314
1525	1.5250e+000	-8.300781	-4.571993
1526	1.5260e+000	-9.170532	-5.823326
1527	1.5270e+000	-10.803223	-7.174745
1528	1.5280e+000	-11.909485	-8.483966
1529	1.5290e+000	-15.228271	-9.966847
1530	1.5300e+000	-14.373779	-11.238739
1531	1.5310e+000	-15.693665	-12.581501
1532	1.5320e+000	-16.616821	-13.994594
1533	1.5330e+000	-18.020630	-15.325996
1534	1.5340e+000	-19.065857	-16.722317
1535	1.5350e+000	-20.805359	-18.085638
1536	1.5360e+000	-21.438599	-19.391612
1537	1.5370e+000	-22.872925	-20.740326
1538	1.5380e+000	-24.200439	-21.912673
1539	1.5390e+000	-25.062561	-23.147236
1540	1.5400e+000	-26.229858	-24.245466
1541	1.5410e+000	-27.648926	-25.194922
1542	1.5420e+000	-28.739929	-26.175214
1543	1.5430e+000	-30.021667	-27.009436
1544	1.5440e+000	-32.257080	-27.748443
1545	1.5450e+000	-32.623291	-28.446874
1546	1.5460e+000	-33.714294	-28.965693
1547	1.5470e+000	-34.767151	-29.446643
1548	1.5480e+000	-36.369324	-29.862672
1549	1.5490e+000	-37.567139	-30.276537
1550	1.5500e+000	-38.467407	-30.604924
1551	1.5510e+000	-39.840698	-30.923032
1552	1.5520e+000	-40.832520	-31.211385
1553	1.5530e+000	-42.037964	-31.442392
1554	1.5540e+000	-43.334961	-31.683678
1555	1.5550e+000	-44.639587	-31.897915
1556	1.5560e+000	-44.380188	-32.051018
1557	1.5570e+000	-47.225952	-32.267959
1558	1.5580e+000	-48.446655	-32.460555
1559	1.5590e+000	-48.126221	-32.589854
1560	1.5600e+000	-50.598145	-32.770007
1561	1.5610e+000	-51.651001	-32.931766
1562	1.5620e+000	-52.856445	-33.076213
1563	1.5630e+000	-54.244995	-33.204971
1564	1.5640e+000	-55.137634	-33.325614
1565	1.5650e+000	-56.480408	-33.467897
1566	1.5660e+000	-57.754517	-33.590163
1567	1.5670e+000	-58.578491	-33.705396
1568	1.5680e+000	-60.226440	-33.790874
1569	1.5690e+000	-61.653137	-33.890959
1570	1.5700e+000	-62.339783	-33.983470
1571	1.5710e+000	-63.735962	-34.080851
1572	1.5720e+000	-65.299988	-34.240446
1573	1.5730e+000	-66.009521	-34.272906
1574	1.5740e+000	-67.886353	-34.426009
1575	1.5750e+000	-68.496704	-34.446567
1576	1.5760e+000	-70.396423	-34.541242
1577	1.5770e+000	-71.098328	-34.600211
1578	1.5780e+000	-72.242737	-34.679738
1579	1.5790e+000	-73.211670	-34.753314
1580	1.5800e+000	-74.531555	-34.830677
1581	1.5810e+000	-75.660706	-34.907499
1582	1.5820e+000	-76.873779	-34.982698
1583	1.5830e+000	-78.102112	-35.034634
1584	1.5840e+000	-79.223633	-35.113620
1585	1.5850e+000	-80.444336	-35.192606
1586	1.5860e+000	-81.703186	-35.228312
1587	1.5870e+000	-82.740784	-35.306216
1588	1.5880e+000	-84.190369	-35.377628
1589	1.5890e+000	-85.723877	-35.416039
1590	1.5900e+000	-86.402893	-35.469057
1591	1.5910e+000	-87.707520	-35.518288
1592	1.5920e+000	-89.752197	-35.651374
1593	1.5930e+000	-90.026855	-35.654620
1594	1.5940e+000	-91.278076	-35.716835
1595	1.5950e+000	-93.170166	-35.767148
1596	1.5960e+000	-93.811035	-35.814215
1597	1.5970e+000	-94.970703	-35.860200
1598	1.5980e+000	-96.000671	-35.902398
1599	1.5990e+000	-97.213745	-35.968941
1600	1.6000e+000	-98.419189	-36.012762
1601	1.6010e+000	-99.861145	-36.055501
1602	1.6020e+000	-101.028442	-36.125831
1603	1.6030e+000	-102.302551	-36.160996
1604	1.6040e+000	-104.019165	-36.218342
1605	1.6050e+000	-104.400635	-36.256212
1606	1.6060e+000	-105.712891	-36.264868
1607	1.6070e+000	-107.162476	-36.350346
1608	1.6080e+000	-107.978821	-36.389839
1609	1.6090e+000	-109.146118	-36.428251
1610	1.6100e+000	-111.549377	-36.495335
1611	1.6110e+000	-111.770630	-36.506696
1612	1.6120e+000	-112.953186	-36.531582
1613	1.6130e+000	-113.830566	-36.571075
1614	1.6140e+000	-115.646362	-36.667914
1615	1.6150e+000	-116.546631	-36.687931
1616	1.6160e+000	-117.774963	-36.723096
1617	1.6170e+000	-119.064331	-36.770163
1618	1.6180e+000	-119.903564	-36.805869
1619	1.6190e+000	-121.452332	-36.840493
1620	1.6200e+000	-122.322083	-36.870248
1621	1.6210e+000	-123.741150	-36.919479
1622	1.6220e+000	-125.534058	-36.969792
1623	1.6230e+000	-126.083374	-37.008203
1624	1.6240e+000	-127.166748	-37.011990
1625	1.6250e+000	-128.715515	-37.088271
1626	1.6260e+000	-130.035400	-37.107747
1627	1.6270e+000	-130.905151	-37.162929
1628	1.6280e+000	-132.415771	-37.173749
1629	1.6290e+000	-133.285522	-37.211619
1630	1.6300e+000	-134.353638	-37.247866
1631	1.6310e+000	-135.688782	-37.270047
1632	1.6320e+000	-136.940002	-37.334967
1633	1.6330e+000	-138.366699	-37.360394
1634	1.6340e+000	-139.068604	-37.412330
1635	1.6350e+000	-140.739441	-37.438839
1636	1.6360e+000	-141.738892	-37.455610
1637	1.6370e+000	-143.287659	-37.508628
1638	1.6380e+000	-144.325256	-37.532973
1639	1.6390e+000	-145.462036	-37.543793
1640	1.6400e+000	-146.453857	-37.588696
1641	1.6410e+000	-148.170471	-37.644419
1642	1.6420e+000	-148.971558	-37.649288
1643	1.6430e+000	-150.131226	-37.676879
1644	1.6440e+000	-151.298523	-37.718536
1645	1.6450e+000	-152.587891	-37.746127
1646	1.6460e+000	-152.992249	-37.761275
1647	1.6470e+000	-155.113220	-37.834851
1648	1.6480e+000	-156.120300	-37.852704
1649	1.6490e+000	-157.417297	-37.893279
1650	1.6500e+000	-159.103394	-37.921952
1651	1.6510e+000	-159.858704	-37.941428
1652	1.6520e+000	-161.231995	-37.958199
1653	1.6530e+000	-162.277222	-37.993364
1654	1.6540e+000	-163.261414	-38.003102
1655	1.6550e+000	-164.550781	-38.066940
1656	1.6560e+000	-166.099548	-38.092367
1657	1.6570e+000	-166.694641	-38.124286
1658	1.6580e+000	-168.182373	-38.138352
1659	1.6590e+000	-169.158936	-38.148090
1660	1.6600e+000	-170.822144	-38.220043
1661	1.6610e+000	-171.646118	-38.230863
1662	1.6620e+000	-173.004150	-38.275225
1663	1.6630e+000	-174.377441	-38.297947
1664	1.6640e+000	-174.789429	-38.309849
1665	1.6650e+000	-176.788330	-38.358539
1666	1.6660e+000	-177.825928	-38.373146
1667	1.6670e+000	-178.947449	-38.395327
1668	1.6680e+000	-180.358887	-38.436984
1669	1.6690e+000	-181.449890	-38.476477
1670	1.6700e+000	-182.609558	-38.488379
1671	1.6710e+000	-183.822632	-38.526790
1672	1.6720e+000	-185.180664	-38.540856
1673	1.6730e+000	-186.164856	-38.567365
1674	1.6740e+000	-187.454224	-38.611186
1675	1.6750e+000	-188.743591	-38.618219
1676	1.6760e+000	-189.804077	-38.653925
1677	1.6770e+000	-191.070557	-38.672860
1678	1.6780e+000	-192.230225	-38.726419
1679	1.6790e+000	-193.954468	-38.743731
1680	1.6800e+000	-194.488525	-38.771863
1681	1.6810e+000	-195.976257	-38.787012
1682	1.6820e+000	-197.090149	-38.839489
1683	1.6830e+000	-198.478699	-38.853014
1684	1.6840e+000	-199.874878	-38.884933
1685	1.6850e+000	-200.637817	-38.900081
1686	1.6860e+000	-201.667786	-38.936869
1687	1.6870e+000	-202.568054	-38.917934
1688	1.6880e+000	-204.154968	-38.969870
1689	1.6890e+000	-205.223083	-39.007740
1690	1.6900e+000	-206.344604	-39.027757
1691	1.6910e+000	-207.809448	-39.058053
1692	1.6920e+000	-208.992004	-39.097546
1693	1.6930e+000	-210.174561	-39.105661
1694	1.6940e+000	-211.975098	-39.125678
1695	1.6950e+000	-212.524414	-39.145695
1696	1.6960e+000	-213.890076	-39.191139
1697	1.6970e+000	-214.996338	-39.219812
1698	1.6980e+000	-216.064453	-39.250108
1699	1.6990e+000	-217.414856	-39.240370
1700	1.7000e+000	-218.818665	-39.315028
1701	1.7010e+000	-219.940186	-39.301503
1702	1.7020e+000	-221.038818	-39.344242
1703	1.7030e+000	-222.038269	-39.364800
1704	1.7040e+000	-223.487854	-39.397801
1705	1.7050e+000	-225.616455	-39.461639
1706	1.7060e+000	-225.616455	-39.418359
1707	1.7070e+000	-227.218628	-39.490853
1708	1.7080e+000	-228.187561	-39.473000
1709	1.7090e+000	-229.209900	-39.481115
1710	1.7100e+000	-230.445862	-39.528723
1711	1.7110e+000	-231.788635	-39.544412
1712	1.7120e+000	-232.963562	-39.575790
1713	1.7130e+000	-234.222412	-39.602299
1714	1.7140e+000	-235.107422	-39.606086
1715	1.7150e+000	-236.274719	-39.654235
1716	1.7160e+000	-238.128662	-39.675875
1717	1.7170e+000	-239.013672	-39.675334
1718	1.7180e+000	-240.867615	-39.755402
1719	1.7190e+000	-241.493225	-39.753238
1720	1.7200e+000	-242.774963	-39.768386
1721	1.7210e+000	-243.858337	-39.810584
1722	1.7220e+000	-245.040894	-39.818699
1723	1.7230e+000	-246.192932	-39.833847
1724	1.7240e+000	-247.306824	-39.858192
1725	1.7250e+000	-249.183655	-39.914456
1726	1.7260e+000	-249.786377	-39.929604
1727	1.7270e+000	-251.075745	-39.950703
1728	1.7280e+000	-251.922607	-39.964769
1729	1.7290e+000	-253.601074	-39.990196
1730	1.7300e+000	-254.478455	-40.000475
1731	1.7310e+000	-255.981445	-40.031312
1732	1.7320e+000	-256.820679	-40.043214
1733	1.7330e+000	-258.323669	-40.086494
1734	1.7340e+000	-259.628296	-40.101642
1735	1.7350e+000	-260.620117	-40.120577
1736	1.7360e+000	-262.351990	-40.142758
1737	1.7370e+000	-263.046265	-40.189284
1738	1.7380e+000	-264.236450	-40.190366
1739	1.7390e+000	-265.525818	-40.236351
1740	1.7400e+000	-265.197754	-40.190366
1741	1.7410e+000	-268.051147	-40.268811
1742	1.7420e+000	-268.913269	-40.276385
1743	1.7430e+000	-269.943237	-40.289910
1744	1.7440e+000	-271.385193	-40.337518
1745	1.7450e+000	-272.735596	-40.363486
1746	1.7460e+000	-273.803711	-40.374306
1747	1.7470e+000	-275.009155	-40.400815
1748	1.7480e+000	-276.000977	-40.441931
1749	1.7490e+000	-277.496338	-40.442472
1750	1.7500e+000	-278.671265	-40.467358
1751	1.7510e+000	-279.830933	-40.480883
1752	1.7520e+000	-278.015137	-40.474391
1753	1.7530e+000	-277.526855	-40.460325
1754	1.7540e+000	-276.031494	-40.414340
1755	1.7550e+000	-275.093079	-40.428947
1756	1.7560e+000	-273.849487	-40.391618
1757	1.7570e+000	-272.705078	-40.381339
1758	1.7580e+000	-271.240234	-40.345092
1759	1.7590e+000	-270.111084	-40.345092
1760	1.7600e+000	-268.951416	-40.330485
1761	1.7610e+000	-267.677307	-40.312091
1762	1.7620e+000	-266.921997	-40.287205
1763	1.7630e+000	-265.289307	-40.285041
1764	1.7640e+000	-264.404297	-40.257991
1765	1.7650e+000	-263.130188	-40.208219
1766	1.7660e+000	-262.130737	-40.204973
1767	1.7670e+000	-260.551453	-40.206055
1768	1.7680e+000	-259.475708	-40.173595
1769	1.7690e+000	-258.102417	-40.147627
1770	1.7700e+000	-256.851196	-40.127610
1771	1.7710e+000	-256.080627	-40.135725
1772	1.7720e+000	-253.753662	-40.050247
1773	1.7730e+000	-253.524780	-40.082166
1774	1.7740e+000	-252.098083	-40.049706
1775	1.7750e+000	-250.679016	-40.026984
1776	1.7760e+000	-249.946594	-40.022656
1777	1.7770e+000	-248.550415	-39.995606
1778	1.7780e+000	-247.406006	-39.970720
1779	1.7790e+000	-246.208191	-39.950703
1780	1.7800e+000	-244.682312	-39.896062
1781	1.7810e+000	-243.911743	-39.913915
1782	1.7820e+000	-240.463257	-39.797059
1783	1.7830e+000	-241.477966	-39.856569
1784	1.7840e+000	-240.264893	-39.854946
1785	1.7850e+000	-239.074707	-39.821945
1786	1.7860e+000	-238.021851	-39.799764
1787	1.7870e+000	-236.518860	-39.775419
1788	1.7880e+000	-235.336304	-39.772714
1789	1.7890e+000	-234.062195	-39.744041
1790	1.7900e+000	-232.452393	-39.730516
1791	1.7910e+000	-231.842041	-39.712122
1792	1.7920e+000	-230.575562	-39.676416
1793	1.7930e+000	-229.339600	-39.649366
1794	1.7940e+000	-228.088379	-39.630431
1795	1.7950e+000	-226.921082	-39.618529
1796	1.7960e+000	-225.692749	-39.597430
1797	1.7970e+000	-224.456787	-39.586069
1798	1.7980e+000	-223.144531	-39.535215
1799	1.7990e+000	-222.381592	-39.549822
1800	1.8000e+000	-220.977783	-39.507083
1801	1.8010e+000	-219.917297	-39.480033
1802	1.8020e+000	-218.246460	-39.448655
1803	1.8030e+000	-217.468262	-39.451901
1804	1.8040e+000	-215.881348	-39.430802
1805	1.8050e+000	-214.942932	-39.403211
1806	1.8060e+000	-213.676453	-39.383194
1807	1.8070e+000	-212.646484	-39.363177
1808	1.8080e+000	-211.524963	-39.346406
1809	1.8090e+000	-210.159302	-39.311782
1810	1.8100e+000	-208.930969	-39.283650
1811	1.8110e+000	-207.672119	-39.283650
1812	1.8120e+000	-206.214905	-39.258223
1813	1.8130e+000	-204.978943	-39.185729
1814	1.8140e+000	-204.223633	-39.199795
1815	1.8150e+000	-202.957153	-39.181942
1816	1.8160e+000	-201.828003	-39.167876
1817	1.8170e+000	-202.499390	-39.220894
1818	1.8180e+000	-199.272156	-39.115940
1819	1.8190e+000	-198.196411	-39.069955
1820	1.8200e+000	-196.945190	-39.075906
1821	1.8210e+000	-195.800781	-39.061840
1822	1.8220e+000	-194.618225	-39.026675
1823	1.8230e+000	-193.038940	-39.002330
1824	1.8240e+000	-191.963196	-38.989887
1825	1.8250e+000	-190.795898	-38.957427
1826	1.8260e+000	-189.559937	-38.926049
1827	1.8270e+000	-188.903809	-38.930377
1828	1.8280e+000	-187.332153	-38.896835
1829	1.8290e+000	-186.157227	-38.848145
1830	1.8300e+000	-185.020447	-38.841653
1831	1.8310e+000	-183.700562	-38.812980
1832	1.8320e+000	-182.647705	-38.800537
1833	1.8330e+000	-181.777954	-38.805406
1834	1.8340e+000	-179.962158	-38.745895
1835	1.8350e+000	-178.833008	-38.728583
1836	1.8360e+000	-177.856445	-38.712353
1837	1.8370e+000	-176.795959	-38.687467
1838	1.8380e+000	-175.109863	-38.659335
1839	1.8390e+000	-174.110413	-38.633908
1840	1.8400e+000	-173.194885	-38.606858
1841	1.8410e+000	-171.730042	-38.567365
1842	1.8420e+000	-170.410156	-38.578185
1843	1.8430e+000	-169.403076	-38.531659
1844	1.8440e+000	-167.839050	-38.529495
1845	1.8450e+000	-166.618347	-38.506773
1846	1.8460e+000	-165.931702	-38.461870
1847	1.8470e+000	-164.550781	-38.453755
1848	1.8480e+000	-163.612366	-38.440230
1849	1.8490e+000	-162.239075	-38.381261
1850	1.8500e+000	-160.888672	-38.382343
1851	1.8510e+000	-159.782410	-38.351506
1852	1.8520e+000	-158.454895	-38.321210
1853	1.8530e+000	-157.539368	-38.302275
1854	1.8540e+000	-156.425476	-38.270356
1855	1.8550e+000	-155.059814	-38.249257
1856	1.8560e+000	-153.892517	-38.224912
1857	1.8570e+000	-152.549744	-38.218420
1858	1.8580e+000	-151.458740	-38.168107
1859	1.8590e+000	-151.092529	-38.176222
1860	1.8600e+000	-148.727417	-38.105892
1861	1.8610e+000	-147.850037	-38.086416
1862	1.8620e+000	-146.728516	-38.070727
1863	1.8630e+000	-145.286560	-38.002020
1864	1.8640e+000	-144.538879	-38.027447
1865	1.8650e+000	-143.157959	-38.005266
1866	1.8660e+000	-141.723633	-37.980380
1867	1.8670e+000	-140.586853	-37.940346
1868	1.8680e+000	-139.343262	-38.001479
1869	1.8690e+000	-137.969971	-37.895443
1870	1.8700e+000	-137.092590	-37.861360
1871	1.8710e+000	-135.833740	-37.826736
1872	1.8720e+000	-134.597778	-37.825654
1873	1.8730e+000	-133.125305	-37.774259
1874	1.8740e+000	-132.308960	-37.762898
1875	1.8750e+000	-131.027222	-37.696355
1876	1.8760e+000	-129.783630	-37.697437
1877	1.8770e+000	-128.562927	-37.669846
1878	1.8780e+000	-127.182007	-37.629271
1879	1.8790e+000	-126.174927	-37.613041
1880	1.8800e+000	-125.000000	-37.590860
1881	1.8810e+000	-123.992920	-37.547039
1882	1.8820e+000	-122.726440	-37.557318
1883	1.8830e+000	-121.414185	-37.512415
1884	1.8840e+000	-120.269775	-37.483742
1885	1.8850e+000	-118.919373	-37.442626
1886	1.8860e+000	-117.797852	-37.423150
1887	1.8870e+000	-116.638184	-37.403674
1888	1.8880e+000	-115.325928	-37.376624
1889	1.8890e+000	-114.227295	-37.336049
1890	1.8900e+000	-113.334656	-37.314950
1891	1.8910e+000	-111.717224	-37.280867
1892	1.8920e+000	-110.687256	-37.253276
1893	1.8930e+000	-109.466553	-37.227308
1894	1.8940e+000	-108.016968	-37.154814
1895	1.8950e+000	-107.078552	-37.159683
1896	1.8960e+000	-105.934143	-37.123977
1897	1.8970e+000	-104.698181	-37.106665
1898	1.8980e+000	-103.355408	-37.059057
1899	1.8990e+000	-102.409363	-37.059057
1900	1.9000e+000	-100.959778	-37.004957
1901	1.9010e+000	-100.120544	-36.999547
1902	1.9020e+000	-98.556519	-36.957349
1903	1.9030e+000	-97.419739	-36.964923
1904	1.9040e+000	-96.282959	-36.879445
1905	1.9050e+000	-95.932007	-36.884855
1906	1.9060e+000	-93.826294	-36.821558
1907	1.9070e+000	-92.613220	-36.795049
1908	1.9080e+000	-91.354370	-36.757179
1909	1.9090e+000	-90.171814	-36.713899
1910	1.9100e+000	-88.241577	-36.693341
1911	1.9110e+000	-88.020325	-36.644651
1912	1.9120e+000	-86.624146	-36.590010
1913	1.9130e+000	-85.441589	-36.584059
1914	1.9140e+000	-83.969116	-36.564042
1915	1.9150e+000	-83.343506	-36.531041
1916	1.9160e+000	-81.680298	-36.479105
1917	1.9170e+000	-80.604553	-36.466121
1918	1.9180e+000	-79.353333	-36.419053
1919	1.9190e+000	-78.689575	-36.414725
1920	1.9200e+000	-76.927185	-36.348182
1921	1.9210e+000	-75.721741	-36.309771
1922	1.9220e+000	-74.592590	-36.277311
1923	1.9230e+000	-73.623657	-36.242687
1924	1.9240e+000	-72.189331	-36.209145
1925	1.9250e+000	-70.831299	-36.144766
1926	1.9260e+000	-69.816589	-36.132323
1927	1.9270e+000	-68.588257	-36.095535
1928	1.9280e+000	-67.298889	-36.036566
1929	1.9290e+000	-66.513062	-36.006811
1930	1.9300e+000	-64.971924	-35.983007
1931	1.9310e+000	-64.033508	-35.919169
1932	1.9320e+000	-62.744141	-35.909972
1933	1.9330e+000	-61.408997	-35.869938
1934	1.9340e+000	-59.951782	-35.753623
1935	1.9350e+000	-59.394836	-35.780132
1936	1.9360e+000	-57.655334	-35.710343
1937	1.9370e+000	-56.617737	-35.688703
1938	1.9380e+000	-54.939270	-35.645964
1939	1.9390e+000	-54.275513	-35.607012
1940	1.9400e+000	-54.878235	-35.676260
1941	1.9410e+000	-51.544189	-35.499353
1942	1.9420e+000	-50.659180	-35.457696
1943	1.9430e+000	-49.621582	-35.428482
1944	1.9440e+000	-48.149109	-35.366267
1945	1.9450e+000	-47.157288	-35.249411
1946	1.9460e+000	-45.783997	-35.275920
1947	1.9470e+000	-45.196533	-35.252116
1948	1.9480e+000	-43.334961	-35.186655
1949	1.9490e+000	-42.243958	-35.138506
1950	1.9500e+000	-40.954590	-35.071422
1951	1.9510e+000	-39.810181	-35.020568
1952	1.9520e+000	-38.475037	-34.963222
1953	1.9530e+000	-37.406921	-34.920483
1954	1.9540e+000	-36.315918	-34.853399
1955	1.9550e+000	-34.934998	-34.797676
1956	1.9560e+000	-34.027100	-34.776577
1957	1.9570e+000	-32.691956	-34.681361
1958	1.9580e+000	-31.517029	-34.614818
1959	1.9590e+000	-30.220032	-34.552062
1960	1.9600e+000	-29.060364	-34.487683
1961	1.9610e+000	-28.015137	-34.423845
1962	1.9620e+000	-26.626587	-34.371368
1963	1.9630e+000	-25.482178	-34.295087
1964	1.9640e+000	-23.994446	-34.223675
1965	1.9650e+000	-22.949219	-34.150640
1966	1.9660e+000	-21.789551	-34.083556
1967	1.9670e+000	-20.606995	-33.985634
1968	1.9680e+000	-19.416809	-33.907189
1969	1.9690e+000	-18.218994	-33.831449
1970	1.9700e+000	-16.998291	-33.711347
1971	1.9710e+000	-15.747070	-33.663739
1972	1.9720e+000	-14.549255	-33.537686
1973	1.9730e+000	-13.298035	-33.446798
1974	1.9740e+000	-11.962891	-33.352123
1975	1.9750e+000	-11.062622	-33.228234
1976	1.9760e+000	-9.819031	-33.141674
1977	1.9770e+000	-8.438110	-33.039425
1978	1.9780e+000	-7.492065	-32.912831
1979	1.9790e+000	-6.446838	-32.781368
1980	1.9800e+000	-4.959106	-32.709415
1981	1.9810e+000	-3.982544	-32.515196
1982	1.9820e+000	-4.013062	-32.425931
1983	1.9830e+000	-1.342773	-32.201416
1984	1.9840e+000	0.007629	-32.006656
1985	1.9850e+000	0.686646	-31.855176
1986	1.9860e+000	2.166748	-31.673399
1987	1.9870e+000	3.684998	-31.455917
1988	1.9880e+000	4.737854	-31.273600
1989	1.9890e+000	5.722046	-31.057200
1990	1.9900e+000	6.843567	-30.824570
1991	1.9910e+000	8.171082	-30.562726
1992	1.9920e+000	9.201050	-30.330096
1993	1.9930e+000	10.421753	-30.038497
1994	1.9940e+000	11.528015	-29.719307
1995	1.9950e+000	12.901306	-29.369279
1996	1.9960e+000	14.091492	-28.994366
1997	1.9970e+000	15.304565	-28.616207
1998	1.9980e+000	16.456604	-28.177456
1999	1.9990e+000	17.776489	-27.718147
2000	2.0000e+000	18.821716	-27.236657
2001	2.0010e+000	19.866943	-26.721083

Center data before PMax,±Pr and ±Vc Calc.

PMax (µC/cm2):	4.05e+001
Pr (µC/cm2):	3.88e+000
-Pr (µC/cm2):	-2.67e+001
Vc:	4.70e-001
-Vc:	-3.81e-002
C (Max-Eff) (nF):	1.06e+000
K (Eff):	1.53e+003
Vert. (±Pr) Shift (µC/cm2):	-1.14e+001
Horiz. Shift (±Vc):	2.16e-001
Offset (µC/cm2):	2.05e+001

A (Loop Area - µC/cm2·Volts):	3.73e+001



Hysteresis Version: 5.16.2 - Radiant Technologies, Inc., 1999 - 3/20/18

