»»»»»»»»»»»»»»»»»»»»»»»»»»»»»»»»»»»» Hysteresis ««««««««««««««««««««««««««««««««««««
»»»  Executed Version:	5.16.2
»»»  Vision Version:	5.16.10 (R)
»»»  Vision Compiled:	4/26/18
»»»  Driver Version:	5.16.6
»»»  Windows Version:	Windows 8
»»»  Processor Information:	x86 (AMD or Intel) - 8 Processors
»»»  Tester Name:	PPM21016-863
»»»  Tester S/N:	PPM21016-863
»»»  Internal Amp Type:	 RTI ML200V    
»»»  Internal Amp S/N:	 iAB2-0000     
»»»  Execution Count:	1
»»»»»»»»»»»»»»»»»»»»»»»»»»»»»»»»»»»»»»»»»»««««««««««««««««««««««««««««««««««««««««««

Stored:	8/22/2018 - 6:24:44
Configured:	08/22/18 06:20:09 AM
Executed:	08/22/18 06:24:16 AM

»»»»»»»»»»»»»»»»»»»»»»»»»»»»»»»»»»» Sample Info ««««««««««««««««««««««««««««««««««««
Sample Name:	Internal Reference Cap.
Lot Name:	N/A
Wafer Name:	N/A
Die Row/Column:	0/0
Capacitor Number:	0
Sample Area (cm2):	6.20e-005
Sample Thickness (µm):	1.00e-001

Mux Loop Adjustment:	Disabled

Amplifier:	Internal

»»»»»»»»»»»»»»»»»»»»»»»»»»»»»»»»»»» Tester Info «««««««««««««««««««««««««««««««««««
Tester Name:	PPM21016-863
Tester Serial Number:	PPM21016-863
Return Signal Amp. Level:	0.19 [Index: 3]

»»»»»»»»»»»»»»»»»»»»»»»»»»»»»»»» Hysteresis Info ««««««««««««««««««««««««««««««««««
Task Name:	Hyst-1
Volts:	-3.00
Field:	-300.00 (kV/cm)
Hysteresis Period (ms):	2.00e+000
Preset:	Enabled
Preset Delay (ms):	1.00e+003
Profile:	Double Bipolar

»»»»»»»»»»»»»»»»»»»»»»»»»»»»»»»»»»»»»» Data «««««««««««««««««««««««««««««««««««««««
Points:	2001

Valid Data

Point	Time (ms)	Field (kV/cm)	Measured Polarization
   1	1.0000e-003	0.091553	54.228112
   2	2.0000e-003	-0.923157	54.299311
   3	3.0000e-003	-2.143860	54.351093
   4	4.0000e-003	-3.334045	54.273421
   5	5.0000e-003	-4.600525	54.279893
   6	6.0000e-003	-5.928040	54.266948
   7	7.0000e-003	-7.087708	54.228112
   8	8.0000e-003	-8.102417	54.228112
   9	9.0000e-003	-9.384155	54.266948
  10	1.0000e-002	-10.444641	54.124549
  11	1.1000e-002	-11.619568	54.286366
  12	1.2000e-002	-13.038635	54.182803
  13	1.3000e-002	-14.091492	54.215167
  14	1.4000e-002	-15.411377	54.215167
  15	1.5000e-002	-16.647339	54.105131
  16	1.6000e-002	-17.669678	54.273421
  17	1.7000e-002	-19.012451	54.131022
  18	1.8000e-002	-20.126343	54.059822
  19	1.9000e-002	-21.339417	53.956259
  20	2.0000e-002	-22.583008	54.033932
  21	2.1000e-002	-23.742676	53.949787
  22	2.2000e-002	-24.826050	53.813860
  23	2.3000e-002	-26.184082	54.040404
  24	2.4000e-002	-27.420044	53.826806
  25	2.5000e-002	-28.656006	53.826806
  26	2.6000e-002	-29.830933	53.716770
  27	2.7000e-002	-30.899048	53.606735
  28	2.8000e-002	-32.150269	53.645571
  29	2.9000e-002	-33.386230	53.664989
  30	3.0000e-002	-34.545898	53.496699
  31	3.1000e-002	-35.881042	53.542008
  32	3.2000e-002	-36.964417	53.444918
  33	3.3000e-002	-38.055420	53.380191
  34	3.4000e-002	-39.314270	53.354300
  35	3.5000e-002	-40.580750	53.231319
  36	3.6000e-002	-41.687012	52.998303
  37	3.7000e-002	-42.839050	53.140702
  38	3.8000e-002	-43.998718	52.713505
  39	3.9000e-002	-45.272827	52.901213
  40	4.0000e-002	-46.516418	52.726450
  41	4.1000e-002	-47.927856	52.830013
  42	4.2000e-002	-49.011230	52.603469
  43	4.3000e-002	-50.285339	52.519325
  44	4.4000e-002	-51.399231	52.428707
  45	4.5000e-002	-52.520752	52.331617
  46	4.6000e-002	-53.741455	52.176272
  47	4.7000e-002	-55.046082	52.176272
  48	4.8000e-002	-56.114197	51.956201
  49	4.9000e-002	-57.411194	51.716712
  50	5.0000e-002	-58.677673	51.729658
  51	5.1000e-002	-59.745789	51.477223
  52	5.2000e-002	-60.981750	51.328351
  53	5.3000e-002	-62.248230	51.075917
  54	5.4000e-002	-63.423157	50.946463
  55	5.5000e-002	-64.537048	50.758756
  56	5.6000e-002	-65.765381	50.357449
  57	5.7000e-002	-66.833496	50.227996
  58	5.8000e-002	-68.176270	50.027343
  59	5.9000e-002	-69.343567	49.768436
  60	6.0000e-002	-70.503235	49.438329
  61	6.1000e-002	-71.655273	49.037023
  62	6.2000e-002	-73.005676	48.687498
  63	6.3000e-002	-73.966980	48.325028
  64	6.4000e-002	-75.294495	48.085539
  65	6.5000e-002	-76.446533	47.548306
  66	6.6000e-002	-77.682495	47.211727
  67	6.7000e-002	-78.804016	46.655077
  68	6.8000e-002	-80.108643	46.350861
  69	6.9000e-002	-81.359863	45.632393
  70	7.0000e-002	-82.427979	45.244032
  71	7.1000e-002	-83.641052	44.622655
  72	7.2000e-002	-84.884644	44.007750
  73	7.3000e-002	-86.097717	43.237502
  74	7.4000e-002	-87.364197	42.590234
  75	7.5000e-002	-88.569641	41.787621
  76	7.6000e-002	-89.599609	41.010900
  77	7.7000e-002	-90.850830	40.104725
  78	7.8000e-002	-91.835022	39.237385
  79	7.9000e-002	-93.109131	38.376519
  80	8.0000e-002	-94.474792	37.256745
  81	8.1000e-002	-95.573425	36.195226
  82	8.2000e-002	-96.702576	35.114288
  83	8.3000e-002	-97.938538	33.936261
  84	8.4000e-002	-99.151611	32.687033
  85	8.5000e-002	-100.440979	31.243626
  86	8.6000e-002	-101.577759	29.994399
  87	8.7000e-002	-102.752686	28.738699
  88	8.8000e-002	-103.919983	27.133474
  89	8.9000e-002	-105.361938	25.644758
  90	9.0000e-002	-106.163025	24.084842
  91	9.1000e-002	-107.490540	22.401945
  92	9.2000e-002	-108.726501	20.777302
  93	9.3000e-002	-109.962463	18.977897
  94	9.4000e-002	-111.129761	17.230274
  95	9.5000e-002	-112.319946	15.404978
  96	9.6000e-002	-113.319397	13.456701
  97	9.7000e-002	-114.562988	11.702605
  98	9.8000e-002	-116.012573	9.741383
  99	9.9000e-002	-117.218018	7.890197
 100	1.0000e-001	-118.141174	6.006647
 101	1.0100e-001	-119.461060	3.786518
 102	1.0200e-001	-120.681763	1.689369
 103	1.0300e-001	-121.856689	-0.278325
 104	1.0400e-001	-123.046875	-2.517872
 105	1.0500e-001	-124.282837	-4.530876
 106	1.0600e-001	-125.335693	-6.705696
 107	1.0700e-001	-126.510620	-8.848153
 108	1.0800e-001	-127.761841	-10.984138
 109	1.0900e-001	-128.929138	-13.152486
 110	1.1000e-001	-130.325317	-15.288470
 111	1.1100e-001	-131.561279	-17.443872
 112	1.1200e-001	-132.736206	-19.651056
 113	1.1300e-001	-133.911133	-21.897076
 114	1.1400e-001	-134.880066	-23.884189
 115	1.1500e-001	-136.268616	-26.162572
 116	1.1600e-001	-137.458801	-28.479791
 117	1.1700e-001	-138.664246	-30.505740
 118	1.1800e-001	-139.846802	-32.712924
 119	1.1900e-001	-141.029358	-34.764764
 120	1.2000e-001	-142.097473	-36.959002
 121	1.2100e-001	-143.356323	-39.075568
 122	1.2200e-001	-144.592285	-41.172717
 123	1.2300e-001	-145.782471	-43.321646
 124	1.2400e-001	-147.140503	-45.444685
 125	1.2500e-001	-148.239136	-47.567724
 126	1.2600e-001	-149.475098	-49.658400
 127	1.2700e-001	-150.619507	-51.651985
 128	1.2800e-001	-151.847839	-53.671462
 129	1.2900e-001	-153.160095	-55.749192
 130	1.3000e-001	-154.190063	-57.600378
 131	1.3100e-001	-155.441284	-59.749308
 132	1.3200e-001	-156.837463	-61.568131
 133	1.3300e-001	-157.875061	-63.496990
 134	1.3400e-001	-159.080505	-65.380539
 135	1.3500e-001	-160.430908	-67.018127
 136	1.3600e-001	-161.460876	-68.578043
 137	1.3700e-001	-162.811279	-69.814325
 138	1.3800e-001	-164.039612	-70.772282
 139	1.3900e-001	-165.229797	-71.160643
 140	1.4000e-001	-166.618347	-71.290096
 141	1.4100e-001	-167.755127	-71.432495
 142	1.4200e-001	-168.945313	-71.600785
 143	1.4300e-001	-170.135498	-71.607257
 144	1.4400e-001	-171.318054	-71.646094
 145	1.4500e-001	-172.531128	-71.620203
 146	1.4600e-001	-173.660278	-71.697875
 147	1.4700e-001	-175.010681	-71.639621
 148	1.4800e-001	-176.147461	-71.529585
 149	1.4900e-001	-177.490234	-71.626676
 150	1.5000e-001	-178.527832	-71.652566
 151	1.5100e-001	-179.763794	-71.691402
 152	1.5200e-001	-180.923462	-71.782020
 153	1.5300e-001	-182.067871	-71.691402
 154	1.5400e-001	-183.456421	-71.814383
 155	1.5500e-001	-184.593201	-71.775547
 156	1.5600e-001	-185.760498	-71.827329
 157	1.5700e-001	-186.920166	-71.833801
 158	1.5800e-001	-188.171387	-71.782020
 159	1.5900e-001	-189.353943	-71.827329
 160	1.6000e-001	-190.612793	-71.820856
 161	1.6100e-001	-191.802979	-71.963255
 162	1.6200e-001	-193.084717	-71.859692
 163	1.6300e-001	-194.122314	-71.982673
 164	1.6400e-001	-195.228577	-71.969728
 165	1.6500e-001	-196.586609	-72.015036
 166	1.6600e-001	-197.723389	-71.924419
 167	1.6700e-001	-198.890686	-71.995618
 168	1.6800e-001	-200.263977	-72.053872
 169	1.6900e-001	-201.400757	-71.911473
 170	1.7000e-001	-202.606201	-71.950310
 171	1.7100e-001	-203.697205	-72.144490
 172	1.7200e-001	-204.948425	-72.112127
 173	1.7300e-001	-206.085205	-72.150963
 174	1.7400e-001	-207.313538	-72.125072
 175	1.7500e-001	-208.602905	-72.079763
 176	1.7600e-001	-209.693909	-72.183326
 177	1.7700e-001	-210.983276	-72.150963
 178	1.7800e-001	-212.104797	-72.183326
 179	1.7900e-001	-213.317871	-72.131545
 180	1.8000e-001	-214.630127	-72.170381
 181	1.8100e-001	-215.858459	-72.312780
 182	1.8200e-001	-217.018127	-72.248053
 183	1.8300e-001	-218.132019	-72.319252
 184	1.8400e-001	-219.429016	-72.260998
 185	1.8500e-001	-220.382690	-72.299834
 186	1.8600e-001	-221.702576	-72.332198
 187	1.8700e-001	-223.052979	-72.403397
 188	1.8800e-001	-224.105835	-72.248053
 189	1.8900e-001	-225.395203	-72.338670
 190	1.9000e-001	-226.470947	-72.209217
 191	1.9100e-001	-227.798462	-72.442233
 192	1.9200e-001	-228.904724	-72.396924
 193	1.9300e-001	-230.171204	-72.332198
 194	1.9400e-001	-231.422424	-72.448706
 195	1.9500e-001	-232.482910	-72.500487
 196	1.9600e-001	-233.657837	-72.435760
 197	1.9700e-001	-235.008240	-72.539323
 198	1.9800e-001	-235.984802	-72.494015
 199	1.9900e-001	-237.213135	-72.539323
 200	2.0000e-001	-238.540649	-72.519905
 201	2.0100e-001	-239.746094	-72.461651
 202	2.0200e-001	-241.027832	-72.552269
 203	2.0300e-001	-242.164612	-72.688195
 204	2.0400e-001	-243.202209	-72.584632
 205	2.0500e-001	-244.567871	-72.701140
 206	2.0600e-001	-245.666504	-72.681722
 207	2.0700e-001	-246.849060	-72.681722
 208	2.0800e-001	-248.092651	-72.739976
 209	2.0900e-001	-249.366760	-72.655832
 210	2.1000e-001	-250.488281	-72.739976
 211	2.1100e-001	-251.663208	-72.772340
 212	2.1200e-001	-252.952576	-72.694668
 213	2.1300e-001	-254.211426	-72.785285
 214	2.1400e-001	-255.424500	-72.811176
 215	2.1500e-001	-256.515503	-72.843539
 216	2.1600e-001	-257.835388	-72.888848
 217	2.1700e-001	-259.254456	-72.927684
 218	2.1800e-001	-260.055542	-72.960048
 219	2.1900e-001	-261.276245	-73.031247
 220	2.2000e-001	-262.702942	-72.927684
 221	2.2100e-001	-263.778687	-72.998884
 222	2.2200e-001	-264.968872	-73.141283
 223	2.2300e-001	-266.159058	-73.063610
 224	2.2400e-001	-267.318726	-73.121865
 225	2.2500e-001	-268.608093	-73.160701
 226	2.2600e-001	-269.752502	-73.083028
 227	2.2700e-001	-270.935059	-73.180119
 228	2.2800e-001	-272.193909	-73.134810
 229	2.2900e-001	-273.353577	-73.212482
 230	2.3000e-001	-274.604797	-73.270736
 231	2.3100e-001	-275.749207	-73.316045
 232	2.3200e-001	-277.000427	-73.387244
 233	2.3300e-001	-278.213501	-73.335463
 234	2.3400e-001	-279.251099	-73.568479
 235	2.3500e-001	-280.563354	-73.445499
 236	2.3600e-001	-281.806946	-73.510225
 237	2.3700e-001	-283.081055	-73.536116
 238	2.3800e-001	-284.194946	-73.574952
 239	2.3900e-001	-285.385132	-73.620261
 240	2.4000e-001	-286.415100	-73.672042
 241	2.4100e-001	-287.719727	-73.646152
 242	2.4200e-001	-289.024353	-73.691460
 243	2.4300e-001	-290.092468	-73.795023
 244	2.4400e-001	-291.458130	-73.769133
 245	2.4500e-001	-292.625427	-73.820914
 246	2.4600e-001	-293.869019	-73.872695
 247	2.4700e-001	-295.043945	-73.859750
 248	2.4800e-001	-296.264648	-73.918004
 249	2.4900e-001	-297.683716	-73.872695
 250	2.5000e-001	-298.591614	-74.047458
 251	2.5100e-001	-299.903870	-74.047458
 252	2.5200e-001	-298.896790	-74.138075
 253	2.5300e-001	-297.645569	-74.163966
 254	2.5400e-001	-296.386719	-74.189857
 255	2.5500e-001	-295.265198	-74.040985
 256	2.5600e-001	-294.151306	-74.131603
 257	2.5700e-001	-292.785645	-74.222220
 258	2.5800e-001	-291.671753	-74.228693
 259	2.5900e-001	-290.443420	-74.286947
 260	2.6000e-001	-289.314270	-74.351674
 261	2.6100e-001	-288.139343	-74.235166
 262	2.6200e-001	-286.811829	-74.209275
 263	2.6300e-001	-285.675049	-74.332256
 264	2.6400e-001	-284.561157	-74.319310
 265	2.6500e-001	-283.287048	-74.299892
 266	2.6600e-001	-281.921387	-74.325783
 267	2.6700e-001	-280.967712	-74.319310
 268	2.6800e-001	-279.579163	-74.274002
 269	2.6900e-001	-278.625488	-74.267529
 270	2.7000e-001	-277.397156	-74.228693
 271	2.7100e-001	-276.062012	-74.371092
 272	2.7200e-001	-274.803162	-74.416401
 273	2.7300e-001	-273.712158	-74.306365
 274	2.7400e-001	-272.415161	-74.332256
 275	2.7500e-001	-271.141052	-74.461709
 276	2.7600e-001	-270.103455	-74.461709
 277	2.7700e-001	-268.997192	-74.435819
 278	2.7800e-001	-267.639160	-74.448764
 279	2.7900e-001	-266.571045	-74.468182
 280	2.8000e-001	-265.243530	-74.384037
 281	2.8100e-001	-264.175415	-74.403455
 282	2.8200e-001	-263.015747	-74.487600
 283	2.8300e-001	-261.695862	-74.403455
 284	2.8400e-001	-260.475159	-74.396983
 285	2.8500e-001	-259.170532	-74.494073
 286	2.8600e-001	-258.201599	-74.338728
 287	2.8700e-001	-256.866455	-74.416401
 288	2.8800e-001	-255.752563	-74.390510
 289	2.8900e-001	-254.478455	-74.364619
 290	2.9000e-001	-253.387451	-74.474655
 291	2.9100e-001	-251.861572	-74.364619
 292	2.9200e-001	-250.816345	-74.448764
 293	2.9300e-001	-249.687195	-74.565272
 294	2.9400e-001	-248.428345	-74.384037
 295	2.9500e-001	-247.222900	-74.409928
 296	2.9600e-001	-246.040344	-74.429346
 297	2.9700e-001	-244.918823	-74.442291
 298	2.9800e-001	-243.560791	-74.403455
 299	2.9900e-001	-242.530823	-74.409928
 300	3.0000e-001	-241.455078	-74.519963
 301	3.0100e-001	-240.051270	-74.371092
 302	3.0200e-001	-238.693237	-74.494073
 303	3.0300e-001	-237.640381	-74.519963
 304	3.0400e-001	-236.465454	-74.345201
 305	3.0500e-001	-235.198975	-74.435819
 306	3.0600e-001	-234.161377	-74.448764
 307	3.0700e-001	-232.765198	-74.429346
 308	3.0800e-001	-231.620789	-74.390510
 309	3.0900e-001	-230.361938	-74.390510
 310	3.1000e-001	-229.194641	-74.396983
 311	3.1100e-001	-227.905273	-74.377564
 312	3.1200e-001	-226.821899	-74.299892
 313	3.1300e-001	-225.494385	-74.468182
 314	3.1400e-001	-224.395752	-74.558799
 315	3.1500e-001	-223.373413	-74.416401
 316	3.1600e-001	-222.053528	-74.364619
 317	3.1700e-001	-220.703125	-74.299892
 318	3.1800e-001	-219.657898	-74.261056
 319	3.1900e-001	-218.383789	-74.416401
 320	3.2000e-001	-217.178345	-74.403455
 321	3.2100e-001	-215.942383	-74.170439
 322	3.2200e-001	-214.836121	-74.254584
 323	3.2300e-001	-213.577271	-74.416401
 324	3.2400e-001	-212.280273	-74.429346
 325	3.2500e-001	-211.189270	-74.325783
 326	3.2600e-001	-210.098267	-74.312838
 327	3.2700e-001	-208.755493	-74.254584
 328	3.2800e-001	-207.618713	-74.215747
 329	3.2900e-001	-206.329346	-74.228693
 330	3.3000e-001	-205.291748	-74.028040
 331	3.3100e-001	-204.040527	-74.202802
 332	3.3200e-001	-202.743530	-74.235166
 333	3.3300e-001	-201.614380	-74.319310
 334	3.3400e-001	-200.386047	-74.299892
 335	3.3500e-001	-199.180603	-74.215747
 336	3.3600e-001	-198.005676	-74.306365
 337	3.3700e-001	-196.754456	-74.189857
 338	3.3800e-001	-195.663452	-74.209275
 339	3.3900e-001	-194.427490	-74.163966
 340	3.4000e-001	-193.336487	-74.034512
 341	3.4100e-001	-192.016602	-74.176911
 342	3.4200e-001	-190.841675	-74.138075
 343	3.4300e-001	-189.674377	-74.125130
 344	3.4400e-001	-188.423157	-74.176911
 345	3.4500e-001	-187.385559	-74.125130
 346	3.4600e-001	-185.943604	-74.092767
 347	3.4700e-001	-184.768677	-74.086294
 348	3.4800e-001	-183.647156	-74.112185
 349	3.4900e-001	-182.533264	-74.073349
 350	3.5000e-001	-181.213379	-74.021567
 351	3.5100e-001	-180.061340	-73.995676
 352	3.5200e-001	-178.794861	-74.060403
 353	3.5300e-001	-177.650452	-74.086294
 354	3.5400e-001	-176.338196	-74.092767
 355	3.5500e-001	-175.079346	-74.008622
 356	3.5600e-001	-174.072266	-74.060403
 357	3.5700e-001	-172.752380	-74.008622
 358	3.5800e-001	-171.768188	-73.930950
 359	3.5900e-001	-170.486450	-73.930950
 360	3.6000e-001	-169.197083	-73.989204
 361	3.6100e-001	-168.029785	-73.963313
 362	3.6200e-001	-166.854858	-73.866223
 363	3.6300e-001	-165.496826	-73.898586
 364	3.6400e-001	-164.260864	-73.943895
 365	3.6500e-001	-163.269043	-73.898586
 366	3.6600e-001	-161.949158	-73.976258
 367	3.6700e-001	-160.911560	-73.892113
 368	3.6800e-001	-159.591675	-73.717351
 369	3.6900e-001	-158.485413	-73.892113
 370	3.7000e-001	-157.279968	-73.769133
 371	3.7100e-001	-155.998230	-73.846805
 372	3.7200e-001	-154.823303	-73.956840
 373	3.7300e-001	-153.625488	-73.956840
 374	3.7400e-001	-152.404785	-73.866223
 375	3.7500e-001	-151.214600	-73.905059
 376	3.7600e-001	-150.047302	-73.801496
 377	3.7700e-001	-148.742676	-73.833859
 378	3.7800e-001	-147.705078	-73.840332
 379	3.7900e-001	-146.423340	-73.659097
 380	3.8000e-001	-145.202637	-73.723824
 381	3.8100e-001	-144.020081	-73.678515
 382	3.8200e-001	-142.784119	-73.749715
 383	3.8300e-001	-141.586304	-73.756187
 384	3.8400e-001	-140.213013	-73.827387
 385	3.8500e-001	-139.175415	-73.846805
 386	3.8600e-001	-138.053894	-73.795023
 387	3.8700e-001	-136.749268	-73.704406
 388	3.8800e-001	-135.772705	-73.704406
 389	3.8900e-001	-134.437561	-73.607316
 390	3.9000e-001	-133.148193	-73.659097
 391	3.9100e-001	-131.935120	-73.620261
 392	3.9200e-001	-130.836487	-73.542589
 393	3.9300e-001	-129.638672	-73.497280
 394	3.9400e-001	-128.471375	-73.639679
 395	3.9500e-001	-127.090454	-73.516698
 396	3.9600e-001	-126.060486	-73.600843
 397	3.9700e-001	-124.885559	-73.458444
 398	3.9800e-001	-123.603821	-73.445499
 399	3.9900e-001	-122.406006	-73.574952
 400	4.0000e-001	-121.322632	-73.471389
 401	4.0100e-001	-120.040894	-73.503753
 402	4.0200e-001	-118.843079	-73.490807
 403	4.0300e-001	-117.736816	-73.439026
 404	4.0400e-001	-116.477966	-73.581425
 405	4.0500e-001	-115.394592	-73.568479
 406	4.0600e-001	-114.013672	-73.510225
 407	4.0700e-001	-112.930298	-73.464917
 408	4.0800e-001	-111.579895	-73.348408
 409	4.0900e-001	-110.466003	-73.354881
 410	4.1000e-001	-109.138489	-73.516698
 411	4.1100e-001	-107.864380	-73.400190
 412	4.1200e-001	-106.948853	-73.406662
 413	4.1300e-001	-105.697632	-73.484335
 414	4.1400e-001	-104.438782	-73.380772
 415	4.1500e-001	-103.263855	-73.445499
 416	4.1600e-001	-102.172852	-73.393717
 417	4.1700e-001	-100.898743	-73.484335
 418	4.1800e-001	-99.548340	-73.309572
 419	4.1900e-001	-98.548889	-73.277209
 420	4.2000e-001	-97.244263	-73.354881
 421	4.2100e-001	-96.092224	-73.374299
 422	4.2200e-001	-94.879150	-73.212482
 423	4.2300e-001	-93.536377	-73.316045
 424	4.2400e-001	-92.445374	-73.335463
 425	4.2500e-001	-91.423035	-73.193064
 426	4.2600e-001	-90.042114	-73.251318
 427	4.2700e-001	-88.851929	-73.283682
 428	4.2800e-001	-87.684631	-73.316045
 429	4.2900e-001	-86.326599	-73.147755
 430	4.3000e-001	-85.250854	-73.070083
 431	4.3100e-001	-83.984375	-73.303100
 432	4.3200e-001	-82.786560	-73.244845
 433	4.3300e-001	-81.619263	-73.173646
 434	4.3400e-001	-80.345154	-73.264264
 435	4.3500e-001	-79.231262	-73.173646
 436	4.3600e-001	-78.079224	-73.206009
 437	4.3700e-001	-76.919556	-73.277209
 438	4.3800e-001	-75.744629	-73.011829
 439	4.3900e-001	-74.447632	-73.212482
 440	4.4000e-001	-73.219299	-73.044192
 441	4.4100e-001	-72.036743	-73.011829
 442	4.4200e-001	-70.831299	-73.102447
 443	4.4300e-001	-69.580078	-73.089501
 444	4.4400e-001	-68.450928	-73.076556
 445	4.4500e-001	-67.207336	-73.089501
 446	4.4600e-001	-66.131592	-73.063610
 447	4.4700e-001	-64.842224	-72.972993
 448	4.4800e-001	-63.697815	-73.024774
 449	4.4900e-001	-62.538147	-72.934157
 450	4.5000e-001	-61.286926	-73.018302
 451	4.5100e-001	-60.050964	-73.005356
 452	4.5200e-001	-58.654785	-72.875903
 453	4.5300e-001	-57.594299	-72.856485
 454	4.5400e-001	-56.358337	-72.901793
 455	4.5500e-001	-55.183411	-72.908266
 456	4.5600e-001	-54.016113	-72.934157
 457	4.5700e-001	-52.841187	-72.940630
 458	4.5800e-001	-51.521301	-72.817649
 459	4.5900e-001	-50.498962	-72.862957
 460	4.6000e-001	-49.301147	-72.901793
 461	4.6100e-001	-48.126221	-72.817649
 462	4.6200e-001	-46.714783	-72.888848
 463	4.6300e-001	-45.684814	-72.824121
 464	4.6400e-001	-44.258118	-72.850012
 465	4.6500e-001	-43.296814	-72.804703
 466	4.6600e-001	-42.129517	-72.850012
 467	4.6700e-001	-40.893555	-72.733504
 468	4.6800e-001	-39.619446	-72.772340
 469	4.6900e-001	-38.352966	-72.798231
 470	4.7000e-001	-37.170410	-72.694668
 471	4.7100e-001	-35.858154	-72.714086
 472	4.7200e-001	-34.889221	-72.772340
 473	4.7300e-001	-33.859253	-72.597577
 474	4.7400e-001	-32.417297	-72.804703
 475	4.7500e-001	-31.166077	-72.655832
 476	4.7600e-001	-30.021667	-72.629941
 477	4.7700e-001	-28.854370	-72.655832
 478	4.7800e-001	-27.786255	-72.558741
 479	4.7900e-001	-26.382446	-72.662304
 480	4.8000e-001	-25.093079	-72.642886
 481	4.8100e-001	-23.948669	-72.578159
 482	4.8200e-001	-22.766113	-72.468124
 483	4.8300e-001	-21.652222	-72.532851
 484	4.8400e-001	-20.545959	-72.584632
 485	4.8500e-001	-19.340515	-72.636414
 486	4.8600e-001	-18.074036	-72.584632
 487	4.8700e-001	-16.792297	-72.539323
 488	4.8800e-001	-15.701294	-72.500487
 489	4.8900e-001	-14.411926	-72.662304
 490	4.9000e-001	-13.114929	-72.481069
 491	4.9100e-001	-12.008667	-72.429288
 492	4.9200e-001	-10.726929	-72.494015
 493	4.9300e-001	-9.658813	-72.403397
 494	4.9400e-001	-8.506775	-72.429288
 495	4.9500e-001	-7.164001	-72.396924
 496	4.9600e-001	-6.011963	-72.319252
 497	4.9700e-001	-4.898071	-72.371034
 498	4.9800e-001	-3.616333	-72.273944
 499	4.9900e-001	-2.532959	-72.358088
 500	5.0000e-001	-1.144409	-72.273944
 501	5.0100e-001	-0.015259	-72.293362
 502	5.0200e-001	1.258850	-72.293362
 503	5.0300e-001	2.220154	-72.293362
 504	5.0400e-001	3.593445	-72.319252
 505	5.0500e-001	4.463196	-72.306307
 506	5.0600e-001	5.867004	-72.092708
 507	5.0700e-001	7.080078	-72.189799
 508	5.0800e-001	8.247375	-72.150963
 509	5.0900e-001	9.552002	-72.215689
 510	5.1000e-001	10.734558	-72.235107
 511	5.1100e-001	11.894226	-72.202744
 512	5.1200e-001	13.175964	-72.099181
 513	5.1300e-001	14.366150	-72.099181
 514	5.1400e-001	15.403748	-72.092708
 515	5.1500e-001	16.700745	-72.099181
 516	5.1600e-001	17.967224	-72.021509
 517	5.1700e-001	19.111633	-71.989146
 518	5.1800e-001	20.156860	-72.015036
 519	5.1900e-001	21.545410	-71.917946
 520	5.2000e-001	22.605896	-71.937364
 521	5.2100e-001	23.849487	-71.956782
 522	5.2200e-001	25.039673	-71.995618
 523	5.2300e-001	26.268005	-71.943837
 524	5.2400e-001	27.320862	-71.833801
 525	5.2500e-001	28.579712	-71.905001
 526	5.2600e-001	29.663086	-71.892055
 527	5.2700e-001	30.807495	-71.646094
 528	5.2800e-001	32.249451	-71.671984
 529	5.2900e-001	33.340454	-71.691402
 530	5.3000e-001	34.721375	-71.697875
 531	5.3100e-001	36.026001	-71.587839
 532	5.3200e-001	36.949158	-71.633148
 533	5.3300e-001	38.330078	-71.568421
 534	5.3400e-001	39.459229	-71.516640
 535	5.3500e-001	40.687561	-71.432495
 536	5.3600e-001	41.648865	-71.367768
 537	5.3700e-001	43.037415	-71.367768
 538	5.3800e-001	44.349670	-71.212424
 539	5.3900e-001	45.433044	-71.199479
 540	5.4000e-001	46.554565	-71.231842
 541	5.4100e-001	47.729492	-71.089443
 542	5.4200e-001	49.095154	-71.031189
 543	5.4300e-001	50.178528	-70.934099
 544	5.4400e-001	51.666260	-70.778754
 545	5.4500e-001	52.696228	-70.701082
 546	5.4600e-001	53.878784	-70.442175
 547	5.4700e-001	55.114746	-70.358030
 548	5.4800e-001	56.297302	-70.118541
 549	5.4900e-001	57.502747	-69.911415
 550	5.5000e-001	58.624268	-69.807852
 551	5.5100e-001	59.814453	-69.548945
 552	5.5200e-001	61.096191	-69.251202
 553	5.5300e-001	62.187195	-69.018186
 554	5.5400e-001	63.262939	-68.804587
 555	5.5500e-001	64.720154	-68.286773
 556	5.5600e-001	65.925598	-68.228519
 557	5.5700e-001	66.978455	-67.613614
 558	5.5800e-001	68.267822	-67.179944
 559	5.5900e-001	69.374084	-66.869256
 560	5.6000e-001	70.602417	-66.325551
 561	5.6100e-001	71.807861	-65.794791
 562	5.6200e-001	73.013306	-65.374067
 563	5.6300e-001	74.089050	-64.668545
 564	5.6400e-001	75.515747	-64.111894
 565	5.6500e-001	76.667786	-63.438735
 566	5.6600e-001	77.812195	-62.513142
 567	5.6700e-001	79.055786	-61.859402
 568	5.6800e-001	80.314636	-61.050317
 569	5.6900e-001	81.481934	-60.150614
 570	5.7000e-001	82.588196	-59.335056
 571	5.7100e-001	83.732605	-58.390045
 572	5.7200e-001	85.006714	-57.309108
 573	5.7300e-001	86.006165	-56.318788
 574	5.7400e-001	87.364197	-55.043670
 575	5.7500e-001	88.493347	-53.930369
 576	5.7600e-001	89.805603	-52.726450
 577	5.7700e-001	90.812683	-51.373660
 578	5.7800e-001	92.185974	-50.066179
 579	5.7900e-001	93.185425	-48.674553
 580	5.8000e-001	94.535828	-47.237618
 581	5.8100e-001	95.611572	-45.755374
 582	5.8200e-001	96.916199	-44.214876
 583	5.8300e-001	97.984314	-42.389581
 584	5.8400e-001	99.288940	-40.790829
 585	5.8500e-001	100.334167	-39.056150
 586	5.8600e-001	101.638794	-37.263218
 587	5.8700e-001	102.790833	-35.321414
 588	5.8800e-001	104.042053	-33.560845
 589	5.8900e-001	105.201721	-31.470170
 590	5.9000e-001	106.414795	-29.554256
 591	5.9100e-001	107.490540	-27.612452
 592	5.9200e-001	108.825684	-25.489413
 593	5.9300e-001	110.061646	-23.359902
 594	5.9400e-001	111.259460	-21.236863
 595	5.9500e-001	112.350464	-19.016733
 596	5.9600e-001	113.716125	-16.906640
 597	5.9700e-001	114.692688	-14.673565
 598	5.9800e-001	116.081238	-12.311037
 599	5.9900e-001	117.187500	-10.110326
 600	6.0000e-001	118.377686	-7.941978
 601	6.0100e-001	119.338989	-5.605341
 602	6.0200e-001	120.750427	-3.281649
 603	6.0300e-001	122.077942	-1.352790
 604	6.0400e-001	123.062134	1.255700
 605	6.0500e-001	124.351501	3.631173
 606	6.0600e-001	125.610352	5.980756
 607	6.0700e-001	126.762390	8.181467
 608	6.0800e-001	127.960205	10.492214
 609	6.0900e-001	129.142761	12.770597
 610	6.1000e-001	130.371094	15.113708
 611	6.1100e-001	131.561279	17.346782
 612	6.1200e-001	132.804871	19.664001
 613	6.1300e-001	134.063721	21.819404
 614	6.1400e-001	135.208130	24.220768
 615	6.1500e-001	136.375427	26.330862
 616	6.1600e-001	137.573242	28.512155
 617	6.1700e-001	138.694763	30.848792
 618	6.1800e-001	139.976501	32.958886
 619	6.1900e-001	141.082764	35.211379
 620	6.2000e-001	142.417908	37.431508
 621	6.2100e-001	143.470764	39.392730
 622	6.2200e-001	144.683838	41.619332
 623	6.2300e-001	145.942688	43.651753
 624	6.2400e-001	147.148132	45.632393
 625	6.2500e-001	148.384094	47.768377
 626	6.2600e-001	149.665833	49.755490
 627	6.2700e-001	150.840759	51.690821
 628	6.2800e-001	152.099609	53.412554
 629	6.2900e-001	153.266907	54.985416
 630	6.3000e-001	154.510498	56.241115
 631	6.3100e-001	155.586243	57.347944
 632	6.3200e-001	157.081604	58.046993
 633	6.3300e-001	158.309937	58.707206
 634	6.3400e-001	159.454346	59.367420
 635	6.3500e-001	160.507202	59.891707
 636	6.3600e-001	161.804199	60.351267
 637	6.3700e-001	163.078308	60.830245
 638	6.3800e-001	164.260864	61.412787
 639	6.3900e-001	165.557861	61.794675
 640	6.4000e-001	166.534424	62.150672
 641	6.4100e-001	167.785645	62.577869
 642	6.4200e-001	168.922424	62.953284
 643	6.4300e-001	170.257568	63.367536
 644	6.4400e-001	171.493530	63.943605
 645	6.4500e-001	172.706604	64.183094
 646	6.4600e-001	173.881531	64.649127
 647	6.4700e-001	175.102234	65.050433
 648	6.4800e-001	176.208496	65.490575
 649	6.4900e-001	177.505493	65.937190
 650	6.5000e-001	178.695679	66.066643
 651	6.5100e-001	179.840088	66.519731
 652	6.5200e-001	181.083679	66.707439
 653	6.5300e-001	182.273865	67.121690
 654	6.5400e-001	183.494568	67.464742
 655	6.5500e-001	184.616089	67.781904
 656	6.5600e-001	185.806274	68.027866
 657	6.5700e-001	187.042236	68.118483
 658	6.5800e-001	188.323975	68.338554
 659	6.5900e-001	189.552307	68.338554
 660	6.6000e-001	190.673828	68.351499
 661	6.6100e-001	191.917419	68.260882
 662	6.6200e-001	193.130493	68.325609
 663	6.6300e-001	194.290161	68.396808
 664	6.6400e-001	195.426941	68.306191
 665	6.6500e-001	196.678162	68.603934
 666	6.6600e-001	197.959900	68.474480
 667	6.6700e-001	199.081421	68.493898
 668	6.6800e-001	200.340271	68.668661
 669	6.6900e-001	201.484680	68.539207
 670	6.7000e-001	202.796936	68.532735
 671	6.7100e-001	203.948975	68.552153
 672	6.7200e-001	205.230713	68.565098
 673	6.7300e-001	206.283569	68.610407
 674	6.7400e-001	207.611084	68.597461
 675	6.7500e-001	208.663940	68.616879
 676	6.7600e-001	209.846497	68.662188
 677	6.7700e-001	211.097717	68.733388
 678	6.7800e-001	212.287903	68.713970
 679	6.7900e-001	213.356018	68.739860
 680	6.8000e-001	214.775085	68.836950
 681	6.8100e-001	215.873718	68.804587
 682	6.8200e-001	217.216492	68.798114
 683	6.8300e-001	218.345642	68.688079
 684	6.8400e-001	219.482422	68.746333
 685	6.8500e-001	220.664978	68.901677
 686	6.8600e-001	221.923828	68.862841
 687	6.8700e-001	223.052979	69.057022
 688	6.8800e-001	224.235535	68.972877
 689	6.8900e-001	225.418091	69.037604
 690	6.9000e-001	226.684570	69.024658
 691	6.9100e-001	228.050232	68.895205
 692	6.9200e-001	229.179382	68.966404
 693	6.9300e-001	230.308533	69.063494
 694	6.9400e-001	231.567383	68.992295
 695	6.9500e-001	232.719421	69.134694
 696	6.9600e-001	233.787537	69.167057
 697	6.9700e-001	235.145569	69.005240
 698	6.9800e-001	236.412048	69.141166
 699	6.9900e-001	237.380981	69.251202
 700	7.0000e-001	238.800049	69.154112
 701	7.0100e-001	239.776611	69.160584
 702	7.0200e-001	240.959167	69.147639
 703	7.0300e-001	242.485046	69.199421
 704	7.0400e-001	243.400574	69.251202
 705	7.0500e-001	244.705200	69.283565
 706	7.0600e-001	245.735168	69.393601
 707	7.0700e-001	247.077942	69.464800
 708	7.0800e-001	248.260498	69.413019
 709	7.0900e-001	249.649048	69.361238
 710	7.1000e-001	250.724792	69.490691
 711	7.1100e-001	251.884460	69.387128
 712	7.1200e-001	253.219604	69.477746
 713	7.1300e-001	254.272461	69.542473
 714	7.1400e-001	255.424500	69.581309
 715	7.1500e-001	256.698608	69.548945
 716	7.1600e-001	258.049011	69.658981
 717	7.1700e-001	258.964539	69.620145
 718	7.1800e-001	260.330200	69.717235
 719	7.1900e-001	261.360168	69.736653
 720	7.2000e-001	262.619019	69.697817
 721	7.2100e-001	263.923645	69.840216
 722	7.2200e-001	265.037537	69.781962
 723	7.2300e-001	266.181946	69.840216
 724	7.2400e-001	267.601013	69.956724
 725	7.2500e-001	268.692017	69.769016
 726	7.2600e-001	269.950867	69.937306
 727	7.2700e-001	271.163940	70.047342
 728	7.2800e-001	272.338867	70.105596
 729	7.2900e-001	273.277283	70.092650
 730	7.3000e-001	274.711609	70.027924
 731	7.3100e-001	275.787354	70.066760
 732	7.3200e-001	277.099609	70.202686
 733	7.3300e-001	278.358459	70.228577
 734	7.3400e-001	279.411316	70.293303
 735	7.3500e-001	280.509949	70.332140
 736	7.3600e-001	281.890869	70.442175
 737	7.3700e-001	283.035278	70.539265
 738	7.3800e-001	284.187317	70.396866
 739	7.3900e-001	285.491943	70.396866
 740	7.4000e-001	286.613464	70.552211
 741	7.4100e-001	287.818909	70.603992
 742	7.4200e-001	289.115906	70.578101
 743	7.4300e-001	290.275574	70.662246
 744	7.4400e-001	291.419983	70.733446
 745	7.4500e-001	292.770386	70.791700
 746	7.4600e-001	293.891907	70.882317
 747	7.4700e-001	294.975281	70.992353
 748	7.4800e-001	296.295166	70.921153
 749	7.4900e-001	297.416687	70.985880
 750	7.5000e-001	298.820496	71.160643
 751	7.5100e-001	299.781799	71.244787
 752	7.5200e-001	298.973083	71.218897
 753	7.5300e-001	297.836304	71.218897
 754	7.5400e-001	296.493530	71.186533
 755	7.5500e-001	295.295715	71.328932
 756	7.5600e-001	294.090271	71.413077
 757	7.5700e-001	292.900085	71.290096
 758	7.5800e-001	291.816711	71.626676
 759	7.5900e-001	290.649414	71.549003
 760	7.6000e-001	289.260864	71.341878
 761	7.6100e-001	288.230896	71.542531
 762	7.6200e-001	287.025452	71.516640
 763	7.6300e-001	285.743713	71.555476
 764	7.6400e-001	284.637451	71.723766
 765	7.6500e-001	283.531189	71.697875
 766	7.6600e-001	282.272339	71.924419
 767	7.6700e-001	280.929565	71.814383
 768	7.6800e-001	279.609680	71.749656
 769	7.6900e-001	278.488159	71.730238
 770	7.7000e-001	277.420044	71.749656
 771	7.7100e-001	276.039124	71.820856
 772	7.7200e-001	274.955750	71.859692
 773	7.7300e-001	273.674011	71.846747
 774	7.7400e-001	272.636414	72.053872
 775	7.7500e-001	271.301270	72.086236
 776	7.7600e-001	270.210266	72.040927
 777	7.7700e-001	269.027710	72.079763
 778	7.7800e-001	267.631531	72.015036
 779	7.7900e-001	266.578674	72.060345
 780	7.8000e-001	265.258789	72.144490
 781	7.8100e-001	264.305115	72.092708
 782	7.8200e-001	262.886047	72.015036
 783	7.8300e-001	261.833191	72.021509
 784	7.8400e-001	260.581970	72.125072
 785	7.8500e-001	259.368896	72.254525
 786	7.8600e-001	258.262634	72.163908
 787	7.8700e-001	256.874084	72.112127
 788	7.8800e-001	255.676270	72.267471
 789	7.8900e-001	254.745483	72.222162
 790	7.9000e-001	253.288269	72.338670
 791	7.9100e-001	252.143860	72.163908
 792	7.9200e-001	251.174927	72.209217
 793	7.9300e-001	249.824524	71.989146
 794	7.9400e-001	248.619080	72.222162
 795	7.9500e-001	247.413635	72.299834
 796	7.9600e-001	245.964050	72.112127
 797	7.9700e-001	244.979858	72.215689
 798	7.9800e-001	243.904114	72.170381
 799	7.9900e-001	242.553711	72.332198
 800	8.0000e-001	241.516113	72.157435
 801	8.0100e-001	240.203857	72.312780
 802	8.0200e-001	238.883972	72.345143
 803	8.0300e-001	237.754822	72.222162
 804	8.0400e-001	236.564636	72.312780
 805	8.0500e-001	235.610962	71.963255
 806	8.0600e-001	234.161377	72.358088
 807	8.0700e-001	233.116150	72.358088
 808	8.0800e-001	231.719971	72.150963
 809	8.0900e-001	230.590820	72.338670
 810	8.1000e-001	229.591370	72.306307
 811	8.1100e-001	228.263855	72.118599
 812	8.1200e-001	226.997375	72.332198
 813	8.1300e-001	225.883484	72.286889
 814	8.1400e-001	224.525452	72.286889
 815	8.1500e-001	223.442078	72.260998
 816	8.1600e-001	222.274780	72.325725
 817	8.1700e-001	220.779419	72.254525
 818	8.1800e-001	219.665527	72.293362
 819	8.1900e-001	218.574524	72.163908
 820	8.2000e-001	217.163086	72.280416
 821	8.2100e-001	216.178894	72.280416
 822	8.2200e-001	215.019226	72.241580
 823	8.2300e-001	213.569641	72.131545
 824	8.2400e-001	212.547302	72.299834
 825	8.2500e-001	211.433411	72.235107
 826	8.2600e-001	210.006714	72.254525
 827	8.2700e-001	209.022522	72.280416
 828	8.2800e-001	207.839966	72.273944
 829	8.2900e-001	206.375122	72.254525
 830	8.3000e-001	205.406189	72.163908
 831	8.3100e-001	204.200745	72.248053
 832	8.3200e-001	202.751160	72.176853
 833	8.3300e-001	201.835632	72.189799
 834	8.3400e-001	200.553894	72.163908
 835	8.3500e-001	199.356079	72.144490
 836	8.3600e-001	198.143005	72.163908
 837	8.3700e-001	196.998596	72.209217
 838	8.3800e-001	195.564270	72.157435
 839	8.3900e-001	194.587708	72.099181
 840	8.4000e-001	193.504333	72.157435
 841	8.4100e-001	191.947937	72.060345
 842	8.4200e-001	191.047668	72.125072
 843	8.4300e-001	189.781189	72.248053
 844	8.4400e-001	188.362122	72.131545
 845	8.4500e-001	187.400818	72.131545
 846	8.4600e-001	186.195374	72.131545
 847	8.4700e-001	184.837341	72.157435
 848	8.4800e-001	183.799744	72.099181
 849	8.4900e-001	182.617188	72.073290
 850	8.5000e-001	181.312561	71.982673
 851	8.5100e-001	180.335999	71.943837
 852	8.5200e-001	179.008484	71.943837
 853	8.5300e-001	177.764893	72.092708
 854	8.5400e-001	176.696777	71.950310
 855	8.5500e-001	175.399780	72.060345
 856	8.5600e-001	174.179077	72.066818
 857	8.5700e-001	172.866821	71.969728
 858	8.5800e-001	171.661377	72.060345
 859	8.5900e-001	170.463562	71.898528
 860	8.6000e-001	169.357300	71.924419
 861	8.6100e-001	168.151855	72.047400
 862	8.6200e-001	166.969299	71.956782
 863	8.6300e-001	165.679932	71.885583
 864	8.6400e-001	164.627075	71.833801
 865	8.6500e-001	163.269043	71.937364
 866	8.6600e-001	162.055969	71.956782
 867	8.6700e-001	161.163330	71.924419
 868	8.6800e-001	159.721375	71.853219
 869	8.6900e-001	158.538818	72.002091
 870	8.7000e-001	157.287598	71.827329
 871	8.7100e-001	156.105042	71.840274
 872	8.7200e-001	154.953003	71.794965
 873	8.7300e-001	153.732300	71.801438
 874	8.7400e-001	152.580261	71.917946
 875	8.7500e-001	151.466370	71.794965
 876	8.7600e-001	150.260925	71.833801
 877	8.7700e-001	148.994446	71.866165
 878	8.7800e-001	147.911072	71.788493
 879	8.7900e-001	146.537781	71.756129
 880	8.8000e-001	145.385742	71.782020
 881	8.8100e-001	144.203186	71.814383
 882	8.8200e-001	143.028259	71.717293
 883	8.8300e-001	141.685486	71.743184
 884	8.8400e-001	140.594482	71.749656
 885	8.8500e-001	139.328003	71.710820
 886	8.8600e-001	138.473511	71.717293
 887	8.8700e-001	137.077332	71.665512
 888	8.8800e-001	135.696411	71.684930
 889	8.8900e-001	134.841919	71.723766
 890	8.9000e-001	133.316040	71.639621
 891	8.9100e-001	132.171631	71.613730
 892	8.9200e-001	131.057739	71.626676
 893	8.9300e-001	129.737854	71.574894
 894	8.9400e-001	128.707886	71.665512
 895	8.9500e-001	127.403259	71.633148
 896	8.9600e-001	126.037598	71.607257
 897	8.9700e-001	124.931335	71.568421
 898	8.9800e-001	123.939514	71.620203
 899	8.9900e-001	122.596741	71.587839
 900	9.0000e-001	121.238708	71.406604
 901	9.0100e-001	120.277405	71.561949
 902	9.0200e-001	119.018555	71.503695
 903	9.0300e-001	117.752075	71.529585
 904	9.0400e-001	116.722107	71.523113
 905	9.0500e-001	115.371704	71.529585
 906	9.0600e-001	114.082336	71.432495
 907	9.0700e-001	113.166809	71.471331
 908	9.0800e-001	111.724854	71.458386
 909	9.0900e-001	110.565186	71.413077
 910	9.1000e-001	109.474182	71.445440
 911	9.1100e-001	108.123779	71.315987
 912	9.1200e-001	106.903076	71.290096
 913	9.1300e-001	105.880737	71.464859
 914	9.1400e-001	104.621887	71.354823
 915	9.1500e-001	103.179932	71.264205
 916	9.1600e-001	102.462769	71.406604
 917	9.1700e-001	100.898743	71.218897
 918	9.1800e-001	99.655151	71.290096
 919	9.1900e-001	98.869324	71.691402
 920	9.2000e-001	97.480774	71.322460
 921	9.2100e-001	96.000671	71.257733
 922	9.2200e-001	95.184326	71.354823
 923	9.2300e-001	93.704224	71.212424
 924	9.2400e-001	92.437744	71.205951
 925	9.2500e-001	91.560364	71.309514
 926	9.2600e-001	90.217590	71.121806
 927	9.2700e-001	88.935852	71.199479
 928	9.2800e-001	87.821960	71.374241
 929	9.2900e-001	86.410522	71.244787
 930	9.3000e-001	85.258484	71.167115
 931	9.3100e-001	84.266663	71.238315
 932	9.3200e-001	82.931519	71.082970
 933	9.3300e-001	81.657410	71.108861
 934	9.3400e-001	80.772400	71.018244
 935	9.3500e-001	79.460144	71.141225
 936	9.3600e-001	78.178406	71.160643
 937	9.3700e-001	77.133179	71.147697
 938	9.3800e-001	75.874329	71.070025
 939	9.3900e-001	74.432373	70.966462
 940	9.4000e-001	73.394775	71.089443
 941	9.4100e-001	72.135925	70.966462
 942	9.4200e-001	70.938110	70.953517
 943	9.4300e-001	69.808960	71.089443
 944	9.4400e-001	68.572998	70.882317
 945	9.4500e-001	67.375183	70.947044
 946	9.4600e-001	66.238403	71.011771
 947	9.4700e-001	64.933777	70.849954
 948	9.4800e-001	63.743591	70.966462
 949	9.4900e-001	62.583923	71.063552
 950	9.5000e-001	61.286926	70.785227
 951	9.5100e-001	60.211182	70.959989
 952	9.5200e-001	59.120178	70.934099
 953	9.5300e-001	57.685852	70.927626
 954	9.5400e-001	56.526184	70.901735
 955	9.5500e-001	55.465698	70.947044
 956	9.5600e-001	54.130554	70.869372
 957	9.5700e-001	52.963257	70.804645
 958	9.5800e-001	51.750183	70.765809
 959	9.5900e-001	50.483704	70.888790
 960	9.6000e-001	49.430847	70.739918
 961	9.6100e-001	48.141479	70.752864
 962	9.6200e-001	46.875000	70.759336
 963	9.6300e-001	45.860291	70.772282
 964	9.6400e-001	44.502258	70.856427
 965	9.6500e-001	43.518066	70.849954
 966	9.6600e-001	42.221069	70.623410
 967	9.6700e-001	40.916443	70.791700
 968	9.6800e-001	39.779663	70.668719
 969	9.6900e-001	38.589478	70.688137
 970	9.7000e-001	37.284851	70.817591
 971	9.7100e-001	36.239624	70.623410
 972	9.7200e-001	35.064697	70.539265
 973	9.7300e-001	33.561707	70.688137
 974	9.7400e-001	32.608032	70.532793
 975	9.7500e-001	31.356812	70.578101
 976	9.7600e-001	30.029297	70.584574
 977	9.7700e-001	29.006958	70.526320
 978	9.7800e-001	27.870178	70.675192
 979	9.7900e-001	26.451111	70.694610
 980	9.8000e-001	25.398254	70.539265
 981	9.8100e-001	24.269104	70.539265
 982	9.8200e-001	22.819519	70.506902
 983	9.8300e-001	21.827698	70.487484
 984	9.8400e-001	20.561218	70.468066
 985	9.8500e-001	18.920898	70.461593
 986	9.8600e-001	18.157959	70.429230
 987	9.8700e-001	17.143250	70.358030
 988	9.8800e-001	15.533447	70.429230
 989	9.8900e-001	14.572144	70.429230
 990	9.9000e-001	13.381958	70.448648
 991	9.9100e-001	12.062073	70.370976
 992	9.9200e-001	10.986328	70.416284
 993	9.9300e-001	9.712219	70.170323
 994	9.9400e-001	8.308411	70.396866
 995	9.9500e-001	7.385254	70.228577
 996	9.9600e-001	6.294250	70.241522
 997	9.9700e-001	4.714966	70.338612
 998	9.9800e-001	3.860474	70.092650
 999	9.9900e-001	2.601624	70.105596
1000	1.0000e+000	1.235962	70.176795
1001	1.0010e+000	0.228882	69.982615
1002	1.0020e+000	-0.831604	69.950251
1003	1.0030e+000	-2.456665	69.885525
1004	1.0040e+000	-3.334045	69.820798
1005	1.0050e+000	-4.539490	69.620145
1006	1.0060e+000	-5.897522	69.510109
1007	1.0070e+000	-6.980896	69.458328
1008	1.0080e+000	-8.155823	69.277093
1009	1.0090e+000	-9.674072	69.160584
1010	1.0100e+000	-10.505676	68.869314
1011	1.0110e+000	-11.627197	68.817532
1012	1.0120e+000	-13.221741	68.273827
1013	1.0130e+000	-14.198303	68.124956
1014	1.0140e+000	-15.235901	67.749540
1015	1.0150e+000	-16.654968	67.322343
1016	1.0160e+000	-17.654419	66.998709
1017	1.0170e+000	-18.806458	66.493840
1018	1.0180e+000	-20.179749	66.079589
1019	1.0190e+000	-21.141052	65.438794
1020	1.0200e+000	-22.460938	64.849780
1021	1.0210e+000	-23.857117	64.293129
1022	1.0220e+000	-24.803162	63.587607
1023	1.0230e+000	-26.107788	62.953284
1024	1.0240e+000	-27.297974	62.247762
1025	1.0250e+000	-28.434753	61.496932
1026	1.0260e+000	-29.747009	60.953226
1027	1.0270e+000	-31.066895	60.377158
1028	1.0280e+000	-32.096863	59.587491
1029	1.0290e+000	-33.256531	58.985532
1030	1.0300e+000	-34.698486	58.396518
1031	1.0310e+000	-35.667419	57.742777
1032	1.0320e+000	-36.949158	57.237908
1033	1.0330e+000	-38.017273	56.791293
1034	1.0340e+000	-39.352417	56.364096
1035	1.0350e+000	-40.512085	56.118135
1036	1.0360e+000	-41.786194	55.742719
1037	1.0370e+000	-42.823792	55.677992
1038	1.0380e+000	-44.197083	55.309050
1039	1.0390e+000	-45.471191	55.192541
1040	1.0400e+000	-46.501160	55.121342
1041	1.0410e+000	-47.668457	54.843017
1042	1.0420e+000	-48.988342	54.681200
1043	1.0430e+000	-50.132751	54.687672
1044	1.0440e+000	-51.254272	54.435238
1045	1.0450e+000	-52.520752	54.150440
1046	1.0460e+000	-53.771973	54.046877
1047	1.0470e+000	-54.847717	53.923896
1048	1.0480e+000	-56.060791	53.639098
1049	1.0490e+000	-57.380676	53.483754
1050	1.0500e+000	-58.547974	53.211901
1051	1.0510e+000	-59.692383	52.972412
1052	1.0520e+000	-60.859680	52.655251
1053	1.0530e+000	-62.202454	52.409289
1054	1.0540e+000	-63.209534	52.111546
1055	1.0550e+000	-64.567566	51.859111
1056	1.0560e+000	-65.704346	51.535477
1057	1.0570e+000	-66.841125	51.205371
1058	1.0580e+000	-68.161011	50.881737
1059	1.0590e+000	-69.229126	50.454540
1060	1.0600e+000	-70.411682	49.988507
1061	1.0610e+000	-71.716309	49.541892
1062	1.0620e+000	-72.914124	49.127640
1063	1.0630e+000	-74.035645	48.460954
1064	1.0640e+000	-75.256348	47.975503
1065	1.0650e+000	-76.393127	47.321763
1066	1.0660e+000	-77.476501	46.642131
1067	1.0670e+000	-78.788757	45.904246
1068	1.0680e+000	-80.062866	45.256978
1069	1.0690e+000	-81.001282	44.299021
1070	1.0700e+000	-82.595825	43.418737
1071	1.0710e+000	-83.770752	42.486671
1072	1.0720e+000	-84.533691	41.638750
1073	1.0730e+000	-86.029053	40.279487
1074	1.0740e+000	-87.097168	39.334476
1075	1.0750e+000	-88.256836	38.169393
1076	1.0760e+000	-89.576721	37.043147
1077	1.0770e+000	-90.751648	35.632103
1078	1.0780e+000	-91.766357	34.415239
1079	1.0790e+000	-93.208313	32.913577
1080	1.0800e+000	-94.383240	31.612569
1081	1.0810e+000	-95.352173	30.078543
1082	1.0820e+000	-96.641541	28.428010
1083	1.0830e+000	-97.755432	26.563878
1084	1.0840e+000	-99.006653	25.178725
1085	1.0850e+000	-100.273132	23.398738
1086	1.0860e+000	-101.631165	21.631696
1087	1.0870e+000	-102.531433	19.812873
1088	1.0880e+000	-103.729248	18.065250
1089	1.0890e+000	-105.262756	16.039301
1090	1.0900e+000	-106.216431	14.155751
1091	1.0910e+000	-107.597351	12.136275
1092	1.0920e+000	-108.680725	9.974400
1093	1.0930e+000	-109.619141	8.013178
1094	1.0940e+000	-111.022949	5.974284
1095	1.0950e+000	-112.266541	4.051898
1096	1.0960e+000	-113.319397	1.786460
1097	1.0970e+000	-114.707947	-0.304216
1098	1.0980e+000	-115.852356	-2.226602
1099	1.0990e+000	-116.844177	-4.576185
1100	1.1000e+000	-118.286133	-6.763950
1101	1.1010e+000	-119.552612	-8.822263
1102	1.1020e+000	-120.498657	-11.145955
1103	1.1030e+000	-121.833801	-13.294884
1104	1.1040e+000	-122.833252	-15.379087
1105	1.1050e+000	-124.031067	-17.689834
1106	1.1060e+000	-125.366211	-19.832291
1107	1.1070e+000	-126.693726	-21.910021
1108	1.1080e+000	-127.716064	-24.136623
1109	1.1090e+000	-129.119873	-26.395589
1110	1.1100e+000	-130.241394	-28.641608
1111	1.1110e+000	-131.324768	-30.887628
1112	1.1120e+000	-132.591248	-33.023613
1113	1.1130e+000	-133.979797	-35.263160
1114	1.1140e+000	-134.925842	-37.347363
1115	1.1150e+000	-136.138916	-39.554547
1116	1.1160e+000	-137.344360	-41.677586
1117	1.1170e+000	-138.542175	-43.774734
1118	1.1180e+000	-139.984131	-45.917191
1119	1.1190e+000	-141.174316	-48.040230
1120	1.1200e+000	-142.089844	-50.027343
1121	1.1210e+000	-143.524170	-52.118018
1122	1.1220e+000	-144.592285	-54.163385
1123	1.1230e+000	-145.736694	-56.195807
1124	1.1240e+000	-147.056580	-58.157029
1125	1.1250e+000	-148.391724	-60.182977
1126	1.1260e+000	-149.391174	-61.962964
1127	1.1270e+000	-150.810242	-63.749424
1128	1.1280e+000	-151.977539	-65.581193
1129	1.1290e+000	-153.190613	-66.946928
1130	1.1300e+000	-154.411316	-68.299718
1131	1.1310e+000	-155.662537	-69.302983
1132	1.1320e+000	-156.875610	-69.730180
1133	1.1330e+000	-158.149719	-69.982615
1134	1.1340e+000	-159.660339	-69.846689
1135	1.1350e+000	-160.766602	-69.950251
1136	1.1360e+000	-161.750793	-69.963197
1137	1.1370e+000	-163.108826	-69.969669
1138	1.1380e+000	-164.176941	-70.086178
1139	1.1390e+000	-165.405273	-70.034396
1140	1.1400e+000	-166.564941	-70.092650
1141	1.1410e+000	-167.671204	-70.150905
1142	1.1420e+000	-168.838501	-70.202686
1143	1.1430e+000	-170.364380	-70.131486
1144	1.1440e+000	-171.173096	-70.332140
1145	1.1450e+000	-172.431946	-70.215631
1146	1.1460e+000	-173.797607	-70.280358
1147	1.1470e+000	-175.132751	-70.183268
1148	1.1480e+000	-176.284790	-70.222104
1149	1.1490e+000	-177.444458	-70.215631
1150	1.1500e+000	-178.649902	-70.267413
1151	1.1510e+000	-179.824829	-70.312721
1152	1.1520e+000	-180.984497	-70.565156
1153	1.1530e+000	-182.228088	-70.299776
1154	1.1540e+000	-183.319092	-70.319194
1155	1.1550e+000	-184.585571	-70.409812
1156	1.1560e+000	-185.867310	-70.325667
1157	1.1570e+000	-186.874390	-70.481011
1158	1.1580e+000	-188.209534	-70.345085
1159	1.1590e+000	-189.430237	-70.481011
1160	1.1600e+000	-190.597534	-70.571629
1161	1.1610e+000	-191.802979	-70.539265
1162	1.1620e+000	-193.099976	-70.532793
1163	1.1630e+000	-194.152832	-70.545738
1164	1.1640e+000	-195.365906	-70.636355
1165	1.1650e+000	-196.624756	-70.455120
1166	1.1660e+000	-197.731018	-70.539265
1167	1.1670e+000	-198.966980	-70.623410
1168	1.1680e+000	-200.286865	-70.597519
1169	1.1690e+000	-201.431274	-70.662246
1170	1.1700e+000	-202.636719	-70.649301
1171	1.1710e+000	-203.842163	-70.681664
1172	1.1720e+000	-204.948425	-70.642828
1173	1.1730e+000	-206.161499	-70.681664
1174	1.1740e+000	-207.305908	-70.616937
1175	1.1750e+000	-208.435059	-70.811118
1176	1.1760e+000	-209.426880	-70.759336
1177	1.1770e+000	-211.120605	-70.739918
1178	1.1780e+000	-212.150574	-70.733446
1179	1.1790e+000	-213.363647	-70.714028
1180	1.1800e+000	-214.485168	-70.856427
1181	1.1810e+000	-215.736389	-70.791700
1182	1.1820e+000	-216.995239	-70.824063
1183	1.1830e+000	-218.269348	-70.875845
1184	1.1840e+000	-219.291687	-70.798172
1185	1.1850e+000	-220.504761	-70.934099
1186	1.1860e+000	-221.839905	-70.862899
1187	1.1870e+000	-222.999573	-70.882317
1188	1.1880e+000	-224.128723	-70.908208
1189	1.1890e+000	-225.372314	-70.934099
1190	1.1900e+000	-226.509094	-70.914681
1191	1.1910e+000	-227.592468	-71.089443
1192	1.1920e+000	-229.003906	-70.979408
1193	1.1930e+000	-230.186462	-70.972935
1194	1.1940e+000	-231.384277	-71.031189
1195	1.1950e+000	-232.559204	-71.128279
1196	1.1960e+000	-233.940125	-71.037662
1197	1.1970e+000	-235.092163	-71.134752
1198	1.1980e+000	-236.335754	-71.050607
1199	1.1990e+000	-237.274170	-71.147697
1200	1.2000e+000	-238.601685	-71.173588
1201	1.2010e+000	-239.715576	-71.205951
1202	1.2020e+000	-240.783691	-71.309514
1203	1.2030e+000	-242.294312	-71.238315
1204	1.2040e+000	-243.240356	-71.167115
1205	1.2050e+000	-244.506836	-71.277151
1206	1.2060e+000	-245.811462	-71.303042
1207	1.2070e+000	-246.917725	-71.341878
1208	1.2080e+000	-248.054504	-71.277151
1209	1.2090e+000	-249.557495	-71.309514
1210	1.2100e+000	-250.465393	-71.290096
1211	1.2110e+000	-251.716614	-71.354823
1212	1.2120e+000	-252.975464	-71.419550
1213	1.2130e+000	-254.165649	-71.438968
1214	1.2140e+000	-255.348206	-71.426022
1215	1.2150e+000	-256.561279	-71.497222
1216	1.2160e+000	-257.659912	-71.477804
1217	1.2170e+000	-259.284973	-71.438968
1218	1.2180e+000	-260.353088	-71.639621
1219	1.2190e+000	-261.428833	-71.646094
1220	1.2200e+000	-262.443542	-71.626676
1221	1.2210e+000	-263.801575	-71.639621
1222	1.2220e+000	-264.694214	-71.671984
1223	1.2230e+000	-266.166687	-71.801438
1224	1.2240e+000	-267.387390	-71.820856
1225	1.2250e+000	-268.501282	-71.788493
1226	1.2260e+000	-269.897461	-71.814383
1227	1.2270e+000	-271.102905	-71.782020
1228	1.2280e+000	-271.942139	-71.885583
1229	1.2290e+000	-273.437500	-71.950310
1230	1.2300e+000	-274.635315	-71.924419
1231	1.2310e+000	-275.695801	-71.989146
1232	1.2320e+000	-277.084351	-71.976200
1233	1.2330e+000	-278.182983	-71.892055
1234	1.2340e+000	-279.319763	-72.105654
1235	1.2350e+000	-280.609131	-72.118599
1236	1.2360e+000	-281.852722	-72.027982
1237	1.2370e+000	-282.867432	-72.092708
1238	1.2380e+000	-284.179688	-72.241580
1239	1.2390e+000	-285.392761	-72.267471
1240	1.2400e+000	-286.392212	-72.403397
1241	1.2410e+000	-288.223267	-72.371034
1242	1.2420e+000	-288.986206	-72.448706
1243	1.2430e+000	-289.993286	-72.422815
1244	1.2440e+000	-291.358948	-72.500487
1245	1.2450e+000	-292.678833	-72.552269
1246	1.2460e+000	-293.586731	-72.610523
1247	1.2470e+000	-294.952393	-72.655832
1248	1.2480e+000	-296.142578	-72.629941
1249	1.2490e+000	-297.225952	-72.720558
1250	1.2500e+000	-298.461914	-72.707613
1251	1.2510e+000	-299.880981	-72.817649
1252	1.2520e+000	-298.606873	-72.817649
1253	1.2530e+000	-297.538757	-72.908266
1254	1.2540e+000	-296.501160	-72.921211
1255	1.2550e+000	-295.181274	-72.862957
1256	1.2560e+000	-294.090271	-73.095974
1257	1.2570e+000	-292.892456	-72.908266
1258	1.2580e+000	-291.671753	-72.966520
1259	1.2590e+000	-290.458679	-73.050665
1260	1.2600e+000	-289.260864	-72.960048
1261	1.2610e+000	-287.948608	-73.206009
1262	1.2620e+000	-286.758423	-73.083028
1263	1.2630e+000	-285.690308	-73.083028
1264	1.2640e+000	-284.355164	-73.108919
1265	1.2650e+000	-283.386230	-73.044192
1266	1.2660e+000	-282.096863	-72.992411
1267	1.2670e+000	-280.776978	-73.180119
1268	1.2680e+000	-279.663086	-73.102447
1269	1.2690e+000	-278.656006	-73.083028
1270	1.2700e+000	-277.053833	-73.309572
1271	1.2710e+000	-276.046753	-73.225427
1272	1.2720e+000	-274.879456	-73.199537
1273	1.2730e+000	-273.483276	-73.328990
1274	1.2740e+000	-272.476196	-73.257791
1275	1.2750e+000	-271.194458	-73.206009
1276	1.2760e+000	-270.095825	-73.218955
1277	1.2770e+000	-269.226074	-73.121865
1278	1.2780e+000	-267.669678	-73.206009
1279	1.2790e+000	-266.426086	-73.290154
1280	1.2800e+000	-265.235901	-73.348408
1281	1.2810e+000	-264.106750	-73.303100
1282	1.2820e+000	-262.840271	-73.316045
1283	1.2830e+000	-261.512756	-73.348408
1284	1.2840e+000	-260.437012	-73.303100
1285	1.2850e+000	-259.422302	-73.277209
1286	1.2860e+000	-257.949829	-73.264264
1287	1.2870e+000	-256.851196	-73.257791
1288	1.2880e+000	-255.607605	-73.451971
1289	1.2890e+000	-254.440308	-73.322518
1290	1.2900e+000	-253.273010	-73.322518
1291	1.2910e+000	-252.113342	-73.413135
1292	1.2920e+000	-250.686646	-73.451971
1293	1.2930e+000	-249.649048	-73.212482
1294	1.2940e+000	-248.451233	-73.380772
1295	1.2950e+000	-247.177124	-73.322518
1296	1.2960e+000	-246.109009	-73.309572
1297	1.2970e+000	-244.995117	-73.426081
1298	1.2980e+000	-243.545532	-73.316045
1299	1.2990e+000	-242.446899	-73.121865
1300	1.3000e+000	-241.439819	-73.348408
1301	1.3010e+000	-239.913940	-73.290154
1302	1.3020e+000	-238.914490	-73.270736
1303	1.3030e+000	-237.777710	-73.380772
1304	1.3040e+000	-236.358643	-73.199537
1305	1.3050e+000	-235.275269	-73.251318
1306	1.3060e+000	-234.199524	-73.160701
1307	1.3070e+000	-232.772827	-73.380772
1308	1.3080e+000	-231.552124	-73.290154
1309	1.3090e+000	-230.552673	-73.341936
1310	1.3100e+000	-229.110718	-73.341936
1311	1.3110e+000	-227.958679	-73.257791
1312	1.3120e+000	-227.012634	-73.244845
1313	1.3130e+000	-225.692749	-73.199537
1314	1.3140e+000	-224.426270	-73.212482
1315	1.3150e+000	-223.365784	-73.186591
1316	1.3160e+000	-222.045898	-73.115392
1317	1.3170e+000	-220.764160	-73.180119
1318	1.3180e+000	-219.749451	-73.257791
1319	1.3190e+000	-218.338013	-73.167173
1320	1.3200e+000	-217.147827	-73.160701
1321	1.3210e+000	-216.239929	-73.303100
1322	1.3220e+000	-214.736938	-73.277209
1323	1.3230e+000	-213.600159	-73.063610
1324	1.3240e+000	-212.646484	-73.180119
1325	1.3250e+000	-211.189270	-73.206009
1326	1.3260e+000	-209.899902	-73.089501
1327	1.3270e+000	-209.014893	-73.218955
1328	1.3280e+000	-207.466125	-73.070083
1329	1.3290e+000	-206.336975	-73.173646
1330	1.3300e+000	-205.352783	-73.160701
1331	1.3310e+000	-204.040527	-73.218955
1332	1.3320e+000	-202.713013	-73.024774
1333	1.3330e+000	-201.812744	-73.070083
1334	1.3340e+000	-200.378418	-73.011829
1335	1.3350e+000	-199.150085	-73.057138
1336	1.3360e+000	-198.135376	-73.108919
1337	1.3370e+000	-196.678162	-73.121865
1338	1.3380e+000	-195.648193	-73.011829
1339	1.3390e+000	-194.664001	-73.063610
1340	1.3400e+000	-193.206787	-73.057138
1341	1.3410e+000	-192.016602	-72.882375
1342	1.3420e+000	-191.001892	-73.037720
1343	1.3430e+000	-189.544678	-73.050665
1344	1.3440e+000	-188.392639	-72.804703
1345	1.3450e+000	-187.339783	-73.037720
1346	1.3460e+000	-186.149597	-72.843539
1347	1.3470e+000	-184.913635	-72.979466
1348	1.3480e+000	-183.769226	-72.985938
1349	1.3490e+000	-182.426453	-72.960048
1350	1.3500e+000	-181.198120	-72.888848
1351	1.3510e+000	-180.168152	-72.940630
1352	1.3520e+000	-178.764343	-72.882375
1353	1.3530e+000	-177.543640	-72.921211
1354	1.3540e+000	-176.422119	-72.869430
1355	1.3550e+000	-175.186157	-72.778813
1356	1.3560e+000	-174.087524	-72.862957
1357	1.3570e+000	-173.042297	-72.940630
1358	1.3580e+000	-171.531677	-72.765867
1359	1.3590e+000	-170.516968	-72.947102
1360	1.3600e+000	-169.258118	-72.798231
1361	1.3610e+000	-168.090820	-72.739976
1362	1.3620e+000	-166.816711	-72.837067
1363	1.3630e+000	-165.687561	-72.778813
1364	1.3640e+000	-164.344788	-72.714086
1365	1.3650e+000	-163.223267	-72.752922
1366	1.3660e+000	-161.979675	-72.746449
1367	1.3670e+000	-160.789490	-72.759394
1368	1.3680e+000	-159.553528	-72.759394
1369	1.3690e+000	-158.500671	-72.772340
1370	1.3700e+000	-157.188416	-72.739976
1371	1.3710e+000	-155.990601	-72.642886
1372	1.3720e+000	-154.914856	-72.701140
1373	1.3730e+000	-153.648376	-72.688195
1374	1.3740e+000	-152.481079	-72.552269
1375	1.3750e+000	-151.268005	-72.629941
1376	1.3760e+000	-149.917603	-72.752922
1377	1.3770e+000	-148.895264	-72.604050
1378	1.3780e+000	-147.605896	-72.817649
1379	1.3790e+000	-146.377563	-72.571687
1380	1.3800e+000	-145.370483	-72.526378
1381	1.3810e+000	-143.951416	-72.688195
1382	1.3820e+000	-142.730713	-72.455179
1383	1.3830e+000	-141.716003	-72.494015
1384	1.3840e+000	-140.342712	-72.526378
1385	1.3850e+000	-139.266968	-72.578159
1386	1.3860e+000	-138.053894	-72.513433
1387	1.3870e+000	-136.795044	-72.629941
1388	1.3880e+000	-135.566711	-72.539323
1389	1.3890e+000	-134.452820	-72.545796
1390	1.3900e+000	-133.064270	-72.552269
1391	1.3910e+000	-132.041931	-72.500487
1392	1.3920e+000	-130.889893	-72.351616
1393	1.3930e+000	-129.570007	-72.468124
1394	1.3940e+000	-128.326416	-72.539323
1395	1.3950e+000	-127.281189	-72.371034
1396	1.3960e+000	-126.014709	-72.474597
1397	1.3970e+000	-124.771118	-72.461651
1398	1.3980e+000	-123.657227	-72.358088
1399	1.3990e+000	-122.398376	-72.403397
1400	1.4000e+000	-121.276855	-72.422815
1401	1.4010e+000	-120.048523	-72.299834
1402	1.4020e+000	-118.743896	-72.390452
1403	1.4030e+000	-117.721558	-72.338670
1404	1.4040e+000	-116.409302	-72.241580
1405	1.4050e+000	-115.158081	-72.286889
1406	1.4060e+000	-114.089966	-72.306307
1407	1.4070e+000	-112.869263	-72.273944
1408	1.4080e+000	-111.480713	-72.403397
1409	1.4090e+000	-110.603333	-72.338670
1410	1.4100e+000	-109.298706	-72.228635
1411	1.4110e+000	-107.933044	-72.254525
1412	1.4120e+000	-106.864929	-72.254525
1413	1.4130e+000	-105.781555	-72.202744
1414	1.4140e+000	-104.209900	-72.338670
1415	1.4150e+000	-103.210449	-72.189799
1416	1.4160e+000	-102.035522	-72.267471
1417	1.4170e+000	-100.700378	-72.286889
1418	1.4180e+000	-99.548340	-72.176853
1419	1.4190e+000	-98.556519	-72.196271
1420	1.4200e+000	-97.106934	-72.260998
1421	1.4210e+000	-95.893860	-72.260998
1422	1.4220e+000	-94.917297	-71.956782
1423	1.4230e+000	-93.505859	-72.086236
1424	1.4240e+000	-92.453003	-72.079763
1425	1.4250e+000	-91.209412	-72.015036
1426	1.4260e+000	-89.851379	-72.163908
1427	1.4270e+000	-88.928223	-72.157435
1428	1.4280e+000	-87.684631	-72.034454
1429	1.4290e+000	-86.334229	-72.092708
1430	1.4300e+000	-85.296631	-72.125072
1431	1.4310e+000	-84.045410	-71.995618
1432	1.4320e+000	-82.748413	-72.163908
1433	1.4330e+000	-81.764221	-72.027982
1434	1.4340e+000	-80.329895	-71.950310
1435	1.4350e+000	-79.132080	-72.118599
1436	1.4360e+000	-77.964783	-72.086236
1437	1.4370e+000	-76.896667	-71.924419
1438	1.4380e+000	-75.408936	-71.989146
1439	1.4390e+000	-74.333191	-72.008564
1440	1.4400e+000	-73.318481	-71.872637
1441	1.4410e+000	-72.013855	-71.930891
1442	1.4420e+000	-70.907593	-71.937364
1443	1.4430e+000	-69.564819	-71.762602
1444	1.4440e+000	-68.466187	-71.794965
1445	1.4450e+000	-67.329407	-71.872637
1446	1.4460e+000	-65.910339	-71.827329
1447	1.4470e+000	-64.826965	-71.924419
1448	1.4480e+000	-63.766479	-71.898528
1449	1.4490e+000	-62.454224	-71.833801
1450	1.4500e+000	-61.233521	-71.969728
1451	1.4510e+000	-60.050964	-71.820856
1452	1.4520e+000	-58.837891	-71.691402
1453	1.4530e+000	-57.678223	-71.730238
1454	1.4540e+000	-56.449890	-71.769074
1455	1.4550e+000	-55.152893	-71.769074
1456	1.4560e+000	-53.947449	-71.736711
1457	1.4570e+000	-52.894592	-71.840274
1458	1.4580e+000	-51.513672	-71.652566
1459	1.4590e+000	-50.354004	-71.794965
1460	1.4600e+000	-49.217224	-71.652566
1461	1.4610e+000	-47.950745	-71.639621
1462	1.4620e+000	-47.050476	-71.710820
1463	1.4630e+000	-45.616150	-71.730238
1464	1.4640e+000	-44.456482	-71.639621
1465	1.4650e+000	-43.258667	-71.762602
1466	1.4660e+000	-42.175293	-71.613730
1467	1.4670e+000	-40.832520	-71.665512
1468	1.4680e+000	-39.741516	-71.659039
1469	1.4690e+000	-38.467407	-71.561949
1470	1.4700e+000	-37.147522	-71.659039
1471	1.4710e+000	-36.247253	-71.555476
1472	1.4720e+000	-34.790039	-71.542531
1473	1.4730e+000	-33.447266	-71.646094
1474	1.4740e+000	-32.531738	-71.523113
1475	1.4750e+000	-31.173706	-71.510167
1476	1.4760e+000	-29.983521	-71.574894
1477	1.4770e+000	-28.892517	-71.510167
1478	1.4780e+000	-27.740479	-71.549003
1479	1.4790e+000	-26.412964	-71.484277
1480	1.4800e+000	-25.276184	-71.458386
1481	1.4810e+000	-23.971558	-71.400132
1482	1.4820e+000	-22.804260	-71.341878
1483	1.4830e+000	-21.705627	-71.354823
1484	1.4840e+000	-20.362854	-71.510167
1485	1.4850e+000	-19.172668	-71.406604
1486	1.4860e+000	-18.127441	-71.445440
1487	1.4870e+000	-16.784668	-71.277151
1488	1.4880e+000	-15.541077	-71.438968
1489	1.4890e+000	-14.587402	-71.361296
1490	1.4900e+000	-13.328552	-71.354823
1491	1.4910e+000	-12.008667	-71.393659
1492	1.4920e+000	-10.971069	-71.354823
1493	1.4930e+000	-9.704590	-71.283623
1494	1.4940e+000	-8.491516	-71.374241
1495	1.4950e+000	-7.362366	-71.231842
1496	1.4960e+000	-6.027222	-71.283623
1497	1.4970e+000	-4.936218	-71.303042
1498	1.4980e+000	-3.540039	-71.341878
1499	1.4990e+000	-2.410889	-71.264205
1500	1.5000e+000	-1.182556	-71.160643
1501	1.5010e+000	-0.137329	-71.082970
1502	1.5020e+000	1.182556	-71.309514
1503	1.5030e+000	2.342224	-71.141225
1504	1.5040e+000	3.280640	-71.173588
1505	1.5050e+000	4.646301	-71.057080
1506	1.5060e+000	6.011963	-71.095916
1507	1.5070e+000	6.912231	-71.173588
1508	1.5080e+000	8.285522	-71.115334
1509	1.5090e+000	9.567261	-71.095916
1510	1.5100e+000	10.559082	-71.121806
1511	1.5110e+000	11.917114	-71.057080
1512	1.5120e+000	13.237000	-71.031189
1513	1.5130e+000	14.083862	-71.121806
1514	1.5140e+000	15.441895	-70.972935
1515	1.5150e+000	16.746521	-70.979408
1516	1.5160e+000	17.730713	-70.985880
1517	1.5170e+000	19.195557	-71.011771
1518	1.5180e+000	20.393372	-71.024716
1519	1.5190e+000	21.438599	-70.972935
1520	1.5200e+000	22.720337	-71.011771
1521	1.5210e+000	23.696899	-70.908208
1522	1.5220e+000	25.077820	-70.875845
1523	1.5230e+000	26.351929	-70.759336
1524	1.5240e+000	27.435303	-70.824063
1525	1.5250e+000	28.579712	-70.895263
1526	1.5260e+000	29.975891	-70.875845
1527	1.5270e+000	31.089783	-70.798172
1528	1.5280e+000	32.157898	-70.765809
1529	1.5290e+000	33.508301	-70.655774
1530	1.5300e+000	34.667969	-70.726973
1531	1.5310e+000	35.896301	-70.597519
1532	1.5320e+000	37.071228	-70.636355
1533	1.5330e+000	38.261414	-70.552211
1534	1.5340e+000	39.497375	-70.623410
1535	1.5350e+000	40.786743	-70.558683
1536	1.5360e+000	41.862488	-70.662246
1537	1.5370e+000	43.083191	-70.597519
1538	1.5380e+000	44.288635	-70.351558
1539	1.5390e+000	45.394897	-70.487484
1540	1.5400e+000	46.714783	-70.364503
1541	1.5410e+000	47.782898	-70.183268
1542	1.5420e+000	49.072266	-70.209159
1543	1.5430e+000	50.346375	-70.105596
1544	1.5440e+000	51.391602	-70.137959
1545	1.5450e+000	52.490234	-70.209159
1546	1.5460e+000	53.871155	-70.002033
1547	1.5470e+000	54.985046	-69.930833
1548	1.5480e+000	56.205750	-69.859634
1549	1.5490e+000	57.357788	-69.704290
1550	1.5500e+000	58.555603	-69.652508
1551	1.5510e+000	59.722900	-69.458328
1552	1.5520e+000	61.157227	-69.264147
1553	1.5530e+000	62.171936	-69.173530
1554	1.5540e+000	63.362122	-69.069967
1555	1.5550e+000	64.811707	-69.018186
1556	1.5560e+000	65.834045	-68.778696
1557	1.5570e+000	66.879272	-68.565098
1558	1.5580e+000	68.405151	-68.312663
1559	1.5590e+000	69.572449	-68.060229
1560	1.5600e+000	70.648193	-67.833685
1561	1.5610e+000	71.754456	-67.406488
1562	1.5620e+000	73.059082	-66.933983
1563	1.5630e+000	74.142456	-66.629767
1564	1.5640e+000	75.508118	-66.241406
1565	1.5650e+000	76.461792	-65.704173
1566	1.5660e+000	77.789307	-65.374067
1567	1.5670e+000	79.017639	-64.636181
1568	1.5680e+000	80.207825	-63.898296
1569	1.5690e+000	81.306458	-63.678225
1570	1.5700e+000	82.443237	-62.720268
1571	1.5710e+000	83.770752	-61.995328
1572	1.5720e+000	84.930420	-61.328642
1573	1.5730e+000	86.250305	-60.325376
1574	1.5740e+000	87.509155	-59.490401
1575	1.5750e+000	88.470459	-58.564808
1576	1.5760e+000	89.881897	-57.367362
1577	1.5770e+000	90.873718	-56.286424
1578	1.5780e+000	92.102051	-55.257268
1579	1.5790e+000	93.414307	-53.852697
1580	1.5800e+000	94.528198	-52.752341
1581	1.5810e+000	95.649719	-51.367187
1582	1.5820e+000	96.954346	-49.742545
1583	1.5830e+000	98.083496	-48.376809
1584	1.5840e+000	99.105835	-46.868675
1585	1.5850e+000	100.555420	-45.133997
1586	1.5860e+000	101.669312	-43.580554
1587	1.5870e+000	102.874756	-41.807039
1588	1.5880e+000	104.202271	-39.955853
1589	1.5890e+000	105.194092	-38.085248
1590	1.5900e+000	106.269836	-36.285843
1591	1.5910e+000	107.612610	-34.337567
1592	1.5920e+000	108.856201	-32.201582
1593	1.5930e+000	110.069275	-30.240360
1594	1.5940e+000	111.152649	-27.916668
1595	1.5950e+000	112.411499	-25.825993
1596	1.5960e+000	113.578796	-23.884189
1597	1.5970e+000	114.898682	-21.547551
1598	1.5980e+000	115.936279	-19.288586
1599	1.5990e+000	117.134094	-17.236747
1600	1.6000e+000	118.507385	-14.705929
1601	1.6010e+000	119.522095	-12.582890
1602	1.6020e+000	120.834351	-10.265670
1603	1.6030e+000	121.856689	-7.864306
1604	1.6040e+000	123.130798	-5.553559
1605	1.6050e+000	124.282837	-3.294594
1606	1.6060e+000	125.595093	-0.938539
1607	1.6070e+000	126.853943	1.404572
1608	1.6080e+000	128.028870	3.780045
1609	1.6090e+000	129.249573	6.336754
1610	1.6100e+000	130.332947	8.653973
1611	1.6110e+000	131.568909	11.035919
1612	1.6120e+000	132.850647	13.340193
1613	1.6130e+000	133.888245	15.696249
1614	1.6140e+000	135.246277	18.071722
1615	1.6150e+000	136.497498	20.615485
1616	1.6160e+000	137.550354	22.667325
1617	1.6170e+000	138.809204	24.997490
1618	1.6180e+000	139.968872	27.360018
1619	1.6190e+000	141.227722	29.657819
1620	1.6200e+000	142.471313	31.832640
1621	1.6210e+000	143.493652	34.182222
1622	1.6220e+000	144.790649	36.492969
1623	1.6230e+000	145.957947	38.577172
1624	1.6240e+000	147.041321	41.023845
1625	1.6250e+000	148.368835	43.185720
1626	1.6260e+000	149.528503	45.263450
1627	1.6270e+000	150.703430	47.548306
1628	1.6280e+000	152.221680	49.632509
1629	1.6290e+000	153.121948	51.729658
1630	1.6300e+000	154.273987	53.872115
1631	1.6310e+000	155.647278	55.969263
1632	1.6320e+000	156.753540	57.587433
1633	1.6330e+000	158.058167	59.367420
1634	1.6340e+000	159.309387	60.778464
1635	1.6350e+000	160.499573	61.827038
1636	1.6360e+000	161.743164	62.875612
1637	1.6370e+000	163.032532	63.859460
1638	1.6380e+000	164.176941	64.545564
1639	1.6390e+000	165.267944	65.529411
1640	1.6400e+000	166.679382	66.099007
1641	1.6410e+000	167.778015	66.772166
1642	1.6420e+000	168.952942	67.406488
1643	1.6430e+000	170.242310	67.820740
1644	1.6440e+000	171.554565	68.442117
1645	1.6450e+000	172.500610	68.707497
1646	1.6460e+000	173.965454	69.037604
1647	1.6470e+000	175.132751	69.076440
1648	1.6480e+000	176.300049	69.400074
1649	1.6490e+000	177.497864	69.432437
1650	1.6500e+000	178.733826	69.425964
1651	1.6510e+000	179.748535	69.587781
1652	1.6520e+000	181.022644	69.451855
1653	1.6530e+000	182.350159	69.438910
1654	1.6540e+000	183.296204	69.367710
1655	1.6550e+000	184.669495	69.477746
1656	1.6560e+000	185.966492	69.510109
1657	1.6570e+000	187.042236	69.523055
1658	1.6580e+000	188.331604	69.684872
1659	1.6590e+000	189.537048	69.613672
1660	1.6600e+000	190.635681	69.781962
1661	1.6610e+000	191.825867	69.697817
1662	1.6620e+000	193.214417	69.626617
1663	1.6630e+000	194.175720	69.671926
1664	1.6640e+000	195.632935	69.717235
1665	1.6650e+000	196.754456	69.723708
1666	1.6660e+000	197.807312	69.736653
1667	1.6670e+000	199.119568	69.756071
1668	1.6680e+000	200.279236	69.756071
1669	1.6690e+000	201.385498	69.885525
1670	1.6700e+000	202.774048	69.827271
1671	1.6710e+000	203.880310	69.866107
1672	1.6720e+000	204.986572	69.898470
1673	1.6730e+000	206.199646	69.807852
1674	1.6740e+000	207.565308	69.911415
1675	1.6750e+000	208.641052	69.885525
1676	1.6760e+000	209.915161	69.807852
1677	1.6770e+000	211.105347	69.859634
1678	1.6780e+000	212.203979	69.995560
1679	1.6790e+000	213.348389	69.969669
1680	1.6800e+000	214.714050	69.943779
1681	1.6810e+000	215.980530	69.898470
1682	1.6820e+000	217.086792	70.040869
1683	1.6830e+000	218.345642	70.002033
1684	1.6840e+000	219.421387	70.092650
1685	1.6850e+000	220.748901	69.976142
1686	1.6860e+000	221.916199	70.079705
1687	1.6870e+000	223.060608	70.125014
1688	1.6880e+000	224.304199	70.066760
1689	1.6890e+000	225.471497	70.086178
1690	1.6900e+000	226.737976	70.150905
1691	1.6910e+000	227.966309	70.131486
1692	1.6920e+000	229.072571	70.118541
1693	1.6930e+000	230.155945	70.099123
1694	1.6940e+000	231.513977	70.196213
1695	1.6950e+000	232.551575	70.099123
1696	1.6960e+000	233.818054	70.364503
1697	1.6970e+000	235.092163	70.273885
1698	1.6980e+000	236.274719	70.254467
1699	1.6990e+000	237.434387	70.390394
1700	1.7000e+000	238.769531	70.293303
1701	1.7010e+000	239.761353	70.345085
1702	1.7020e+000	241.127014	70.481011
1703	1.7030e+000	242.195129	70.358030
1704	1.7040e+000	243.385315	70.370976
1705	1.7050e+000	244.674683	70.422757
1706	1.7060e+000	245.811462	70.422757
1707	1.7070e+000	247.039795	70.416284
1708	1.7080e+000	248.451233	70.597519
1709	1.7090e+000	249.481201	70.500429
1710	1.7100e+000	250.663757	70.481011
1711	1.7110e+000	251.808167	70.688137
1712	1.7120e+000	253.082275	70.565156
1713	1.7130e+000	254.211426	70.701082
1714	1.7140e+000	255.645752	70.726973
1715	1.7150e+000	256.523132	70.649301
1716	1.7160e+000	257.911682	70.681664
1717	1.7170e+000	259.117126	70.875845
1718	1.7180e+000	260.238647	70.888790
1719	1.7190e+000	261.375427	70.804645
1720	1.7200e+000	262.680054	70.875845
1721	1.7210e+000	263.816833	70.849954
1722	1.7220e+000	264.846802	71.005298
1723	1.7230e+000	266.349792	70.895263
1724	1.7240e+000	267.402649	70.966462
1725	1.7250e+000	268.615723	71.128279
1726	1.7260e+000	269.973755	71.244787
1727	1.7270e+000	271.110535	71.037662
1728	1.7280e+000	272.079468	71.154170
1729	1.7290e+000	273.612976	71.251260
1730	1.7300e+000	274.551392	71.173588
1731	1.7310e+000	275.901794	71.387186
1732	1.7320e+000	277.229309	71.283623
1733	1.7330e+000	278.175354	71.290096
1734	1.7340e+000	279.403687	71.484277
1735	1.7350e+000	280.769348	71.497222
1736	1.7360e+000	281.761169	71.490749
1737	1.7370e+000	282.844543	71.549003
1738	1.7380e+000	284.461975	71.626676
1739	1.7390e+000	285.278320	71.652566
1740	1.7400e+000	286.453247	71.652566
1741	1.7410e+000	288.032532	71.853219
1742	1.7420e+000	289.093018	71.892055
1743	1.7430e+000	290.275574	71.769074
1744	1.7440e+000	291.633606	71.905001
1745	1.7450e+000	292.747498	71.898528
1746	1.7460e+000	293.769836	71.866165
1747	1.7470e+000	295.158386	71.976200
1748	1.7480e+000	296.173096	72.021509
1749	1.7490e+000	297.317505	72.125072
1750	1.7500e+000	298.782349	72.150963
1751	1.7510e+000	299.842834	72.157435
1752	1.7520e+000	298.934937	72.150963
1753	1.7530e+000	297.752380	72.390452
1754	1.7540e+000	296.531677	72.403397
1755	1.7550e+000	295.280457	72.416342
1756	1.7560e+000	294.357300	72.435760
1757	1.7570e+000	293.067932	72.494015
1758	1.7580e+000	291.587830	72.539323
1759	1.7590e+000	290.733337	72.461651
1760	1.7600e+000	289.375305	72.610523
1761	1.7610e+000	288.139343	72.629941
1762	1.7620e+000	286.956787	72.668777
1763	1.7630e+000	285.690308	72.739976
1764	1.7640e+000	284.553528	72.720558
1765	1.7650e+000	283.424377	72.785285
1766	1.7660e+000	282.173157	72.811176
1767	1.7670e+000	280.929565	72.830594
1768	1.7680e+000	279.876709	72.960048
1769	1.7690e+000	278.472900	72.947102
1770	1.7700e+000	277.229309	72.901793
1771	1.7710e+000	276.191711	72.985938
1772	1.7720e+000	274.963379	72.960048
1773	1.7730e+000	273.643494	72.888848
1774	1.7740e+000	272.697449	73.050665
1775	1.7750e+000	271.331787	72.998884
1776	1.7760e+000	270.210266	73.050665
1777	1.7770e+000	269.119263	73.134810
1778	1.7780e+000	267.738342	73.057138
1779	1.7790e+000	266.624451	72.998884
1780	1.7800e+000	265.495300	73.134810
1781	1.7810e+000	264.015198	73.147755
1782	1.7820e+000	262.947083	73.154228
1783	1.7830e+000	261.665344	73.186591
1784	1.7840e+000	260.673523	73.108919
1785	1.7850e+000	259.368896	73.141283
1786	1.7860e+000	258.033752	73.316045
1787	1.7870e+000	256.950378	73.206009
1788	1.7880e+000	255.828857	73.270736
1789	1.7890e+000	254.814148	73.244845
1790	1.7900e+000	253.440857	73.121865
1791	1.7910e+000	252.220154	73.206009
1792	1.7920e+000	250.999451	73.180119
1793	1.7930e+000	249.778748	73.322518
1794	1.7940e+000	248.558044	73.206009
1795	1.7950e+000	247.528076	73.238373
1796	1.7960e+000	246.246338	73.328990
1797	1.7970e+000	244.987488	73.186591
1798	1.7980e+000	243.812561	73.257791
1799	1.7990e+000	242.767334	73.296627
1800	1.8000e+000	241.416931	73.251318
1801	1.8010e+000	240.097046	73.316045
1802	1.8020e+000	239.089966	73.167173
1803	1.8030e+000	237.831116	73.277209
1804	1.8040e+000	236.564636	73.451971
1805	1.8050e+000	235.374451	73.445499
1806	1.8060e+000	234.130859	73.380772
1807	1.8070e+000	232.955933	73.419608
1808	1.8080e+000	231.773376	73.238373
1809	1.8090e+000	230.552673	73.264264
1810	1.8100e+000	229.431152	73.354881
1811	1.8110e+000	228.240967	73.303100
1812	1.8120e+000	227.272034	73.335463
1813	1.8130e+000	225.746155	73.335463
1814	1.8140e+000	224.685669	73.354881
1815	1.8150e+000	223.320007	73.367826
1816	1.8160e+000	222.175598	73.167173
1817	1.8170e+000	220.863342	73.354881
1818	1.8180e+000	219.787598	73.270736
1819	1.8190e+000	218.521118	73.251318
1820	1.8200e+000	217.445374	73.296627
1821	1.8210e+000	216.247559	73.309572
1822	1.8220e+000	215.034485	73.290154
1823	1.8230e+000	213.912964	73.426081
1824	1.8240e+000	212.516785	73.270736
1825	1.8250e+000	211.296082	73.303100
1826	1.8260e+000	210.121155	73.361354
1827	1.8270e+000	209.114075	73.180119
1828	1.8280e+000	207.885742	73.283682
1829	1.8290e+000	206.619263	73.303100
1830	1.8300e+000	205.627441	73.218955
1831	1.8310e+000	204.132080	73.296627
1832	1.8320e+000	203.086853	73.270736
1833	1.8330e+000	201.812744	73.147755
1834	1.8340e+000	200.531006	73.264264
1835	1.8350e+000	199.203491	73.296627
1836	1.8360e+000	198.112488	73.180119
1837	1.8370e+000	197.044373	73.277209
1838	1.8380e+000	195.686340	73.089501
1839	1.8390e+000	194.564819	73.115392
1840	1.8400e+000	193.313599	73.134810
1841	1.8410e+000	192.161560	73.160701
1842	1.8420e+000	191.009521	73.160701
1843	1.8430e+000	189.781189	73.141283
1844	1.8440e+000	188.606262	73.180119
1845	1.8450e+000	187.339783	73.206009
1846	1.8460e+000	186.119080	73.134810
1847	1.8470e+000	185.050964	73.115392
1848	1.8480e+000	183.799744	73.115392
1849	1.8490e+000	182.640076	73.102447
1850	1.8500e+000	181.320190	73.037720
1851	1.8510e+000	180.183411	73.050665
1852	1.8520e+000	178.947449	72.966520
1853	1.8530e+000	177.803040	73.089501
1854	1.8540e+000	176.582336	73.121865
1855	1.8550e+000	175.354004	73.005356
1856	1.8560e+000	174.240112	72.979466
1857	1.8570e+000	172.973633	73.018302
1858	1.8580e+000	171.798706	72.972993
1859	1.8590e+000	170.600891	73.005356
1860	1.8600e+000	169.311523	72.953575
1861	1.8610e+000	167.976379	72.992411
1862	1.8620e+000	167.045593	72.921211
1863	1.8630e+000	165.695190	73.037720
1864	1.8640e+000	164.588928	73.018302
1865	1.8650e+000	163.429260	72.966520
1866	1.8660e+000	162.200928	72.985938
1867	1.8670e+000	160.858154	72.953575
1868	1.8680e+000	159.629822	72.869430
1869	1.8690e+000	158.599854	72.895321
1870	1.8700e+000	157.363892	72.869430
1871	1.8710e+000	156.257629	72.888848
1872	1.8720e+000	154.960632	72.888848
1873	1.8730e+000	153.846741	72.824121
1874	1.8740e+000	152.580261	72.824121
1875	1.8750e+000	151.443481	72.875903
1876	1.8760e+000	150.199890	72.811176
1877	1.8770e+000	148.956299	72.856485
1878	1.8780e+000	147.750854	72.765867
1879	1.8790e+000	146.560669	72.720558
1880	1.8800e+000	145.393372	72.739976
1881	1.8810e+000	144.142151	72.785285
1882	1.8820e+000	142.967224	72.714086
1883	1.8830e+000	141.517639	72.688195
1884	1.8840e+000	140.495300	72.804703
1885	1.8850e+000	139.312744	72.727031
1886	1.8860e+000	138.107300	72.707613
1887	1.8870e+000	137.100220	72.830594
1888	1.8880e+000	135.833740	72.642886
1889	1.8890e+000	134.574890	72.785285
1890	1.8900e+000	133.277893	72.636414
1891	1.8910e+000	132.072449	72.668777
1892	1.8920e+000	131.103516	72.584632
1893	1.8930e+000	129.684448	72.655832
1894	1.8940e+000	128.471375	72.701140
1895	1.8950e+000	127.601624	72.571687
1896	1.8960e+000	125.946045	72.623468
1897	1.8970e+000	124.938965	72.571687
1898	1.8980e+000	123.634338	72.545796
1899	1.8990e+000	122.550964	72.675250
1900	1.9000e+000	121.513367	72.565214
1901	1.9010e+000	120.223999	72.494015
1902	1.9020e+000	119.018555	72.422815
1903	1.9030e+000	117.790222	72.500487
1904	1.9040e+000	116.531372	72.494015
1905	1.9050e+000	115.280151	72.552269
1906	1.9060e+000	114.295959	72.494015
1907	1.9070e+000	112.968445	72.526378
1908	1.9080e+000	111.770630	72.474597
1909	1.9090e+000	110.679626	72.416342
1910	1.9100e+000	109.344482	72.494015
1911	1.9110e+000	108.253479	72.519905
1912	1.9120e+000	107.170105	72.409870
1913	1.9130e+000	105.865479	72.552269
1914	1.9140e+000	104.530334	72.474597
1915	1.9150e+000	103.446960	72.351616
1916	1.9160e+000	102.157593	72.409870
1917	1.9170e+000	100.990295	72.338670
1918	1.9180e+000	99.876404	72.267471
1919	1.9190e+000	98.564148	72.358088
1920	1.9200e+000	97.328186	72.306307
1921	1.9210e+000	96.275330	72.345143
1922	1.9220e+000	94.902039	72.235107
1923	1.9230e+000	93.559265	72.338670
1924	1.9240e+000	92.651367	72.280416
1925	1.9250e+000	91.323853	72.189799
1926	1.9260e+000	90.187073	72.306307
1927	1.9270e+000	89.080811	72.345143
1928	1.9280e+000	87.799072	72.112127
1929	1.9290e+000	86.524963	72.390452
1930	1.9300e+000	85.472107	72.241580
1931	1.9310e+000	84.236145	72.060345
1932	1.9320e+000	83.007813	72.377506
1933	1.9330e+000	81.809998	72.222162
1934	1.9340e+000	80.551147	72.157435
1935	1.9350e+000	79.307556	72.293362
1936	1.9360e+000	78.346252	72.092708
1937	1.9370e+000	76.805115	72.086236
1938	1.9380e+000	75.836182	72.163908
1939	1.9390e+000	74.707031	72.086236
1940	1.9400e+000	73.402405	72.008564
1941	1.9410e+000	72.196960	72.202744
1942	1.9420e+000	71.006775	72.034454
1943	1.9430e+000	69.885254	72.086236
1944	1.9440e+000	68.466187	72.053872
1945	1.9450e+000	67.276001	72.112127
1946	1.9460e+000	66.177368	71.995618
1947	1.9470e+000	64.926147	72.073290
1948	1.9480e+000	63.751221	71.969728
1949	1.9490e+000	62.599182	71.937364
1950	1.9500e+000	61.340332	71.995618
1951	1.9510e+000	60.195923	71.853219
1952	1.9520e+000	58.860779	71.911473
1953	1.9530e+000	57.838440	72.034454
1954	1.9540e+000	56.579590	71.853219
1955	1.9550e+000	55.427551	71.717293
1956	1.9560e+000	54.275513	71.898528
1957	1.9570e+000	53.031921	71.872637
1958	1.9580e+000	51.742554	71.665512
1959	1.9590e+000	50.674438	71.885583
1960	1.9600e+000	49.324036	71.710820
1961	1.9610e+000	48.156738	71.989146
1962	1.9620e+000	47.103882	71.872637
1963	1.9630e+000	45.799255	71.833801
1964	1.9640e+000	44.441223	71.697875
1965	1.9650e+000	43.457031	71.820856
1966	1.9660e+000	42.213440	71.717293
1967	1.9670e+000	41.030884	71.646094
1968	1.9680e+000	39.749146	71.730238
1969	1.9690e+000	38.566589	71.646094
1970	1.9700e+000	37.422180	71.671984
1971	1.9710e+000	36.224365	71.704348
1972	1.9720e+000	34.881592	71.749656
1973	1.9730e+000	33.843994	71.697875
1974	1.9740e+000	32.409668	71.639621
1975	1.9750e+000	31.448364	71.671984
1976	1.9760e+000	30.181885	71.626676
1977	1.9770e+000	29.067993	71.600785
1978	1.9780e+000	27.671814	71.620203
1979	1.9790e+000	26.565552	71.594312
1980	1.9800e+000	25.291443	71.613730
1981	1.9810e+000	24.063110	71.555476
1982	1.9820e+000	22.903442	71.523113
1983	1.9830e+000	21.682739	71.581367
1984	1.9840e+000	20.492554	71.445440
1985	1.9850e+000	19.279480	71.529585
1986	1.9860e+000	18.142700	71.574894
1987	1.9870e+000	16.868591	71.419550
1988	1.9880e+000	15.792847	71.561949
1989	1.9890e+000	14.328003	71.361296
1990	1.9900e+000	13.374329	71.426022
1991	1.9910e+000	12.176514	71.387186
1992	1.9920e+000	11.032104	71.484277
1993	1.9930e+000	9.704590	71.419550
1994	1.9940e+000	8.666992	71.283623
1995	1.9950e+000	7.392883	71.419550
1996	1.9960e+000	6.088257	71.270678
1997	1.9970e+000	5.035400	71.231842
1998	1.9980e+000	3.654480	71.361296
1999	1.9990e+000	2.418518	71.128279
2000	2.0000e+000	1.556396	71.115334
2001	2.0010e+000	0.175476	71.167115

Center data before PMax,±Pr and ±Vc Calc.

PMax (µC/cm2):	7.22e+001
Pr (µC/cm2):	7.12e+001
-Pr (µC/cm2):	-7.11e+001
Vc:	1.26e+000
-Vc:	-1.15e+000
C (Max-Eff) (nF):	-1.49e+000
K (Eff):	-2.72e+003
Vert. (±Pr) Shift (µC/cm2):	3.03e-002
Horiz. Shift (±Vc):	5.80e-002
Offset (µC/cm2):	-5.43e+001

A (Loop Area - µC/cm2·Volts):	3.37e+002



Hysteresis Version: 5.16.2 - Radiant Technologies, Inc., 1999 - 3/20/18

