»»»»»»»»»»»»»»»»»»»»»»»»»»»»»»»»»»»» Hysteresis ««««««««««««««««««««««««««««««««««««
»»»  Executed Version:	5.16.2
»»»  Vision Version:	5.16.10 (R)
»»»  Vision Compiled:	4/26/18
»»»  Driver Version:	5.16.6
»»»  Windows Version:	Windows 8
»»»  Processor Information:	x86 (AMD or Intel) - 8 Processors
»»»  Tester Name:	PPM21016-863
»»»  Tester S/N:	PPM21016-863
»»»  Internal Amp Type:	 RTI ML200V    
»»»  Internal Amp S/N:	 iAB2-0000     
»»»  Execution Count:	1
»»»»»»»»»»»»»»»»»»»»»»»»»»»»»»»»»»»»»»»»»»««««««««««««««««««««««««««««««««««««««««««

Stored:	5/8/2018 - 13:13:47
Configured:	05/08/18 01:03:24 PM
Executed:	05/08/18 01:13:22 PM

»»»»»»»»»»»»»»»»»»»»»»»»»»»»»»»»»»» Sample Info ««««««««««««««««««««««««««««««««««««
Sample Name:	Internal Reference Cap.
Lot Name:	N/A
Wafer Name:	N/A
Die Row/Column:	0/0
Capacitor Number:	0
Sample Area (cm2):	7.85e-005
Sample Thickness (µm):	8.00e-002

Mux Loop Adjustment:	Disabled

Amplifier:	Internal

»»»»»»»»»»»»»»»»»»»»»»»»»»»»»»»»»»» Tester Info «««««««««««««««««««««««««««««««««««
Tester Name:	PPM21016-863
Tester Serial Number:	PPM21016-863
Return Signal Amp. Level:	0.19 [Index: 3]

»»»»»»»»»»»»»»»»»»»»»»»»»»»»»»»» Hysteresis Info ««««««««««««««««««««««««««««««««««
Task Name:	Hyst-1
Volts:	2.40
Field:	300.00 (kV/cm)
Hysteresis Period (ms):	2.00e+000
Preset:	Enabled
Preset Delay (ms):	1.00e+003
Profile:	Double Bipolar

»»»»»»»»»»»»»»»»»»»»»»»»»»»»»»»»»»»»»» Data «««««««««««««««««««««««««««««««««««««««
Points:	2001

Valid Data

Point	Time (ms)	Field (kV/cm)	Measured Polarization
   1	1.0000e-003	0.228882	-40.621135
   2	2.0000e-003	1.363754	-40.493395
   3	3.0000e-003	2.727509	-40.442299
   4	4.0000e-003	3.919601	-40.549601
   5	5.0000e-003	5.073547	-40.457628
   6	6.0000e-003	5.807877	-40.248135
   7	7.0000e-003	7.362366	-40.426971
   8	8.0000e-003	8.611679	-40.411642
   9	9.0000e-003	9.660721	-40.488286
  10	1.0000e-002	10.795593	-40.452519
  11	1.1000e-002	12.235641	-40.304341
  12	1.2000e-002	13.341904	-40.380984
  13	1.3000e-002	14.524460	-40.294122
  14	1.4000e-002	15.783310	-40.452519
  15	1.5000e-002	17.051697	-40.370765
  16	1.6000e-002	18.167496	-40.299231
  17	1.7000e-002	19.111633	-40.391204
  18	1.8000e-002	20.532608	-40.197040
  19	1.9000e-002	21.686554	-40.176601
  20	2.0000e-002	22.840500	-40.135725
  21	2.1000e-002	24.147034	-40.197040
  22	2.2000e-002	25.520325	-40.115287
  23	2.3000e-002	26.597977	-40.151054
  24	2.4000e-002	27.732849	-39.660534
  25	2.5000e-002	28.800964	-40.105067
  26	2.6000e-002	30.031204	-40.007985
  27	2.7000e-002	31.480789	-39.956890
  28	2.8000e-002	32.472610	-39.890465
  29	2.9000e-002	33.769608	-39.951780
  30	3.0000e-002	35.123825	-39.916013
  31	3.1000e-002	36.191940	-39.844479
  32	3.2000e-002	37.326813	-39.829150
  33	3.3000e-002	37.765503	-39.803602
  34	3.4000e-002	39.863586	-39.726959
  35	3.5000e-002	40.864944	-39.594110
  36	3.6000e-002	42.018890	-39.675863
  37	3.7000e-002	43.487549	-39.553233
  38	3.8000e-002	44.603348	-39.553233
  39	3.9000e-002	45.738220	-39.435713
  40	4.0000e-002	47.016144	-39.323302
  41	4.1000e-002	48.170090	-39.333521
  42	4.2000e-002	49.285889	-39.282426
  43	4.3000e-002	50.554276	-38.664167
  44	4.4000e-002	51.870346	-39.134248
  45	4.5000e-002	52.785873	-39.026947
  46	4.6000e-002	54.111481	-38.945193
  47	4.7000e-002	55.370331	-38.807235
  48	4.8000e-002	56.610107	-38.899207
  49	4.9000e-002	57.153702	-39.037166
  50	5.0000e-002	58.984756	-38.684605
  51	5.1000e-002	60.024261	-38.556866
  52	5.2000e-002	61.445236	-38.424017
  53	5.3000e-002	63.486099	-37.918169
  54	5.4000e-002	63.571930	-38.280948
  55	5.5000e-002	64.973831	-38.214524
  56	5.6000e-002	66.318512	-38.076565
  57	5.7000e-002	67.310333	-38.066346
  58	5.8000e-002	68.788528	-37.764881
  59	5.9000e-002	69.761276	-37.846634
  60	6.0000e-002	70.924759	-38.148099
  61	6.1000e-002	72.202682	-37.606484
  62	6.2000e-002	73.232651	-37.524731
  63	6.3000e-002	74.567795	-37.442978
  64	6.4000e-002	75.750351	-37.310129
  65	6.5000e-002	77.095032	-37.126184
  66	6.6000e-002	78.191757	-36.988226
  67	6.7000e-002	79.383850	-36.901363
  68	6.8000e-002	80.537796	-36.717418
  69	6.9000e-002	81.491470	-36.717418
  70	7.0000e-002	83.007813	-36.523254
  71	7.1000e-002	84.075928	-36.369967
  72	7.2000e-002	85.287094	-36.211570
  73	7.3000e-002	86.660385	-36.242227
  74	7.4000e-002	87.795258	-35.884557
  75	7.5000e-002	88.825226	-35.598421
  76	7.6000e-002	89.969635	-35.424695
  77	7.7000e-002	91.323853	-35.286737
  78	7.8000e-002	92.697144	-34.934176
  79	7.9000e-002	93.803406	-34.929066
  80	8.0000e-002	94.900131	-34.704245
  81	8.1000e-002	96.015930	-34.535629
  82	8.2000e-002	97.312927	-34.249492
  83	8.3000e-002	98.533630	-33.820288
  84	8.4000e-002	99.668503	-33.651672
  85	8.5000e-002	100.679398	-33.503494
  86	8.6000e-002	102.252960	-33.263344
  87	8.7000e-002	103.235245	-32.711510
  88	8.8000e-002	104.923248	-32.757496
  89	8.9000e-002	105.772018	-32.486689
  90	9.0000e-002	106.773376	-32.205662
  91	9.1000e-002	108.079910	-31.832663
  92	9.2000e-002	109.243393	-31.403458
  93	9.3000e-002	110.349655	-31.132651
  94	9.4000e-002	111.951828	-30.790309
  95	9.5000e-002	112.886429	-30.376433
  96	9.6000e-002	114.154816	-29.824599
  97	9.7000e-002	115.270615	-29.650873
  98	9.8000e-002	116.605759	-29.170573
  99	9.9000e-002	117.578506	-28.664725
 100	1.0000e-001	118.961334	-28.368370
 101	1.0100e-001	119.657516	-28.301945
 102	1.0200e-001	121.288300	-27.632591
 103	1.0300e-001	122.728348	-26.804839
 104	1.0400e-001	123.615265	-26.339868
 105	1.0500e-001	124.931335	-25.690952
 106	1.0600e-001	125.980377	-25.118679
 107	1.0700e-001	127.267838	-24.515749
 108	1.0800e-001	128.250122	-23.912819
 109	1.0900e-001	129.814148	-23.125944
 110	1.1000e-001	130.815506	-22.543452
 111	1.1100e-001	132.007599	-21.766797
 112	1.1200e-001	134.191513	-20.346334
 113	1.1300e-001	134.382248	-20.060198
 114	1.1400e-001	135.526657	-19.375515
 115	1.1500e-001	136.947632	-18.358709
 116	1.1600e-001	137.882233	-17.576944
 117	1.1700e-001	138.978958	-16.611234
 118	1.1800e-001	140.466690	-15.349168
 119	1.1900e-001	141.534805	-14.311924
 120	1.2000e-001	142.793655	-13.325776
 121	1.2100e-001	144.042969	-12.176121
 122	1.2200e-001	145.072937	-10.914056
 123	1.2300e-001	146.274567	-9.554908
 124	1.2400e-001	147.619247	-8.395034
 125	1.2500e-001	148.582458	-6.908148
 126	1.2600e-001	149.908066	-5.451918
 127	1.2700e-001	151.014328	-4.046785
 128	1.2800e-001	151.987076	-2.631432
 129	1.2900e-001	153.512955	-0.878847
 130	1.3000e-001	154.495239	0.725560
 131	1.3100e-001	155.715942	2.355515
 132	1.3200e-001	157.003403	3.750429
 133	1.3300e-001	158.414841	5.942438
 134	1.3400e-001	159.444809	7.597941
 135	1.3500e-001	160.636902	9.534470
 136	1.3600e-001	161.685944	11.200192
 137	1.3700e-001	163.087845	13.325776
 138	1.3800e-001	164.289474	15.338949
 139	1.3900e-001	165.386200	17.122191
 140	1.4000e-001	166.549683	19.196680
 141	1.4100e-001	167.684555	21.158757
 142	1.4200e-001	168.924332	23.033972
 143	1.4300e-001	169.916153	25.082912
 144	1.4400e-001	171.546936	27.075647
 145	1.4500e-001	172.491074	28.981519
 146	1.4600e-001	173.845291	30.795419
 147	1.4700e-001	175.113678	32.645085
 148	1.4800e-001	175.695419	34.188178
 149	1.4900e-001	177.564621	36.129817
 150	1.5000e-001	178.680420	38.148099
 151	1.5100e-001	179.738998	39.113809
 152	1.5200e-001	181.121826	40.314560
 153	1.5300e-001	182.428360	41.632831
 154	1.5400e-001	183.448792	42.721171
 155	1.5500e-001	184.812546	43.579579
 156	1.5600e-001	186.405182	44.248934
 157	1.5700e-001	187.273026	44.938727
 158	1.5800e-001	188.550949	45.240192
 159	1.5900e-001	189.752579	45.710273
 160	1.6000e-001	190.792084	45.710273
 161	1.6100e-001	192.127228	46.435833
 162	1.6200e-001	193.309784	46.262107
 163	1.6300e-001	194.501877	46.359189
 164	1.6400e-001	195.102692	46.231450
 165	1.6500e-001	197.086334	46.517586
 166	1.6600e-001	198.125839	46.512477
 167	1.6700e-001	199.537277	46.609558
 168	1.6800e-001	200.614929	46.946791
 169	1.6900e-001	201.520920	46.803722
 170	1.7000e-001	202.922821	46.686202
 171	1.7100e-001	204.229355	46.870147
 172	1.7200e-001	205.326080	46.819051
 173	1.7300e-001	206.556320	46.916133
 174	1.7400e-001	207.719803	46.962119
 175	1.7500e-001	208.816528	46.936571
 176	1.7600e-001	210.399628	47.186941
 177	1.7700e-001	211.629868	47.028544
 178	1.7800e-001	212.478638	47.048982
 179	1.7900e-001	213.918686	47.197160
 180	1.8000e-001	215.272903	47.406652
 181	1.8100e-001	215.997696	47.100078
 182	1.8200e-001	217.361450	47.335118
 183	1.8300e-001	218.667984	47.365776
 184	1.8400e-001	219.640732	47.319790
 185	1.8500e-001	221.166611	47.427091
 186	1.8600e-001	222.330093	47.227817
 187	1.8700e-001	223.121643	47.462858
 188	1.8800e-001	224.542618	47.544611
 189	1.8900e-001	225.896835	47.539501
 190	1.9000e-001	226.802826	47.616145
 191	1.9100e-001	228.061676	47.529282
 192	1.9200e-001	229.539871	47.605926
 193	1.9300e-001	230.169296	47.667241
 194	1.9400e-001	231.761932	47.692789
 195	1.9500e-001	233.030319	47.764323
 196	1.9600e-001	234.413147	47.963596
 197	1.9700e-001	235.271454	47.738775
 198	1.9800e-001	236.644745	47.866514
 199	1.9900e-001	237.560272	48.014692
 200	2.0000e-001	239.009857	47.958487
 201	2.0100e-001	240.325928	48.004473
 202	2.0200e-001	241.231918	47.989144
 203	2.0300e-001	242.767334	47.927829
 204	2.0400e-001	243.844986	47.994254
 205	2.0500e-001	244.760513	48.270171
 206	2.0600e-001	246.362686	48.183308
 207	2.0700e-001	246.572495	48.157760
 208	2.0800e-001	247.774124	48.198637
 209	2.0900e-001	249.795914	48.167979
 210	2.1000e-001	250.606537	48.203746
 211	2.1100e-001	252.075195	48.300828
 212	2.1200e-001	253.658295	48.275280
 213	2.1300e-001	254.707336	48.224185
 214	2.1400e-001	255.594254	48.571636
 215	2.1500e-001	256.986618	48.489883
 216	2.1600e-001	258.398056	48.494992
 217	2.1700e-001	258.970261	48.576745
 218	2.1800e-001	260.620117	48.592074
 219	2.1900e-001	261.793137	48.730033
 220	2.2000e-001	262.956619	48.694266
 221	2.2100e-001	264.301300	48.765800
 222	2.2200e-001	265.197754	48.760690
 223	2.2300e-001	266.180038	49.011060
 224	2.2400e-001	267.753601	48.837334
 225	2.2500e-001	269.031525	48.857772
 226	2.2600e-001	270.223618	48.954854
 227	2.2700e-001	271.120071	48.847553
 228	2.2800e-001	272.607803	49.082594
 229	2.2900e-001	273.704529	49.067265
 230	2.3000e-001	274.801254	49.082594
 231	2.3100e-001	276.327133	48.975292
 232	2.3200e-001	277.271271	49.103032
 233	2.3300e-001	278.539658	49.082594
 234	2.3400e-001	279.827118	49.261429
 235	2.3500e-001	281.028748	49.179676
 236	2.3600e-001	282.211304	49.343182
 237	2.3700e-001	283.403397	49.271648
 238	2.3800e-001	284.233093	49.404497
 239	2.3900e-001	285.844803	49.312525
 240	2.4000e-001	287.046432	49.133689
 241	2.4100e-001	288.286209	49.424935
 242	2.4200e-001	289.497375	49.292086
 243	2.4300e-001	290.126801	49.378949
 244	2.4400e-001	291.919708	49.496469
 245	2.4500e-001	292.863846	49.639537
 246	2.4600e-001	294.170380	49.532236
 247	2.4700e-001	295.076370	49.460702
 248	2.4800e-001	296.421051	49.726400
 249	2.4900e-001	298.032761	49.578223
 250	2.5000e-001	298.957825	49.649757
 251	2.5100e-001	300.283432	49.833701
 252	2.5200e-001	299.139023	49.782606
 253	2.5300e-001	298.509598	50.099399
 254	2.5400e-001	296.792984	49.675304
 255	2.5500e-001	295.572281	49.659976
 256	2.5600e-001	294.637680	49.562894
 257	2.5700e-001	293.207169	49.496469
 258	2.5800e-001	291.614532	49.322744
 259	2.5900e-001	290.822983	49.675304
 260	2.6000e-001	289.640427	49.583332
 261	2.6100e-001	288.372040	49.624209
 262	2.6200e-001	287.294388	49.557784
 263	2.6300e-001	286.121368	49.568003
 264	2.6400e-001	284.843445	49.562894
 265	2.6500e-001	283.727646	49.588442
 266	2.6600e-001	282.573700	49.552675
 267	2.6700e-001	280.752182	49.327853
 268	2.6800e-001	280.323029	49.522017
 269	2.6900e-001	278.711319	49.424935
 270	2.7000e-001	277.671814	49.399387
 271	2.7100e-001	276.775360	49.501579
 272	2.7200e-001	275.239944	49.118361
 273	2.7300e-001	274.095535	49.358511
 274	2.7400e-001	273.199081	49.491360
 275	2.7500e-001	271.577835	49.404497
 276	2.7600e-001	270.414352	49.312525
 277	2.7700e-001	269.393921	49.465812
 278	2.7800e-001	267.887115	49.251210
 279	2.7900e-001	266.752243	49.353401
 280	2.8000e-001	265.865326	49.358511
 281	2.8100e-001	264.329910	49.195004
 282	2.8200e-001	263.214111	49.332963
 283	2.8300e-001	262.298584	49.373839
 284	2.8400e-001	260.877609	49.184785
 285	2.8500e-001	259.141922	49.016169
 286	2.8600e-001	258.674622	49.138799
 287	2.8700e-001	257.225037	49.041717
 288	2.8800e-001	255.985260	49.230771
 289	2.8900e-001	255.212784	49.251210
 290	2.9000e-001	253.496170	48.954854
 291	2.9100e-001	252.265930	49.128580
 292	2.9200e-001	251.302719	48.873101
 293	2.9300e-001	249.986649	49.057046
 294	2.9400e-001	248.794556	48.959964
 295	2.9500e-001	247.840881	49.005950
 296	2.9600e-001	246.458054	49.021279
 297	2.9700e-001	245.056152	48.975292
 298	2.9800e-001	244.235992	49.005950
 299	2.9900e-001	242.767334	48.954854
 300	3.0000e-001	241.537094	48.852663
 301	3.0100e-001	240.650177	48.908868
 302	3.0200e-001	239.372253	48.919087
 303	3.0300e-001	238.246918	48.684047
 304	3.0400e-001	237.026215	48.903758
 305	3.0500e-001	235.567093	48.939525
 306	3.0600e-001	234.632492	48.867991
 307	3.0700e-001	233.345032	48.852663
 308	3.0800e-001	232.105255	48.893539
 309	3.0900e-001	230.979919	48.704485
 310	3.1000e-001	229.845047	48.760690
 311	3.1100e-001	228.309631	48.786238
 312	3.1200e-001	227.193832	48.546088
 313	3.1300e-001	226.202011	48.776019
 314	3.1400e-001	224.990845	48.745362
 315	3.1500e-001	223.684311	48.561417
 316	3.1600e-001	222.702026	48.673827
 317	3.1700e-001	221.233368	48.561417
 318	3.1800e-001	220.079422	48.397910
 319	3.1900e-001	219.125748	48.730033
 320	3.2000e-001	217.647552	48.622732
 321	3.2100e-001	217.351913	48.663608
 322	3.2200e-001	215.311050	48.484773
 323	3.2300e-001	214.147568	48.494992
 324	3.2400e-001	212.841034	48.484773
 325	3.2500e-001	211.524963	48.459225
 326	3.2600e-001	210.409164	48.377472
 327	3.2700e-001	209.426880	48.372362
 328	3.2800e-001	208.129883	48.500102
 329	3.2900e-001	207.014084	48.530759
 330	3.3000e-001	205.898285	48.280390
 331	3.3100e-001	204.582214	48.428568
 332	3.3200e-001	203.399658	48.162870
 333	3.3300e-001	202.236176	48.224185
 334	3.3400e-001	200.843811	48.239513
 335	3.3500e-001	199.680328	48.060678
 336	3.3600e-001	198.507309	48.305938
 337	3.3700e-001	197.124481	48.178199
 338	3.3800e-001	196.075439	48.142431
 339	3.3900e-001	194.120407	47.713227
 340	3.4000e-001	193.376541	48.004473
 341	3.4100e-001	192.413330	47.999363
 342	3.4200e-001	191.354752	48.403020
 343	3.4300e-001	189.971924	48.157760
 344	3.4400e-001	189.037323	47.989144
 345	3.4500e-001	187.721252	48.096445
 346	3.4600e-001	186.319351	47.938048
 347	3.4700e-001	185.232162	47.963596
 348	3.4800e-001	184.278488	47.897172
 349	3.4900e-001	182.437897	47.902281
 350	3.5000e-001	181.961060	47.897172
 351	3.5100e-001	180.597305	48.014692
 352	3.5200e-001	179.138184	47.861405
 353	3.5300e-001	178.022385	47.907391
 354	3.5400e-001	176.944733	47.728556
 355	3.5500e-001	175.428391	47.789871
 356	3.5600e-001	174.703598	47.682570
 357	3.5700e-001	173.711777	47.922720
 358	3.5800e-001	171.747208	47.774542
 359	3.5900e-001	170.831680	47.784761
 360	3.6000e-001	169.715881	47.626364
 361	3.6100e-001	168.170929	47.600816
 362	3.6200e-001	167.407990	47.636583
 363	3.6300e-001	166.130066	47.534392
 364	3.6400e-001	164.175034	47.401543
 365	3.6500e-001	163.688660	47.565049
 366	3.6600e-001	162.382126	47.524173
 367	3.6700e-001	160.961151	47.559940
 368	3.6800e-001	160.007477	47.478186
 369	3.6900e-001	158.777237	47.473077
 370	3.7000e-001	157.489777	47.508844
 371	3.7100e-001	156.402588	47.355557
 372	3.7200e-001	155.353546	47.355557
 373	3.7300e-001	153.894424	47.401543
 374	3.7400e-001	152.854919	47.432200
 375	3.7500e-001	152.025223	47.595707
 376	3.7600e-001	150.032043	47.314680
 377	3.7700e-001	149.259567	47.217598
 378	3.7800e-001	148.248672	47.166502
 379	3.7900e-001	147.237778	47.539501
 380	3.8000e-001	145.626068	47.161393
 381	3.8100e-001	144.443512	47.120516
 382	3.8200e-001	143.013000	47.197160
 383	3.8300e-001	142.240524	47.115407
 384	3.8400e-001	141.048431	47.028544
 385	3.8500e-001	139.513016	47.002996
 386	3.8600e-001	138.463974	47.008105
 387	3.8700e-001	137.319565	46.778174
 388	3.8800e-001	135.850906	47.002996
 389	3.8900e-001	135.040283	46.926352
 390	3.9000e-001	133.638382	46.946791
 391	3.9100e-001	132.303238	46.921243
 392	3.9200e-001	131.244659	46.900804
 393	3.9300e-001	130.395889	46.721969
 394	3.9400e-001	128.593445	46.829270
 395	3.9500e-001	127.840042	46.829270
 396	3.9600e-001	126.438141	46.701531
 397	3.9700e-001	125.093460	46.931462
 398	3.9800e-001	124.149323	46.778174
 399	3.9900e-001	122.890472	46.548244
 400	4.0000e-001	121.650696	46.727079
 401	4.0100e-001	120.630264	46.640216
 402	4.0200e-001	119.285583	46.538024
 403	4.0300e-001	118.017197	46.686202
 404	4.0400e-001	116.939545	46.614668
 405	4.0500e-001	115.671158	46.486929
 406	4.0600e-001	114.641190	46.435833
 407	4.0700e-001	113.210678	46.492038
 408	4.0800e-001	112.171173	46.456271
 409	4.0900e-001	110.177994	45.960642
 410	4.1000e-001	109.882355	46.532915
 411	4.1100e-001	107.975006	46.119039
 412	4.1200e-001	107.259750	46.277436
 413	4.1300e-001	106.182098	46.430723
 414	4.1400e-001	105.085373	46.599339
 415	4.1500e-001	103.750229	46.251888
 416	4.1600e-001	102.396011	46.180354
 417	4.1700e-001	101.356506	46.313203
 418	4.1800e-001	100.212097	46.139477
 419	4.1900e-001	98.848343	46.323422
 420	4.2000e-001	97.579956	45.960642
 421	4.2100e-001	96.540451	46.088382
 422	4.2200e-001	95.005035	46.052615
 423	4.2300e-001	94.184875	45.945313
 424	4.2400e-001	93.555450	46.231450
 425	4.2500e-001	91.667175	46.062834
 426	4.2600e-001	90.665817	45.970861
 427	4.2700e-001	89.464188	45.940204
 428	4.2800e-001	88.043213	45.924875
 429	4.2900e-001	86.002350	45.597862
 430	4.3000e-001	85.945129	45.792026
 431	4.3100e-001	84.457397	45.751150
 432	4.3200e-001	83.293915	45.694944
 433	4.3300e-001	82.054138	45.838012
 434	4.3400e-001	80.862045	45.970861
 435	4.3500e-001	78.926086	45.592753
 436	4.3600e-001	78.916550	45.541657
 437	4.3700e-001	77.295303	45.567205
 438	4.3800e-001	76.217651	45.521219
 439	4.3900e-001	74.968338	45.551876
 440	4.4000e-001	73.595047	45.608081
 441	4.4100e-001	72.650909	45.475232
 442	4.4200e-001	71.382523	45.531438
 443	4.4300e-001	70.018768	45.720492
 444	4.4400e-001	68.769455	45.398589
 445	4.4500e-001	67.853928	45.378150
 446	4.4600e-001	66.442490	45.311726
 447	4.4700e-001	64.163208	45.061357
 448	4.4800e-001	64.392090	45.219754
 449	4.4900e-001	62.799454	45.347493
 450	4.5000e-001	61.874390	45.352603
 451	4.5100e-001	60.653687	45.117562
 452	4.5200e-001	59.194565	45.127781
 453	4.5300e-001	57.945251	45.138000
 454	4.5400e-001	57.058334	45.081795
 455	4.5500e-001	55.418015	44.984713
 456	4.5600e-001	54.388046	45.107343
 457	4.5700e-001	53.415298	44.948946
 458	4.5800e-001	51.965714	44.872302
 459	4.5900e-001	50.697327	44.959165
 460	4.6000e-001	49.934387	44.984713
 461	4.6100e-001	48.484802	44.892741
 462	4.6200e-001	47.292709	44.816097
 463	4.6300e-001	46.443939	44.749673
 464	4.6400e-001	44.660568	44.688358
 465	4.6500e-001	42.715073	44.606604
 466	4.6600e-001	42.848587	44.642371
 467	4.6700e-001	41.265488	44.652591
 468	4.6800e-001	39.911270	44.637262
 469	4.6900e-001	39.062500	44.540180
 470	4.7000e-001	37.517548	44.473755
 471	4.7100e-001	36.525726	44.545289
 472	4.7200e-001	35.476685	44.432879
 473	4.7300e-001	33.912659	44.509522
 474	4.7400e-001	32.815933	44.437988
 475	4.7500e-001	31.757355	44.233605
 476	4.7600e-001	30.250549	44.412440
 477	4.7700e-001	29.087067	44.233605
 478	4.7800e-001	28.295517	44.177400
 479	4.7900e-001	26.760101	44.254044
 480	4.8000e-001	25.720596	44.167181
 481	4.8100e-001	24.805069	44.075208
 482	4.8200e-001	23.231506	44.024113
 483	4.8300e-001	20.952225	43.896373
 484	4.8400e-001	20.847321	44.054770
 485	4.8500e-001	19.397736	43.799291
 486	4.8600e-001	18.405914	43.870825
 487	4.8700e-001	17.461777	43.932140
 488	4.8800e-001	16.098022	43.814620
 489	4.8900e-001	14.858246	43.778853
 490	4.9000e-001	13.694763	43.513155
 491	4.9100e-001	12.483597	43.743086
 492	4.9200e-001	11.224747	43.610237
 493	4.9300e-001	10.175705	43.656223
 494	4.9400e-001	8.993149	43.594908
 495	4.9500e-001	7.619858	43.615347
 496	4.9600e-001	6.504059	43.554032
 497	4.9700e-001	5.130768	43.523374
 498	4.9800e-001	4.100800	43.462059
 499	4.9900e-001	2.641678	43.375196
 500	5.0000e-001	1.630783	43.416073
 501	5.0100e-001	-0.438690	43.221909
 502	5.0200e-001	-0.762939	43.262786
 503	5.0300e-001	-1.897812	43.129937
 504	5.0400e-001	-3.089905	43.262786
 505	5.0500e-001	-4.234314	42.930663
 506	5.0600e-001	-5.397797	43.058403
 507	5.0700e-001	-6.513596	43.114608
 508	5.0800e-001	-7.944107	42.997088
 509	5.0900e-001	-8.945465	42.951102
 510	5.1000e-001	-10.232925	42.991978
 511	5.1100e-001	-12.245178	42.690513
 512	5.1200e-001	-12.693405	42.721171
 513	5.1300e-001	-13.809204	42.787595
 514	5.1400e-001	-15.039444	42.731390
 515	5.1500e-001	-16.155243	42.654746
 516	5.1600e-001	-17.538071	42.710951
 517	5.1700e-001	-18.663406	42.327733
 518	5.1800e-001	-19.779205	42.501459
 519	5.1900e-001	-21.886826	42.276637
 520	5.2000e-001	-22.134781	42.409486
 521	5.2100e-001	-23.612976	42.383939
 522	5.2200e-001	-24.652481	42.189775
 523	5.2300e-001	-25.968552	42.210213
 524	5.2400e-001	-27.227402	42.169336
 525	5.2500e-001	-28.114319	41.954734
 526	5.2600e-001	-28.753281	42.067145
 527	5.2700e-001	-30.565262	41.934296
 528	5.2800e-001	-31.871796	41.918967
 529	5.2900e-001	-32.987595	41.775899
 530	5.3000e-001	-34.303665	41.714584
 531	5.3100e-001	-35.276413	41.699255
 532	5.3200e-001	-36.792755	41.535749
 533	5.3300e-001	-37.603378	41.402900
 534	5.3400e-001	-38.909912	41.259832
 535	5.3500e-001	-40.349960	41.208736
 536	5.3600e-001	-41.465759	41.111654
 537	5.3700e-001	-42.867661	41.086106
 538	5.3800e-001	-44.031143	40.830627
 539	5.3900e-001	-45.280457	40.733545
 540	5.4000e-001	-46.157837	40.692669
 541	5.4100e-001	-47.588348	40.452519
 542	5.4200e-001	-48.589706	40.360546
 543	5.4300e-001	-49.962997	40.089739
 544	5.4400e-001	-51.107407	39.992657
 545	5.4500e-001	-52.185059	39.660534
 546	5.4600e-001	-52.528381	39.563452
 547	5.4700e-001	-54.721832	39.267097
 548	5.4800e-001	-55.828094	39.052495
 549	5.4900e-001	-57.058334	38.669276
 550	5.5000e-001	-58.135986	38.408688
 551	5.5100e-001	-59.442520	38.102113
 552	5.5200e-001	-60.539246	37.749553
 553	5.5300e-001	-61.693192	37.458307
 554	5.5400e-001	-63.047409	37.100636
 555	5.5500e-001	-64.907074	36.497706
 556	5.5600e-001	-65.116882	36.109378
 557	5.5700e-001	-67.348480	35.368490
 558	5.5800e-001	-67.920685	34.969943
 559	5.5900e-001	-68.855286	34.412999
 560	5.6000e-001	-70.133209	33.794740
 561	5.6100e-001	-71.449280	33.058961
 562	5.6200e-001	-72.307587	32.496908
 563	5.6300e-001	-73.699951	31.658937
 564	5.6400e-001	-74.710846	30.856734
 565	5.6500e-001	-76.036453	30.018763
 566	5.6600e-001	-77.295303	29.288094
 567	5.6700e-001	-78.630447	28.174206
 568	5.6800e-001	-79.574585	27.162510
 569	5.6900e-001	-80.814362	26.017964
 570	5.7000e-001	-82.168579	24.965392
 571	5.7100e-001	-83.189011	23.739093
 572	5.7200e-001	-84.362030	22.410603
 573	5.7300e-001	-84.867477	21.516427
 574	5.7400e-001	-86.565018	19.850705
 575	5.7500e-001	-87.690353	18.399586
 576	5.7600e-001	-88.815689	17.091534
 577	5.7700e-001	-90.417862	15.257196
 578	5.7800e-001	-91.476440	13.678337
 579	5.7900e-001	-92.706680	12.058601
 580	5.8000e-001	-93.679428	10.188496
 581	5.8100e-001	-95.119476	8.415473
 582	5.8200e-001	-96.282959	6.622011
 583	5.8300e-001	-97.236633	4.573071
 584	5.8400e-001	-98.533630	2.656980
 585	5.8500e-001	-99.954605	0.761327
 586	5.8600e-001	-100.774765	-1.446010
 587	5.8700e-001	-102.081299	-3.551156
 588	5.8800e-001	-102.777481	-5.656301
 589	5.8900e-001	-104.322433	-7.832981
 590	5.9000e-001	-105.781555	-9.973894
 591	5.9100e-001	-106.439590	-11.757136
 592	5.9200e-001	-108.032227	-14.281267
 593	5.9300e-001	-109.462738	-16.253563
 594	5.9400e-001	-110.597610	-18.358709
 595	5.9500e-001	-111.570358	-20.310567
 596	5.9600e-001	-113.048553	-22.257316
 597	5.9700e-001	-114.488602	-24.030339
 598	5.9800e-001	-115.346909	-25.690952
 599	5.9900e-001	-116.815567	-27.234044
 600	6.0000e-001	-118.007660	-28.802684
 601	6.0100e-001	-119.066238	-29.988106
 602	6.0200e-001	-120.286942	-31.265500
 603	6.0300e-001	-121.793747	-32.435593
 604	6.0400e-001	-122.900009	-33.477946
 605	6.0500e-001	-124.101639	-34.315917
 606	6.0600e-001	-125.923157	-35.250970
 607	6.0700e-001	-126.428604	-35.813023
 608	6.0800e-001	-128.068924	-36.441501
 609	6.0900e-001	-128.726959	-37.259033
 610	6.1000e-001	-130.023956	-37.662690
 611	6.1100e-001	-131.340027	-38.091894
 612	6.1200e-001	-132.532120	-38.597742
 613	6.1300e-001	-133.600235	-38.909426
 614	6.1400e-001	-135.097504	-39.292645
 615	6.1500e-001	-136.251450	-39.686082
 616	6.1600e-001	-137.290955	-39.982438
 617	6.1700e-001	-138.654709	-40.278793
 618	6.1800e-001	-139.789581	-40.421861
 619	6.1900e-001	-140.705109	-40.626244
 620	6.2000e-001	-142.145157	-40.958367
 621	6.2100e-001	-143.871307	-41.045229
 622	6.2200e-001	-144.548416	-41.336475
 623	6.2300e-001	-145.902634	-41.586845
 624	6.2400e-001	-146.989822	-41.719694
 625	6.2500e-001	-148.115158	-42.031378
 626	6.2600e-001	-149.383545	-42.138679
 627	6.2700e-001	-151.233673	-42.491240
 628	6.2800e-001	-151.538849	-42.552555
 629	6.2900e-001	-153.083801	-42.629198
 630	6.3000e-001	-154.199600	-42.659856
 631	6.3100e-001	-155.315399	-42.751828
 632	6.3200e-001	-156.517029	-43.232128
 633	6.3300e-001	-157.804489	-43.124827
 634	6.3400e-001	-158.920288	-43.339429
 635	6.3500e-001	-160.245895	-43.502936
 636	6.3600e-001	-161.428452	-43.145265
 637	6.3700e-001	-162.582397	-43.615347
 638	6.3800e-001	-163.774490	-43.727757
 639	6.3900e-001	-164.871216	-43.707319
 640	6.4000e-001	-166.187286	-43.973017
 641	6.4100e-001	-167.417526	-44.218277
 642	6.4200e-001	-168.685913	-44.059880
 643	6.4300e-001	-169.706345	-44.259153
 644	6.4400e-001	-170.888901	-44.233605
 645	6.4500e-001	-171.470642	-44.003674
 646	6.4600e-001	-172.662735	-44.223386
 647	6.4700e-001	-174.608231	-44.458427
 648	6.4800e-001	-175.600052	-44.673029
 649	6.4900e-001	-177.106857	-44.632152
 650	6.5000e-001	-178.194046	-44.596385
 651	6.5100e-001	-179.462433	-44.964275
 652	6.5200e-001	-180.807114	-44.948946
 653	6.5300e-001	-181.741714	-44.627043
 654	6.5400e-001	-182.933807	-45.076685
 655	6.5500e-001	-184.164047	-45.235082
 656	6.5600e-001	-185.356140	-45.209534
 657	6.5700e-001	-186.548233	-45.235082
 658	6.5800e-001	-187.911987	-45.306616
 659	6.5900e-001	-189.037323	-45.413918
 660	6.6000e-001	-190.134048	-45.413918
 661	6.6100e-001	-191.469193	-45.505890
 662	6.6200e-001	-192.575455	-45.577424
 663	6.6300e-001	-193.939209	-45.924875
 664	6.6400e-001	-195.226669	-45.648958
 665	6.6500e-001	-196.123123	-45.981081
 666	6.6600e-001	-197.286606	-45.935094
 667	6.6700e-001	-198.688507	-45.848232
 668	6.6800e-001	-199.975967	-45.919766
 669	6.6900e-001	-200.881958	-45.955533
 670	6.7000e-001	-202.960968	-46.573791
 671	6.7100e-001	-203.495026	-46.124149
 672	6.7200e-001	-204.639435	-46.231450
 673	6.7300e-001	-205.926895	-46.144587
 674	6.7400e-001	-207.223892	-46.267217
 675	6.7500e-001	-208.272934	-46.236559
 676	6.7600e-001	-209.569931	-46.819051
 677	6.7700e-001	-210.561752	-46.446052
 678	6.7800e-001	-211.734772	-46.348970
 679	6.7900e-001	-213.127136	-46.589120
 680	6.8000e-001	-214.195251	-46.624887
 681	6.8100e-001	-214.738846	-46.548244
 682	6.8200e-001	-217.065811	-46.701531
 683	6.8300e-001	-217.790604	-46.870147
 684	6.8400e-001	-218.992233	-46.788394
 685	6.8500e-001	-220.508575	-46.926352
 686	6.8600e-001	-221.471786	-46.936571
 687	6.8700e-001	-222.749710	-47.023434
 688	6.8800e-001	-223.846436	-47.018325
 689	6.8900e-001	-225.172043	-47.284023
 690	6.9000e-001	-226.259232	-47.008105
 691	6.9100e-001	-227.661133	-47.651912
 692	6.9200e-001	-228.805542	-47.018325
 693	6.9300e-001	-229.721069	-47.350447
 694	6.9400e-001	-231.227875	-47.386214
 695	6.9500e-001	-232.372284	-47.345338
 696	6.9600e-001	-233.459473	-47.299351
 697	6.9700e-001	-234.842300	-47.360666
 698	6.9800e-001	-235.805511	-47.519063
 699	6.9900e-001	-236.797333	-47.473077
 700	7.0000e-001	-238.409042	-47.697898
 701	7.0100e-001	-239.963531	-48.101555
 702	7.0200e-001	-240.354538	-47.978925
 703	7.0300e-001	-241.909027	-47.794980
 704	7.0400e-001	-243.148804	-47.784761
 705	7.0500e-001	-244.388580	-47.764323
 706	7.0600e-001	-245.733261	-47.881843
 707	7.0700e-001	-246.667862	-48.127103
 708	7.0800e-001	-247.802734	-48.009582
 709	7.0900e-001	-249.185562	-48.014692
 710	7.1000e-001	-250.120163	-48.004473
 711	7.1100e-001	-251.598358	-48.106664
 712	7.1200e-001	-252.647400	-48.045350
 713	7.1300e-001	-253.620148	-48.132212
 714	7.1400e-001	-254.974365	-48.280390
 715	7.1500e-001	-256.385803	-48.367253
 716	7.1600e-001	-257.377625	-48.224185
 717	7.1700e-001	-258.865356	-48.515431
 718	7.1800e-001	-260.076523	-48.341705
 719	7.1900e-001	-261.135101	-48.433677
 720	7.2000e-001	-262.432098	-48.525650
 721	7.2100e-001	-263.662338	-48.597184
 722	7.2200e-001	-264.739990	-48.607403
 723	7.2300e-001	-265.846252	-48.653389
 724	7.2400e-001	-267.181396	-48.663608
 725	7.2500e-001	-268.192291	-48.658499
 726	7.2600e-001	-269.594193	-48.786238
 727	7.2700e-001	-270.519257	-48.924197
 728	7.2800e-001	-271.492004	-48.776019
 729	7.2900e-001	-273.323059	-48.939525
 730	7.3000e-001	-274.181366	-48.929306
 731	7.3100e-001	-275.430679	-48.765800
 732	7.3200e-001	-275.936127	-48.709594
 733	7.3300e-001	-277.948380	-48.832224
 734	7.3400e-001	-278.959274	-49.016169
 735	7.3500e-001	-280.361176	-49.179676
 736	7.3600e-001	-281.429291	-49.281867
 737	7.3700e-001	-282.611847	-49.332963
 738	7.3800e-001	-284.118652	-49.317634
 739	7.3900e-001	-285.100937	-49.097922
 740	7.4000e-001	-286.026001	-49.404497
 741	7.4100e-001	-287.570953	-49.348292
 742	7.4200e-001	-288.686752	-49.430045
 743	7.4300e-001	-290.012360	-49.476031
 744	7.4400e-001	-291.118622	-49.440264
 745	7.4500e-001	-292.158127	-49.685524
 746	7.4600e-001	-293.426514	-49.624209
 747	7.4700e-001	-294.675827	-49.659976
 748	7.4800e-001	-295.639038	-49.557784
 749	7.4900e-001	-297.279358	-49.721291
 750	7.5000e-001	-298.213959	-49.777496
 751	7.5100e-001	-299.386978	-49.803044
 752	7.5200e-001	-298.471451	-49.772386
 753	7.5300e-001	-297.317505	-49.624209
 754	7.5400e-001	-296.049118	-49.787715
 755	7.5500e-001	-294.857025	-49.767277
 756	7.5600e-001	-293.750763	-49.741729
 757	7.5700e-001	-292.501450	-49.751948
 758	7.5800e-001	-291.404724	-49.670195
 759	7.5900e-001	-290.079117	-49.629318
 760	7.6000e-001	-288.505554	-49.670195
 761	7.6100e-001	-287.694931	-49.823482
 762	7.6200e-001	-286.636353	-49.757058
 763	7.6300e-001	-284.681320	-49.256319
 764	7.6400e-001	-284.280777	-49.378949
 765	7.6500e-001	-282.993317	-49.613990
 766	7.6600e-001	-281.572342	-49.532236
 767	7.6700e-001	-280.637741	-49.634428
 768	7.6800e-001	-279.312134	-50.155605
 769	7.6900e-001	-278.081894	-49.573113
 770	7.7000e-001	-276.813507	-49.568003
 771	7.7100e-001	-275.878906	-49.552675
 772	7.7200e-001	-274.305344	-49.465812
 773	7.7300e-001	-273.437500	-49.619099
 774	7.7400e-001	-272.197723	-49.522017
 775	7.7500e-001	-270.729065	-49.343182
 776	7.7600e-001	-269.746780	-49.368730
 777	7.7700e-001	-268.602371	-49.394278
 778	7.7800e-001	-267.133713	-49.399387
 779	7.7900e-001	-266.065598	-49.332963
 780	7.8000e-001	-264.911652	-49.435154
 781	7.8100e-001	-263.586044	-49.522017
 782	7.8200e-001	-262.699127	-49.363620
 783	7.8300e-001	-261.659622	-49.343182
 784	7.8400e-001	-260.543823	-49.542455
 785	7.8500e-001	-259.075165	-49.322744
 786	7.8600e-001	-257.797241	-49.286977
 787	7.8700e-001	-256.547928	-49.343182
 788	7.8800e-001	-255.165100	-49.184785
 789	7.8900e-001	-254.201889	-49.087703
 790	7.9000e-001	-252.838135	-49.210333
 791	7.9100e-001	-251.493454	-49.092813
 792	7.9200e-001	-250.520706	-49.195004
 793	7.9300e-001	-249.204636	-49.138799
 794	7.9400e-001	-248.184204	-49.036607
 795	7.9500e-001	-247.039795	-49.154128
 796	7.9600e-001	-245.637894	-49.051936
 797	7.9700e-001	-244.522095	-49.021279
 798	7.9800e-001	-243.310928	-49.000840
 799	7.9900e-001	-241.909027	-49.138799
 800	8.0000e-001	-240.907669	-49.128580
 801	8.0100e-001	-239.686966	-49.031498
 802	8.0200e-001	-238.447189	-49.021279
 803	8.0300e-001	-237.293243	-48.954854
 804	8.0400e-001	-236.101151	-48.903758
 805	8.0500e-001	-234.889984	-48.965073
 806	8.0600e-001	-233.612061	-48.944635
 807	8.0700e-001	-232.648849	-48.842443
 808	8.0800e-001	-231.227875	-48.755581
 809	8.0900e-001	-230.121613	-48.796457
 810	8.1000e-001	-229.263306	-48.878211
 811	8.1100e-001	-227.766037	-48.791348
 812	8.1200e-001	-226.535797	-48.791348
 813	8.1300e-001	-225.162506	-48.719814
 814	8.1400e-001	-224.208832	-48.745362
 815	8.1500e-001	-222.835541	-48.643170
 816	8.1600e-001	-221.700668	-48.632951
 817	8.1700e-001	-220.527649	-48.699375
 818	8.1800e-001	-219.211578	-48.566526
 819	8.1900e-001	-218.133926	-48.632951
 820	8.2000e-001	-216.999054	-48.627841
 821	8.2100e-001	-215.425491	-48.653389
 822	8.2200e-001	-214.185715	-48.515431
 823	8.2300e-001	-213.336945	-48.474554
 824	8.2400e-001	-212.049484	-48.489883
 825	8.2500e-001	-211.544037	-49.021279
 826	8.2600e-001	-209.693909	-48.351924
 827	8.2700e-001	-208.673477	-48.346815
 828	8.2800e-001	-207.290649	-48.494992
 829	8.2900e-001	-206.241608	-48.387691
 830	8.3000e-001	-204.906464	-48.469444
 831	8.3100e-001	-203.704834	-48.270171
 832	8.3200e-001	-202.636719	-48.367253
 833	8.3300e-001	-201.215744	-48.305938
 834	8.3400e-001	-200.176239	-48.275280
 835	8.3500e-001	-199.069977	-48.249733
 836	8.3600e-001	-197.658539	-48.249733
 837	8.3700e-001	-196.580887	-48.198637
 838	8.3800e-001	-195.512772	-48.127103
 839	8.3900e-001	-194.044113	-48.178199
 840	8.4000e-001	-192.804337	-47.978925
 841	8.4100e-001	-192.270279	-48.326376
 842	8.4200e-001	-190.534592	-48.142431
 843	8.4300e-001	-189.228058	-47.938048
 844	8.4400e-001	-188.179016	-48.091336
 845	8.4500e-001	-186.672211	-48.030021
 846	8.4600e-001	-185.651779	-47.779652
 847	8.4700e-001	-184.516907	-47.994254
 848	8.4800e-001	-183.219910	-47.881843
 849	8.4900e-001	-181.932449	-47.815419
 850	8.5000e-001	-180.892944	-47.881843
 851	8.5100e-001	-179.653168	-47.774542
 852	8.5200e-001	-178.346634	-47.784761
 853	8.5300e-001	-177.316666	-47.825638
 854	8.5400e-001	-175.914764	-47.754104
 855	8.5500e-001	-174.684525	-47.605926
 856	8.5600e-001	-174.217224	-47.861405
 857	8.5700e-001	-172.595978	-47.585488
 858	8.5800e-001	-170.717239	-47.473077
 859	8.5900e-001	-170.269012	-47.718337
 860	8.6000e-001	-170.030594	-48.055569
 861	8.6100e-001	-167.675018	-47.605926
 862	8.6200e-001	-166.616440	-47.595707
 863	8.6300e-001	-165.281296	-47.452639
 864	8.6400e-001	-164.098740	-47.452639
 865	8.6500e-001	-163.021088	-47.503734
 866	8.6600e-001	-162.363052	-47.549721
 867	8.6700e-001	-160.369873	-47.498625
 868	8.6800e-001	-159.444809	-47.447529
 869	8.6900e-001	-158.147812	-47.427091
 870	8.7000e-001	-156.888962	-47.381105
 871	8.7100e-001	-155.591965	-47.140954
 872	8.7200e-001	-154.666901	-47.284023
 873	8.7300e-001	-153.331757	-47.314680
 874	8.7400e-001	-152.196884	-47.314680
 875	8.7500e-001	-150.871277	-47.309570
 876	8.7600e-001	-149.574280	-47.202269
 877	8.7700e-001	-148.754120	-47.120516
 878	8.7800e-001	-148.153305	-47.335118
 879	8.7900e-001	-146.160126	-46.967229
 880	8.8000e-001	-145.053864	-47.074530
 881	8.8100e-001	-143.585205	-46.967229
 882	8.8200e-001	-142.602921	-47.125626
 883	8.8300e-001	-141.429901	-46.967229
 884	8.8400e-001	-140.094757	-46.941681
 885	8.8500e-001	-138.902664	-46.962119
 886	8.8600e-001	-138.053894	-46.747517
 887	8.8700e-001	-136.470795	-46.951900
 888	8.8800e-001	-135.488510	-46.435833
 889	8.8900e-001	-134.143829	-46.824161
 890	8.9000e-001	-132.865906	-46.757736
 891	8.9100e-001	-131.692886	-46.793503
 892	8.9200e-001	-130.653381	-46.737298
 893	8.9300e-001	-129.346848	-46.640216
 894	8.9400e-001	-128.154755	-46.721969
 895	8.9500e-001	-127.048492	-46.589120
 896	8.9600e-001	-125.885010	-46.839489
 897	8.9700e-001	-124.626160	-46.599339
 898	8.9800e-001	-123.395920	-46.497148
 899	8.9900e-001	-122.022629	-46.532915
 900	9.0000e-001	-120.983124	-46.435833
 901	9.0100e-001	-120.010376	-46.553353
 902	9.0200e-001	-118.532181	-46.451162
 903	9.0300e-001	-117.340088	-46.435833
 904	9.0400e-001	-115.995407	-45.725602
 905	9.0500e-001	-114.898682	-46.364299
 906	9.0600e-001	-113.801956	-46.287655
 907	9.0700e-001	-112.380981	-46.241669
 908	9.0800e-001	-111.169815	-46.660654
 909	9.0900e-001	-110.158920	-46.154806
 910	9.1000e-001	-108.928680	-46.124149
 911	9.1100e-001	-107.870102	-46.124149
 912	9.1200e-001	-106.763840	-46.190573
 913	9.1300e-001	-105.581284	-45.929985
 914	9.1400e-001	-104.618073	-46.236559
 915	9.1500e-001	-103.015900	-45.991300
 916	9.1600e-001	-101.509094	-45.735821
 917	9.1700e-001	-100.603104	-45.924875
 918	9.1800e-001	-99.277496	-45.802245
 919	9.1900e-001	-98.037720	-45.628520
 920	9.2000e-001	-96.845627	-45.868670
 921	9.2100e-001	-95.701218	-45.827793
 922	9.2200e-001	-94.404221	-45.516109
 923	9.2300e-001	-93.517303	-45.679616
 924	9.2400e-001	-92.258453	-45.602972
 925	9.2500e-001	-90.818405	-45.628520
 926	9.2600e-001	-89.836121	-45.669396
 927	9.2700e-001	-88.853836	-45.725602
 928	9.2800e-001	-87.261200	-45.475232
 929	9.2900e-001	-86.135864	-45.485452
 930	9.3000e-001	-85.706711	-45.424137
 931	9.3100e-001	-83.465576	-45.306616
 932	9.3200e-001	-82.855225	-45.459904
 933	9.3300e-001	-81.424713	-45.352603
 934	9.3400e-001	-80.099106	-45.229973
 935	9.3500e-001	-78.649521	-45.163548
 936	9.3600e-001	-77.648163	-45.255521
 937	9.3700e-001	-76.360703	-45.148220
 938	9.3800e-001	-75.330734	-45.117562
 939	9.3900e-001	-74.186325	-45.505890
 940	9.4000e-001	-72.965622	-45.025590
 941	9.4100e-001	-71.716309	-45.000042
 942	9.4200e-001	-70.734024	-45.086905
 943	9.4300e-001	-69.236755	-44.867193
 944	9.4400e-001	-67.911148	-44.943836
 945	9.4500e-001	-66.738129	-44.831426
 946	9.4600e-001	-65.555573	-44.759892
 947	9.4700e-001	-64.620972	-44.790549
 948	9.4800e-001	-63.495636	-44.805878
 949	9.4900e-001	-61.950684	-44.596385
 950	9.5000e-001	-60.634613	-44.662810
 951	9.5100e-001	-59.814453	-44.606604
 952	9.5200e-001	-58.517456	-44.550399
 953	9.5300e-001	-57.420731	-44.432879
 954	9.5400e-001	-56.266785	-44.535070
 955	9.5500e-001	-54.845810	-44.545289
 956	9.5600e-001	-53.882599	-44.223386
 957	9.5700e-001	-52.595139	-44.437988
 958	9.5800e-001	-51.240921	-44.443098
 959	9.5900e-001	-49.819946	-43.881045
 960	9.6000e-001	-49.095154	-44.361345
 961	9.6100e-001	-47.578812	-44.116085
 962	9.6200e-001	-46.625137	-43.978126
 963	9.6300e-001	-45.394897	-44.054770
 964	9.6400e-001	-44.164658	-43.927031
 965	9.6500e-001	-43.001175	-43.886154
 966	9.6600e-001	-41.675568	-43.840168
 967	9.6700e-001	-40.407181	-43.835058
 968	9.6800e-001	-39.529800	-43.727757
 969	9.6900e-001	-38.328171	-43.829949
 970	9.7000e-001	-36.954880	-43.845277
 971	9.7100e-001	-35.829544	-43.661333
 972	9.7200e-001	-34.456253	-43.743086
 973	9.7300e-001	-33.378601	-43.523374
 974	9.7400e-001	-32.415390	-43.390525
 975	9.7500e-001	-30.641556	-43.472278
 976	9.7600e-001	-29.792786	-43.410963
 977	9.7700e-001	-28.581619	-43.252567
 978	9.7800e-001	-27.399063	-43.354758
 979	9.7900e-001	-26.102066	-43.083951
 980	9.8000e-001	-25.005341	-43.175923
 981	9.8100e-001	-23.698807	-43.211690
 982	9.8200e-001	-22.563934	-43.099279
 983	9.8300e-001	-21.305084	-42.971540
 984	9.8400e-001	-19.950867	-42.935773
 985	9.8500e-001	-19.378662	-42.910225
 986	9.8600e-001	-17.766953	-42.644527
 987	9.8700e-001	-16.136169	-42.884677
 988	9.8800e-001	-15.535355	-42.603650
 989	9.8900e-001	-13.866425	-42.332843
 990	9.9000e-001	-12.912750	-42.593431
 991	9.9100e-001	-11.863708	-42.521897
 992	9.9200e-001	-10.461807	-42.429925
 993	9.9300e-001	-9.307861	-42.475911
 994	9.9400e-001	-8.335114	-42.230651
 995	9.9500e-001	-7.028580	-42.327733
 996	9.9600e-001	-5.788803	-42.378829
 997	9.9700e-001	-4.396439	-42.199994
 998	9.9800e-001	-3.461838	-42.041597
 999	9.9900e-001	-2.174377	-42.016049
1000	1.0000e+000	-1.401901	-41.765680
1001	1.0010e+000	0.200272	-41.944515
1002	1.0020e+000	1.392365	-41.852543
1003	1.0030e+000	2.670288	-41.781009
1004	1.0040e+000	3.652573	-41.658379
1005	1.0050e+000	4.453659	-41.913857
1006	1.0060e+000	6.189346	-41.689036
1007	1.0070e+000	7.381439	-41.474434
1008	1.0080e+000	8.649826	-41.494872
1009	1.0090e+000	9.527206	-41.336475
1010	1.0100e+000	10.957718	-41.316037
1011	1.0110e+000	12.302399	-41.305818
1012	1.0120e+000	13.484955	-41.218955
1013	1.0130e+000	14.543533	-41.157640
1014	1.0140e+000	15.754700	-41.004353
1015	1.0150e+000	16.984940	-40.851066
1016	1.0160e+000	18.138885	-40.779531
1017	1.0170e+000	19.521713	-40.897052
1018	1.0180e+000	20.618439	-40.794860
1019	1.0190e+000	21.820068	-40.610915
1020	1.0200e+000	23.069382	-40.636463
1021	1.0210e+000	24.166107	-40.452519
1022	1.0220e+000	25.310516	-40.355437
1023	1.0230e+000	26.760101	-40.386094
1024	1.0240e+000	27.656555	-40.340108
1025	1.0250e+000	28.886795	-40.186821
1026	1.0260e+000	30.136108	-40.171492
1027	1.0270e+000	31.299591	-40.013095
1028	1.0280e+000	32.606125	-40.007985
1029	1.0290e+000	33.855438	-39.977328
1030	1.0300e+000	35.123825	-39.619658
1031	1.0310e+000	36.230087	-39.808712
1032	1.0320e+000	37.307739	-40.283903
1033	1.0330e+000	38.309097	-39.619658
1034	1.0340e+000	40.292740	-39.287535
1035	1.0350e+000	41.151047	-39.502137
1036	1.0360e+000	42.228699	-39.420384
1037	1.0370e+000	43.411255	-39.374398
1038	1.0380e+000	44.746399	-39.384617
1039	1.0390e+000	45.738220	-39.210891
1040	1.0400e+000	47.082901	-39.261987
1041	1.0410e+000	48.208237	-39.134248
1042	1.0420e+000	49.247742	-39.083152
1043	1.0430e+000	50.659180	-38.766358
1044	1.0440e+000	51.727295	-38.802125
1045	1.0450e+000	52.719116	-38.766358
1046	1.0460e+000	54.330826	-38.740810
1047	1.0470e+000	55.465698	-38.699934
1048	1.0480e+000	56.524277	-38.648838
1049	1.0490e+000	58.355331	-38.234962
1050	1.0500e+000	59.051514	-38.429126
1051	1.0510e+000	60.358047	-37.948826
1052	1.0520e+000	61.244965	-38.194086
1053	1.0530e+000	62.522888	-38.132771
1054	1.0540e+000	63.714981	-37.948826
1055	1.0550e+000	64.954758	-37.933497
1056	1.0560e+000	66.289902	-37.810867
1057	1.0570e+000	67.329407	-37.667799
1058	1.0580e+000	68.616867	-37.555389
1059	1.0590e+000	69.618225	-37.315238
1060	1.0600e+000	70.962906	-37.207937
1061	1.0610e+000	72.011948	-37.151732
1062	1.0620e+000	73.146820	-37.345896
1063	1.0630e+000	74.520111	-36.819610
1064	1.0640e+000	76.417923	-36.712308
1065	1.0650e+000	76.694489	-36.804281
1066	1.0660e+000	78.191757	-36.482377
1067	1.0670e+000	79.269409	-36.262666
1068	1.0680e+000	80.509186	-36.037844
1069	1.0690e+000	81.911087	-36.032735
1070	1.0700e+000	83.017349	-35.823242
1071	1.0710e+000	83.942413	-35.705722
1072	1.0720e+000	85.573196	-35.486010
1073	1.0730e+000	86.421967	-35.296956
1074	1.0740e+000	87.594986	-34.975052
1075	1.0750e+000	88.510513	-34.877970
1076	1.0760e+000	90.007782	-34.663368
1077	1.0770e+000	91.209412	-34.264821
1078	1.0780e+000	92.573166	-34.198397
1079	1.0790e+000	93.412399	-33.850945
1080	1.0800e+000	94.718933	-33.712987
1081	1.0810e+000	96.254349	-33.375755
1082	1.0820e+000	97.389221	-33.207139
1083	1.0830e+000	98.409653	-32.890345
1084	1.0840e+000	99.849701	-32.599099
1085	1.0850e+000	100.955963	-32.226100
1086	1.0860e+000	101.871490	-32.067703
1087	1.0870e+000	103.321075	-31.628280
1088	1.0880e+000	104.446411	-31.454554
1089	1.0890e+000	105.762482	-30.999802
1090	1.0900e+000	107.116699	-30.550159
1091	1.0910e+000	108.022690	-30.355995
1092	1.0920e+000	109.138489	-29.839928
1093	1.0930e+000	110.483170	-29.742846
1094	1.0940e+000	111.503601	-28.966190
1095	1.0950e+000	112.810135	-28.511438
1096	1.0960e+000	114.192963	-28.133329
1097	1.0970e+000	114.393234	-27.959604
1098	1.0980e+000	116.348267	-27.106304
1099	1.0990e+000	117.769241	-26.498265
1100	1.1000e+000	118.856430	-26.069060
1101	1.1010e+000	120.010376	-25.430363
1102	1.1020e+000	121.421814	-24.704803
1103	1.1030e+000	122.566223	-24.275599
1104	1.1040e+000	123.605728	-23.488724
1105	1.1050e+000	124.855042	-22.850027
1106	1.1060e+000	126.142502	-22.124467
1107	1.1070e+000	127.220154	-21.572633
1108	1.1080e+000	128.593445	-20.586484
1109	1.1090e+000	129.461288	-19.896692
1110	1.1100e+000	130.863190	-18.767475
1111	1.1110e+000	132.341385	-17.653587
1112	1.1120e+000	133.361816	-16.994452
1113	1.1130e+000	134.277344	-15.957208
1114	1.1140e+000	135.688782	-15.017046
1115	1.1150e+000	136.928558	-13.938925
1116	1.1160e+000	137.662888	-12.855695
1117	1.1170e+000	139.360428	-11.849108
1118	1.1180e+000	140.342712	-10.474632
1119	1.1190e+000	140.933990	-9.263663
1120	1.1200e+000	142.831802	-7.817652
1121	1.1210e+000	143.928528	-6.249012
1122	1.1220e+000	145.015717	-4.813221
1123	1.1230e+000	146.293640	-3.566485
1124	1.1240e+000	147.638321	-2.018283
1125	1.1250e+000	148.553848	-0.168616
1126	1.1260e+000	149.908066	1.170093
1127	1.1270e+000	151.071548	3.014650
1128	1.1280e+000	152.111053	4.583290
1129	1.1290e+000	153.923035	6.811066
1130	1.1300e+000	154.724121	8.277514
1131	1.1310e+000	155.744553	10.106743
1132	1.1320e+000	157.003403	12.007505
1133	1.1330e+000	158.033371	13.877610
1134	1.1340e+000	158.681870	15.487127
1135	1.1350e+000	160.465240	17.638259
1136	1.1360e+000	161.857605	19.896692
1137	1.1370e+000	162.830353	21.787235
1138	1.1380e+000	164.594650	23.550039
1139	1.1390e+000	165.357590	25.466130
1140	1.1400e+000	166.654587	27.438427
1141	1.1410e+000	167.951584	29.328970
1142	1.1420e+000	168.962479	31.107103
1143	1.1430e+000	170.593262	33.089619
1144	1.1440e+000	171.575546	34.724683
1145	1.1450e+000	172.662735	36.226899
1146	1.1460e+000	173.797607	37.769991
1147	1.1470e+000	175.266266	38.873659
1148	1.1480e+000	176.315308	40.442299
1149	1.1490e+000	177.688599	41.678817
1150	1.1500e+000	178.794861	42.695623
1151	1.1510e+000	179.996490	43.543812
1152	1.1520e+000	181.350708	44.305139
1153	1.1530e+000	182.485580	44.759892
1154	1.1540e+000	184.221268	45.577424
1155	1.1550e+000	185.203552	46.134368
1156	1.1560e+000	186.309814	45.797136
1157	1.1570e+000	187.406540	45.919766
1158	1.1580e+000	188.417435	46.165025
1159	1.1590e+000	189.561844	46.313203
1160	1.1600e+000	191.144943	46.394956
1161	1.1610e+000	192.165375	46.461381
1162	1.1620e+000	193.500519	46.558463
1163	1.1630e+000	194.635391	46.609558
1164	1.1640e+000	195.817947	46.711750
1165	1.1650e+000	197.496414	46.829270
1166	1.1660e+000	198.354721	46.839489
1167	1.1670e+000	199.384689	46.824161
1168	1.1680e+000	200.395584	46.854818
1169	1.1690e+000	201.692581	46.865037
1170	1.1700e+000	203.485489	47.043872
1171	1.1710e+000	204.133987	46.916133
1172	1.1720e+000	205.574036	46.926352
1173	1.1730e+000	206.613541	47.105187
1174	1.1740e+000	207.567215	46.987667
1175	1.1750e+000	208.950043	47.232927
1176	1.1760e+000	210.113525	47.074530
1177	1.1770e+000	211.296082	47.202269
1178	1.1780e+000	212.640762	47.268694
1179	1.1790e+000	213.880539	47.156283
1180	1.1800e+000	214.920044	47.340228
1181	1.1810e+000	215.492249	47.140954
1182	1.1820e+000	217.466354	47.421981
1183	1.1830e+000	218.229294	47.411762
1184	1.1840e+000	219.640732	47.432200
1185	1.1850e+000	221.090317	47.590597
1186	1.1860e+000	222.511292	47.580378
1187	1.1870e+000	223.226547	47.641693
1188	1.1880e+000	224.628448	47.549721
1189	1.1890e+000	225.629807	47.411762
1190	1.1900e+000	226.755142	47.585488
1191	1.1910e+000	228.281021	47.319790
1192	1.1920e+000	229.234695	47.805199
1193	1.1930e+000	230.579376	47.754104
1194	1.1940e+000	231.704712	47.779652
1195	1.1950e+000	232.810974	47.861405
1196	1.1960e+000	234.184265	48.413239
1197	1.1970e+000	235.500336	47.830747
1198	1.1980e+000	236.492157	48.040240
1199	1.1990e+000	237.531662	47.927829
1200	1.2000e+000	239.067078	47.973815
1201	1.2010e+000	239.715576	47.973815
1202	1.2020e+000	241.470337	48.076007
1203	1.2030e+000	242.691040	48.249733
1204	1.2040e+000	243.730545	48.219075
1205	1.2050e+000	244.998932	48.167979
1206	1.2060e+000	246.124268	48.341705
1207	1.2070e+000	246.992111	48.305938
1208	1.2080e+000	248.632431	48.162870
1209	1.2090e+000	249.681473	48.535869
1210	1.2100e+000	250.835419	48.479664
1211	1.2110e+000	252.141953	48.556307
1212	1.2120e+000	253.238678	48.418349
1213	1.2130e+000	254.430771	48.459225
1214	1.2140e+000	255.727768	48.632951
1215	1.2150e+000	256.786346	48.459225
1216	1.2160e+000	258.016586	48.668718
1217	1.2170e+000	258.541107	48.229294
1218	1.2180e+000	260.686874	48.750471
1219	1.2190e+000	261.831284	48.709594
1220	1.2200e+000	263.118744	48.760690
1221	1.2210e+000	264.101028	48.535869
1222	1.2220e+000	265.245438	48.678937
1223	1.2230e+000	266.523361	48.898649
1224	1.2240e+000	267.601013	48.806676
1225	1.2250e+000	268.898010	48.919087
1226	1.2260e+000	270.605087	49.103032
1227	1.2270e+000	271.387100	48.735142
1228	1.2280e+000	272.188187	49.087703
1229	1.2290e+000	273.523331	49.005950
1230	1.2300e+000	274.972916	49.046827
1231	1.2310e+000	275.993347	49.057046
1232	1.2320e+000	277.414322	49.292086
1233	1.2330e+000	278.348923	49.184785
1234	1.2340e+000	279.941559	49.159237
1235	1.2350e+000	280.885696	49.225662
1236	1.2360e+000	282.316208	49.394278
1237	1.2370e+000	283.432007	49.205223
1238	1.2380e+000	284.528732	49.348292
1239	1.2390e+000	285.730362	49.327853
1240	1.2400e+000	286.960602	49.501579
1241	1.2410e+000	287.981033	49.419826
1242	1.2420e+000	289.516449	49.240990
1243	1.2430e+000	290.451050	49.491360
1244	1.2440e+000	291.986465	49.501579
1245	1.2450e+000	292.959213	49.476031
1246	1.2460e+000	294.094086	49.613990
1247	1.2470e+000	295.362473	49.568003
1248	1.2480e+000	295.801163	49.138799
1249	1.2490e+000	297.765732	49.649757
1250	1.2500e+000	298.929214	49.608880
1251	1.2510e+000	300.245285	49.424935
1252	1.2520e+000	299.205780	49.731510
1253	1.2530e+000	298.070908	49.665085
1254	1.2540e+000	296.831131	49.777496
1255	1.2550e+000	295.352936	49.726400
1256	1.2560e+000	294.561386	49.665085
1257	1.2570e+000	293.340683	49.634428
1258	1.2580e+000	292.053223	49.608880
1259	1.2590e+000	290.861130	49.634428
1260	1.2600e+000	289.659500	49.593551
1261	1.2610e+000	288.505554	49.598661
1262	1.2620e+000	287.199020	49.613990
1263	1.2630e+000	286.493301	49.808153
1264	1.2640e+000	284.938812	49.562894
1265	1.2650e+000	283.584595	49.476031
1266	1.2660e+000	282.363892	49.476031
1267	1.2670e+000	281.496048	49.573113
1268	1.2680e+000	280.218124	49.562894
1269	1.2690e+000	278.787613	49.435154
1270	1.2700e+000	277.624130	49.915455
1271	1.2710e+000	276.374817	49.414716
1272	1.2720e+000	275.173187	49.327853
1273	1.2730e+000	274.114609	49.327853
1274	1.2740e+000	272.817612	49.317634
1275	1.2750e+000	271.453857	49.179676
1276	1.2760e+000	270.547867	49.419826
1277	1.2770e+000	269.260406	49.338072
1278	1.2780e+000	268.011093	49.363620
1279	1.2790e+000	266.828537	49.143908
1280	1.2800e+000	265.388489	49.317634
1281	1.2810e+000	264.472961	49.322744
1282	1.2820e+000	263.481140	49.179676
1283	1.2830e+000	262.069702	49.281867
1284	1.2840e+000	260.915756	49.174566
1285	1.2850e+000	259.685516	49.179676
1286	1.2860e+000	258.436203	49.240990
1287	1.2870e+000	257.196426	49.036607
1288	1.2880e+000	256.061554	49.169456
1289	1.2890e+000	254.917145	49.149018
1290	1.2900e+000	253.648758	49.041717
1291	1.2910e+000	252.094269	48.954854
1292	1.2920e+000	251.197815	49.041717
1293	1.2930e+000	250.139236	49.072374
1294	1.2940e+000	248.708725	49.031498
1295	1.2950e+000	248.556137	49.276757
1296	1.2960e+000	246.419907	49.000840
1297	1.2970e+000	245.180130	48.929306
1298	1.2980e+000	244.426727	49.005950
1299	1.2990e+000	242.948532	48.975292
1300	1.3000e+000	241.689682	49.000840
1301	1.3010e+000	240.468979	48.898649
1302	1.3020e+000	239.324570	49.041717
1303	1.3030e+000	238.237381	49.005950
1304	1.3040e+000	236.940384	48.765800
1305	1.3050e+000	235.719681	48.888430
1306	1.3060e+000	234.451294	48.842443
1307	1.3070e+000	233.316422	48.811786
1308	1.3080e+000	232.057571	48.781129
1309	1.3090e+000	230.932236	48.770909
1310	1.3100e+000	230.054855	48.811786
1311	1.3110e+000	228.834152	48.954854
1312	1.3120e+000	227.289200	48.689156
1313	1.3130e+000	226.030350	48.684047
1314	1.3140e+000	224.847794	48.704485
1315	1.3150e+000	223.522186	49.016169
1316	1.3160e+000	222.501755	48.397910
1317	1.3170e+000	221.319199	48.760690
1318	1.3180e+000	220.031738	48.617622
1319	1.3190e+000	219.030380	48.576745
1320	1.3200e+000	217.857361	48.678937
1321	1.3210e+000	216.493607	48.520540
1322	1.3220e+000	215.663910	48.438787
1323	1.3230e+000	214.052200	48.638060
1324	1.3240e+000	212.783813	48.494992
1325	1.3250e+000	211.734772	48.505211
1326	1.3260e+000	210.542679	48.449006
1327	1.3270e+000	209.312439	48.443896
1328	1.3280e+000	208.005905	48.403020
1329	1.3290e+000	207.033157	48.341705
1330	1.3300e+000	205.554962	48.341705
1331	1.3310e+000	204.582214	48.535869
1332	1.3320e+000	203.218460	48.321267
1333	1.3330e+000	201.902390	48.285500
1334	1.3340e+000	200.815201	48.290609
1335	1.3350e+000	199.899673	48.331486
1336	1.3360e+000	198.421478	48.295719
1337	1.3370e+000	197.229385	48.285500
1338	1.3380e+000	195.312500	47.912501
1339	1.3390e+000	194.692612	48.198637
1340	1.3400e+000	193.777084	48.040240
1341	1.3410e+000	192.527771	47.917610
1342	1.3420e+000	190.830231	47.881843
1343	1.3430e+000	190.200806	48.065788
1344	1.3440e+000	189.142227	48.060678
1345	1.3450e+000	187.778473	48.035130
1346	1.3460e+000	186.567307	47.958487
1347	1.3470e+000	185.213089	47.999363
1348	1.3480e+000	183.944702	47.958487
1349	1.3490e+000	182.924271	47.907391
1350	1.3500e+000	181.713104	47.922720
1351	1.3510e+000	180.406570	47.902281
1352	1.3520e+000	179.281235	47.794980
1353	1.3530e+000	178.232193	47.963596
1354	1.3540e+000	176.887512	47.907391
1355	1.3550e+000	175.733566	47.738775
1356	1.3560e+000	174.770355	47.728556
1357	1.3570e+000	173.177719	47.754104
1358	1.3580e+000	173.149109	48.065788
1359	1.3590e+000	170.850754	47.754104
1360	1.3600e+000	169.687271	47.754104
1361	1.3610e+000	168.361664	48.086226
1362	1.3620e+000	167.331696	47.687679
1363	1.3630e+000	165.910721	47.621255
1364	1.3640e+000	165.033340	47.534392
1365	1.3650e+000	163.698196	47.559940
1366	1.3660e+000	162.477493	47.488406
1367	1.3670e+000	161.409378	47.457748
1368	1.3680e+000	160.055161	47.616145
1369	1.3690e+000	157.918930	47.125626
1370	1.3700e+000	157.613754	47.401543
1371	1.3710e+000	156.660080	47.447529
1372	1.3720e+000	155.467987	47.442419
1373	1.3730e+000	154.066086	47.340228
1374	1.3740e+000	152.873993	47.427091
1375	1.3750e+000	151.252747	47.222708
1376	1.3760e+000	150.327682	47.248256
1377	1.3770e+000	149.459839	47.467967
1378	1.3780e+000	148.000717	47.238036
1379	1.3790e+000	146.856308	47.202269
1380	1.3800e+000	145.807266	47.176721
1381	1.3810e+000	144.319534	47.033653
1382	1.3820e+000	143.413544	47.105187
1383	1.3830e+000	142.221451	47.212489
1384	1.3840e+000	140.762329	47.186941
1385	1.3850e+000	139.884949	47.135845
1386	1.3860e+000	138.454437	47.089859
1387	1.3870e+000	137.214661	46.951900
1388	1.3880e+000	136.175156	46.839489
1389	1.3890e+000	134.735107	46.895695
1390	1.3900e+000	133.790970	46.951900
1391	1.3910e+000	132.427216	46.972338
1392	1.3920e+000	131.254196	46.962119
1393	1.3930e+000	130.605698	47.192050
1394	1.3940e+000	128.831863	46.732188
1395	1.3950e+000	127.611160	46.865037
1396	1.3960e+000	126.447678	46.701531
1397	1.3970e+000	125.322342	46.773065
1398	1.3980e+000	123.643875	46.558463
1399	1.3990e+000	123.023987	46.788394
1400	1.4000e+000	121.421814	46.538024
1401	1.4010e+000	120.639801	46.727079
1402	1.4020e+000	119.466782	46.558463
1403	1.4030e+000	118.017197	46.640216
1404	1.4040e+000	116.949081	46.742407
1405	1.4050e+000	115.261078	46.573791
1406	1.4060e+000	114.479065	46.527805
1407	1.4070e+000	113.143921	46.466490
1408	1.4080e+000	112.028122	46.333641
1409	1.4090e+000	110.731125	46.522696
1410	1.4100e+000	109.605789	46.394956
1411	1.4110e+000	108.528137	46.379628
1412	1.4120e+000	107.259750	46.262107
1413	1.4130e+000	106.048584	46.359189
1414	1.4140e+000	104.703903	46.425614
1415	1.4150e+000	103.750229	46.246779
1416	1.4160e+000	103.254318	46.696421
1417	1.4170e+000	101.671219	46.410285
1418	1.4180e+000	99.945068	46.088382
1419	1.4190e+000	98.810196	46.154806
1420	1.4200e+000	97.761154	46.195683
1421	1.4210e+000	96.082687	46.302984
1422	1.4220e+000	95.119476	46.221231
1423	1.4230e+000	93.955994	46.093491
1424	1.4240e+000	92.763901	46.032176
1425	1.4250e+000	91.657639	46.011738
1426	1.4260e+000	90.475082	45.899327
1427	1.4270e+000	89.216232	45.945313
1428	1.4280e+000	87.995529	45.975971
1429	1.4290e+000	86.812973	45.914656
1430	1.4300e+000	85.582733	45.792026
1431	1.4310e+000	84.543228	45.776697
1432	1.4320e+000	83.379745	46.129258
1433	1.4330e+000	81.872940	45.602972
1434	1.4340e+000	80.699921	45.434356
1435	1.4350e+000	79.784393	45.510999
1436	1.4360e+000	78.420639	45.628520
1437	1.4370e+000	77.314377	45.873779
1438	1.4380e+000	76.103210	45.633629
1439	1.4390e+000	74.768066	45.592753
1440	1.4400e+000	73.633194	45.485452
1441	1.4410e+000	72.441101	45.516109
1442	1.4420e+000	71.249008	45.628520
1443	1.4430e+000	70.037842	45.495671
1444	1.4440e+000	68.702698	45.352603
1445	1.4450e+000	67.739487	45.413918
1446	1.4460e+000	66.518784	45.510999
1447	1.4470e+000	65.174103	45.357712
1448	1.4480e+000	64.277649	45.194206
1449	1.4490e+000	62.780380	45.378150
1450	1.4500e+000	61.769485	45.224863
1451	1.4510e+000	60.443878	45.112452
1452	1.4520e+000	59.089661	45.311726
1453	1.4530e+000	57.983398	45.158439
1454	1.4540e+000	56.791306	45.117562
1455	1.4550e+000	55.608749	45.740930
1456	1.4560e+000	54.616928	45.117562
1457	1.4570e+000	53.348541	44.964275
1458	1.4580e+000	51.584244	44.810987
1459	1.4590e+000	50.764084	44.913179
1460	1.4600e+000	49.667358	44.938727
1461	1.4610e+000	48.656464	44.856974
1462	1.4620e+000	46.691895	44.754782
1463	1.4630e+000	46.005249	44.841645
1464	1.4640e+000	44.794083	44.627043
1465	1.4650e+000	43.649673	44.611714
1466	1.4660e+000	42.486191	44.698577
1467	1.4670e+000	41.332245	44.703686
1468	1.4680e+000	40.225983	44.652591
1469	1.4690e+000	38.795471	44.514632
1470	1.4700e+000	37.631989	44.202948
1471	1.4710e+000	36.411285	44.499303
1472	1.4720e+000	35.123825	44.478865
1473	1.4730e+000	34.017563	44.402221
1474	1.4740e+000	32.882690	44.453317
1475	1.4750e+000	31.604767	44.427769
1476	1.4760e+000	30.307770	44.397112
1477	1.4770e+000	29.048920	44.437988
1478	1.4780e+000	28.247833	44.085428
1479	1.4790e+000	26.760101	44.238715
1480	1.4800e+000	25.701523	44.126304
1481	1.4810e+000	24.452209	44.223386
1482	1.4820e+000	24.614334	44.489084
1483	1.4830e+000	21.972656	43.957688
1484	1.4840e+000	20.875931	44.049661
1485	1.4850e+000	19.855499	44.003674
1486	1.4860e+000	18.377304	43.875935
1487	1.4870e+000	17.204285	43.737976
1488	1.4880e+000	16.899109	44.233605
1489	1.4890e+000	14.657974	43.743086
1490	1.4900e+000	13.656616	43.819730
1491	1.4910e+000	12.435913	43.743086
1492	1.4920e+000	11.796951	44.039441
1493	1.4930e+000	10.004044	43.528484
1494	1.4940e+000	8.888245	43.589799
1495	1.4950e+000	7.677078	43.600018
1496	1.4960e+000	6.637573	43.354758
1497	1.4970e+000	4.739761	43.329210
1498	1.4980e+000	3.900528	43.395635
1499	1.4990e+000	2.756119	43.472278
1500	1.5000e+000	1.697540	43.344539
1501	1.5010e+000	0.448227	43.278114
1502	1.5020e+000	-0.753403	43.431402
1503	1.5030e+000	-1.897812	43.175923
1504	1.5040e+000	-3.309250	43.165704
1505	1.5050e+000	-4.367828	43.324101
1506	1.5060e+000	-6.074905	43.017526
1507	1.5070e+000	-7.028580	42.613870
1508	1.5080e+000	-7.991791	42.976649
1509	1.5090e+000	-9.126663	42.894896
1510	1.5100e+000	-10.299683	42.920444
1511	1.5110e+000	-11.415482	43.022636
1512	1.5120e+000	-12.454987	42.593431
1513	1.5130e+000	-13.895035	42.843800
1514	1.5140e+000	-15.468597	42.486130
1515	1.5150e+000	-16.059875	42.685404
1516	1.5160e+000	-17.452240	42.690513
1517	1.5170e+000	-18.825531	42.583212
1518	1.5180e+000	-19.702911	42.496349
1519	1.5190e+000	-21.066666	42.664965
1520	1.5200e+000	-22.220612	42.194884
1521	1.5210e+000	-23.689270	42.276637
1522	1.5220e+000	-24.719238	42.358391
1523	1.5230e+000	-25.920868	42.256199
1524	1.5240e+000	-27.332306	41.883200
1525	1.5250e+000	-28.314590	42.210213
1526	1.5260e+000	-29.296875	41.980282
1527	1.5270e+000	-30.384064	41.949625
1528	1.5280e+000	-31.728745	42.097802
1529	1.5290e+000	-33.111572	41.295599
1530	1.5300e+000	-33.998489	41.775899
1531	1.5310e+000	-35.448074	41.581735
1532	1.5320e+000	-36.706924	41.627721
1533	1.5330e+000	-37.813187	41.505091
1534	1.5340e+000	-39.005280	41.418229
1535	1.5350e+000	-40.159225	41.377352
1536	1.5360e+000	-41.255951	41.280270
1537	1.5370e+000	-42.705536	41.193407
1538	1.5380e+000	-43.907166	40.943038
1539	1.5390e+000	-44.984818	40.927709
1540	1.5400e+000	-46.329498	40.764203
1541	1.5410e+000	-47.426224	40.590477
1542	1.5420e+000	-48.465729	40.605806
1543	1.5430e+000	-49.810410	40.365656
1544	1.5440e+000	-50.802231	40.278793
1545	1.5450e+000	-52.251816	40.053972
1546	1.5460e+000	-53.358078	39.645205
1547	1.5470e+000	-54.492950	39.502137
1548	1.5480e+000	-55.723190	39.241549
1549	1.5490e+000	-56.943893	38.510879
1550	1.5500e+000	-58.221817	38.848111
1551	1.5510e+000	-59.328079	38.398469
1552	1.5520e+000	-60.710907	38.142990
1553	1.5530e+000	-61.645508	37.800648
1554	1.5540e+000	-62.847137	37.330567
1555	1.5550e+000	-64.353943	36.783843
1556	1.5560e+000	-65.250397	36.467049
1557	1.5570e+000	-66.490173	36.042954
1558	1.5580e+000	-67.644119	35.450243
1559	1.5590e+000	-68.931580	34.975052
1560	1.5600e+000	-69.999695	34.198397
1561	1.5610e+000	-71.449280	33.575028
1562	1.5620e+000	-72.488785	32.977208
1563	1.5630e+000	-73.823929	32.134128
1564	1.5640e+000	-74.911118	31.449444
1565	1.5650e+000	-75.979233	30.442858
1566	1.5660e+000	-77.171326	29.804161
1567	1.5670e+000	-78.477859	28.838451
1568	1.5680e+000	-79.813004	27.806316
1569	1.5690e+000	-80.833435	26.809949
1570	1.5700e+000	-82.073212	25.813581
1571	1.5710e+000	-83.293915	24.592393
1572	1.5720e+000	-84.295273	23.304779
1573	1.5730e+000	-85.372925	22.216439
1574	1.5740e+000	-86.889267	20.755100
1575	1.5750e+000	-87.995529	19.498145
1576	1.5760e+000	-89.073181	18.230970
1577	1.5770e+000	-90.351105	16.360865
1578	1.5780e+000	-91.543198	14.873978
1579	1.5790e+000	-92.849731	13.213365
1580	1.5800e+000	-93.812943	11.557862
1581	1.5810e+000	-94.938278	9.769511
1582	1.5820e+000	-96.282959	7.976049
1583	1.5830e+000	-97.379684	5.942438
1584	1.5840e+000	-98.638535	4.031456
1585	1.5850e+000	-99.763870	2.038721
1586	1.5860e+000	-101.089478	0.020438
1587	1.5870e+000	-102.262497	-2.232885
1588	1.5880e+000	-103.302002	-4.194962
1589	1.5890e+000	-104.742050	-6.335875
1590	1.5900e+000	-105.752945	-8.425692
1591	1.5910e+000	-106.973648	-10.581933
1592	1.5920e+000	-108.184814	-12.666641
1593	1.5930e+000	-109.386444	-14.817772
1594	1.5940e+000	-110.330582	-16.861603
1595	1.5950e+000	-111.703873	-18.874776
1596	1.5960e+000	-112.886429	-21.337592
1597	1.5970e+000	-114.030838	-22.640534
1598	1.5980e+000	-115.461349	-24.433996
1599	1.5990e+000	-116.682053	-26.196800
1600	1.6000e+000	-117.835999	-27.663248
1601	1.6010e+000	-119.037628	-29.185902
1602	1.6020e+000	-120.382309	-30.483734
1603	1.6030e+000	-121.603012	-31.607841
1604	1.6040e+000	-122.919083	-32.757496
1605	1.6050e+000	-123.987198	-33.677220
1606	1.6060e+000	-125.017166	-34.602053
1607	1.6070e+000	-126.676559	-35.434914
1608	1.6080e+000	-127.859116	-36.063392
1609	1.6090e+000	-128.889084	-36.339309
1610	1.6100e+000	-130.119324	-37.182389
1611	1.6110e+000	-131.187439	-37.667799
1612	1.6120e+000	-132.341385	-38.234962
1613	1.6130e+000	-133.552551	-38.526208
1614	1.6140e+000	-135.002136	-39.078042
1615	1.6150e+000	-136.127472	-39.364179
1616	1.6160e+000	-137.329102	-39.604329
1617	1.6170e+000	-138.072968	-39.885356
1618	1.6180e+000	-139.713287	-40.319670
1619	1.6190e+000	-140.905380	-40.355437
1620	1.6200e+000	-142.068863	-40.697778
1621	1.6210e+000	-143.365860	-40.963476
1622	1.6220e+000	-144.701004	-41.392681
1623	1.6230e+000	-145.664215	-41.847433
1624	1.6240e+000	-146.827698	-41.464215
1625	1.6250e+000	-148.363113	-41.801447
1626	1.6260e+000	-149.412155	-41.970063
1627	1.6270e+000	-150.184631	-42.092693
1628	1.6280e+000	-151.662827	-42.383939
1629	1.6290e+000	-153.102875	-42.516788
1630	1.6300e+000	-154.199600	-42.634308
1631	1.6310e+000	-155.601501	-42.710951
1632	1.6320e+000	-157.289505	-43.273005
1633	1.6330e+000	-157.594681	-42.981759
1634	1.6340e+000	-158.987045	-43.083951
1635	1.6350e+000	-160.264969	-43.278114
1636	1.6360e+000	-161.199570	-43.334320
1637	1.6370e+000	-162.668228	-43.600018
1638	1.6380e+000	-163.850784	-43.589799
1639	1.6390e+000	-164.947510	-43.697100
1640	1.6400e+000	-166.196823	-43.962798
1641	1.6410e+000	-167.360306	-43.881045
1642	1.6420e+000	-168.628693	-44.044551
1643	1.6430e+000	-169.649124	-44.402221
1644	1.6440e+000	-171.155930	-44.274482
1645	1.6450e+000	-172.100067	-44.294920
1646	1.6460e+000	-173.377991	-44.463536
1647	1.6470e+000	-175.294876	-44.683248
1648	1.6480e+000	-175.666809	-44.514632
1649	1.6490e+000	-176.992416	-44.621933
1650	1.6500e+000	-178.318024	-44.790549
1651	1.6510e+000	-179.128647	-44.805878
1652	1.6520e+000	-180.616379	-44.913179
1653	1.6530e+000	-181.999207	-44.739453
1654	1.6540e+000	-183.029175	-45.056247
1655	1.6550e+000	-183.963776	-45.270849
1656	1.6560e+000	-185.356140	-45.071576
1657	1.6570e+000	-186.595917	-45.270849
1658	1.6580e+000	-187.711716	-45.291288
1659	1.6590e+000	-189.094543	-45.715383
1660	1.6600e+000	-190.153122	-45.291288
1661	1.6610e+000	-191.497803	-45.367931
1662	1.6620e+000	-192.651749	-45.602972
1663	1.6630e+000	-193.967819	-45.562095
1664	1.6640e+000	-194.997787	-45.654068
1665	1.6650e+000	-196.466446	-45.786917
1666	1.6660e+000	-197.257996	-45.797136
1667	1.6670e+000	-198.717117	-45.889108
1668	1.6680e+000	-199.880600	-45.965752
1669	1.6690e+000	-201.015472	-45.929985
1670	1.6700e+000	-202.236176	-46.139477
1671	1.6710e+000	-203.371048	-46.165025
1672	1.6720e+000	-204.591751	-46.134368
1673	1.6730e+000	-206.184387	-46.323422
1674	1.6740e+000	-207.080841	-46.558463
1675	1.6750e+000	-208.368301	-46.302984
1676	1.6760e+000	-209.474564	-46.369408
1677	1.6770e+000	-210.056305	-46.067943
1678	1.6780e+000	-212.001801	-46.538024
1679	1.6790e+000	-213.060379	-46.502257
1680	1.6800e+000	-214.347839	-46.645325
1681	1.6810e+000	-215.396881	-46.629997
1682	1.6820e+000	-216.817856	-46.691312
1683	1.6830e+000	-217.952728	-46.599339
1684	1.6840e+000	-218.944550	-46.762846
1685	1.6850e+000	-219.564438	-46.931462
1686	1.6860e+000	-221.538544	-46.813942
1687	1.6870e+000	-222.625732	-46.885476
1688	1.6880e+000	-223.588943	-47.018325
1689	1.6890e+000	-225.057602	-47.069420
1690	1.6900e+000	-226.860046	-47.130735
1691	1.6910e+000	-227.651596	-47.181831
1692	1.6920e+000	-228.242874	-46.921243
1693	1.6930e+000	-229.997635	-47.350447
1694	1.6940e+000	-230.865479	-47.248256
1695	1.6950e+000	-232.400894	-47.350447
1696	1.6960e+000	-233.402252	-47.232927
1697	1.6970e+000	-234.670639	-47.457748
1698	1.6980e+000	-235.958099	-47.442419
1699	1.6990e+000	-237.083435	-47.498625
1700	1.7000e+000	-238.304138	-47.600816
1701	1.7010e+000	-239.496231	-47.621255
1702	1.7020e+000	-240.736008	-47.631474
1703	1.7030e+000	-241.117477	-47.330009
1704	1.7040e+000	-243.015289	-47.646803
1705	1.7050e+000	-244.483948	-47.861405
1706	1.7060e+000	-245.456696	-47.769432
1707	1.7070e+000	-246.772766	-47.953377
1708	1.7080e+000	-247.688293	-47.932939
1709	1.7090e+000	-248.947144	-47.999363
1710	1.7100e+000	-250.339508	-48.106664
1711	1.7110e+000	-251.531601	-48.035130
1712	1.7120e+000	-252.771378	-48.045350
1713	1.7130e+000	-253.868103	-48.188418
1714	1.7140e+000	-255.165100	-48.213966
1715	1.7150e+000	-256.271362	-48.121993
1716	1.7160e+000	-257.425308	-48.387691
1717	1.7170e+000	-258.607864	-48.346815
1718	1.7180e+000	-260.515213	-48.428568
1719	1.7190e+000	-260.877609	-47.958487
1720	1.7200e+000	-262.212753	-48.561417
1721	1.7210e+000	-262.861252	-48.244623
1722	1.7220e+000	-265.197754	-48.597184
1723	1.7230e+000	-265.951157	-48.551198
1724	1.7240e+000	-266.885757	-48.648280
1725	1.7250e+000	-268.325806	-48.735142
1726	1.7260e+000	-269.384384	-48.724923
1727	1.7270e+000	-270.977020	-48.852663
1728	1.7280e+000	-271.902084	-48.878211
1729	1.7290e+000	-273.103714	-48.903758
1730	1.7300e+000	-274.295807	-48.965073
1731	1.7310e+000	-275.497437	-49.021279
1732	1.7320e+000	-276.565552	-48.990621
1733	1.7330e+000	-277.576447	-48.704485
1734	1.7340e+000	-278.930664	-48.602293
1735	1.7350e+000	-280.351639	-49.164347
1736	1.7360e+000	-281.476974	-49.087703
1737	1.7370e+000	-283.575058	-49.286977
1738	1.7380e+000	-283.555984	-49.189895
1739	1.7390e+000	-284.423828	-49.026388
1740	1.7400e+000	-286.235809	-49.307415
1741	1.7410e+000	-287.380219	-49.409606
1742	1.7420e+000	-288.505554	-49.496469
1743	1.7430e+000	-290.021896	-49.281867
1744	1.7440e+000	-290.966034	-49.522017
1745	1.7450e+000	-292.320251	-49.644647
1746	1.7460e+000	-293.664932	-49.608880
1747	1.7470e+000	-294.523239	-49.634428
1748	1.7480e+000	-295.104980	-49.476031
1749	1.7490e+000	-297.031403	-49.338072
1750	1.7500e+000	-298.032761	-49.884797
1751	1.7510e+000	-299.348831	-49.787715
1752	1.7520e+000	-299.444199	-49.915455
1753	1.7530e+000	-297.136307	-49.772386
1754	1.7540e+000	-296.096802	-49.803044
1755	1.7550e+000	-294.942856	-49.808153
1756	1.7560e+000	-293.741226	-49.772386
1757	1.7570e+000	-292.329788	-49.619099
1758	1.7580e+000	-291.347504	-49.700852
1759	1.7590e+000	-289.964676	-49.644647
1760	1.7600e+000	-288.972855	-49.721291
1761	1.7610e+000	-287.885666	-49.705962
1762	1.7620e+000	-286.321640	-49.767277
1763	1.7630e+000	-285.367966	-49.649757
1764	1.7640e+000	-284.595490	-49.690633
1765	1.7650e+000	-282.583237	-49.608880
1766	1.7660e+000	-281.705856	-49.654866
1767	1.7670e+000	-280.628204	-49.624209
1768	1.7680e+000	-279.464722	-49.736619
1769	1.7690e+000	-278.263092	-49.532236
1770	1.7700e+000	-277.109146	-49.757058
1771	1.7710e+000	-275.650024	-49.481141
1772	1.7720e+000	-274.448395	-49.358511
1773	1.7730e+000	-273.580551	-49.624209
1774	1.7740e+000	-271.968842	-49.557784
1775	1.7750e+000	-270.862579	-49.256319
1776	1.7760e+000	-269.689560	-49.486250
1777	1.7770e+000	-268.449783	-49.394278
1778	1.7780e+000	-267.448425	-49.399387
1779	1.7790e+000	-266.199112	-49.680414
1780	1.7800e+000	-264.730453	-49.378949
1781	1.7810e+000	-263.652802	-49.414716
1782	1.7820e+000	-262.594223	-49.327853
1783	1.7830e+000	-260.295868	-48.862882
1784	1.7840e+000	-260.095596	-49.378949
1785	1.7850e+000	-258.979797	-49.317634
1786	1.7860e+000	-257.711411	-49.149018
1787	1.7870e+000	-256.595612	-49.281867
1788	1.7880e+000	-255.241394	-49.159237
1789	1.7890e+000	-254.116058	-49.246100
1790	1.7900e+000	-252.857208	-49.215443
1791	1.7910e+000	-251.798630	-49.143908
1792	1.7920e+000	-250.434875	-49.118361
1793	1.7930e+000	-249.347687	-49.113251
1794	1.7940e+000	-247.898102	-49.378949
1795	1.7950e+000	-246.543884	-49.000840
1796	1.7960e+000	-245.752335	-49.067265
1797	1.7970e+000	-244.445801	-49.057046
1798	1.7980e+000	-243.234634	-49.072374
1799	1.7990e+000	-241.880417	-48.985512
1800	1.8000e+000	-240.793228	-49.016169
1801	1.8010e+000	-239.639282	-48.934416
1802	1.8020e+000	-238.552094	-49.072374
1803	1.8030e+000	-237.178802	-48.878211
1804	1.8040e+000	-236.005783	-48.878211
1805	1.8050e+000	-234.870911	-48.913978
1806	1.8060e+000	-233.907700	-48.811786
1807	1.8070e+000	-232.372284	-48.806676
1808	1.8080e+000	-231.418610	-48.750471
1809	1.8090e+000	-230.274200	-48.760690
1810	1.8100e+000	-229.129791	-48.837334
1811	1.8110e+000	-227.737427	-48.709594
1812	1.8120e+000	-226.488113	-48.735142
1813	1.8130e+000	-225.114822	-48.648280
1814	1.8140e+000	-224.237442	-48.735142
1815	1.8150e+000	-223.073959	-48.714704
1816	1.8160e+000	-221.557617	-48.719814
1817	1.8170e+000	-220.680237	-48.546088
1818	1.8180e+000	-219.316483	-48.643170
1819	1.8190e+000	-218.210220	-48.505211
1820	1.8200e+000	-217.056274	-48.433677
1821	1.8210e+000	-215.721130	-48.607403
1822	1.8220e+000	-214.567184	-48.351924
1823	1.8230e+000	-213.365555	-48.510321
1824	1.8240e+000	-212.173462	-48.535869
1825	1.8250e+000	-210.390091	-48.101555
1826	1.8260e+000	-209.589005	-48.382582
1827	1.8270e+000	-208.415985	-48.408129
1828	1.8280e+000	-207.233429	-48.484773
1829	1.8290e+000	-205.516815	-48.311047
1830	1.8300e+000	-205.249786	-48.244623
1831	1.8310e+000	-203.752518	-48.331486
1832	1.8320e+000	-202.465057	-48.280390
1833	1.8330e+000	-201.148987	-48.224185
1834	1.8340e+000	-200.023651	-48.178199
1835	1.8350e+000	-198.822021	-47.902281
1836	1.8360e+000	-197.601318	-48.183308
1837	1.8370e+000	-196.447372	-48.357034
1838	1.8380e+000	-195.293427	-48.132212
1839	1.8390e+000	-194.301605	-47.621255
1840	1.8400e+000	-192.918777	-48.147541
1841	1.8410e+000	-191.793442	-48.060678
1842	1.8420e+000	-190.429688	-48.040240
1843	1.8430e+000	-189.046860	-47.907391
1844	1.8440e+000	-188.121796	-48.045350
1845	1.8450e+000	-186.538696	-47.713227
1846	1.8460e+000	-185.785294	-47.963596
1847	1.8470e+000	-184.507370	-47.958487
1848	1.8480e+000	-183.305740	-47.866514
1849	1.8490e+000	-182.151794	-47.820528
1850	1.8500e+000	-180.768967	-47.927829
1851	1.8510e+000	-179.681778	-47.825638
1852	1.8520e+000	-178.527832	-47.866514
1853	1.8530e+000	-177.278519	-47.881843
1854	1.8540e+000	-176.048279	-47.268694
1855	1.8550e+000	-175.008774	-47.703008
1856	1.8560e+000	-173.559189	-47.805199
1857	1.8570e+000	-172.557831	-47.759213
1858	1.8580e+000	-171.117783	-47.697898
1859	1.8590e+000	-170.011520	-47.672350
1860	1.8600e+000	-168.914795	-47.657022
1861	1.8610e+000	-167.913437	-47.549721
1862	1.8620e+000	-166.406631	-47.559940
1863	1.8630e+000	-165.214539	-47.631474
1864	1.8640e+000	-164.089203	-47.462858
1865	1.8650e+000	-163.154602	-47.626364
1866	1.8660e+000	-161.724091	-47.442419
1867	1.8670e+000	-160.665512	-47.416872
1868	1.8680e+000	-159.206390	-47.396433
1869	1.8690e+000	-158.081055	-47.253365
1870	1.8700e+000	-156.936646	-47.284023
1871	1.8710e+000	-155.448914	-47.273803
1872	1.8720e+000	-154.428482	-47.105187
1873	1.8730e+000	-153.141022	-47.243146
1874	1.8740e+000	-151.987076	-47.125626
1875	1.8750e+000	-150.842667	-47.243146
1876	1.8760e+000	-149.841309	-47.248256
1877	1.8770e+000	-148.506165	-47.171612
1878	1.8780e+000	-147.333145	-47.115407
1879	1.8790e+000	-146.226883	-47.079640
1880	1.8800e+000	-145.006180	-47.345338
1881	1.8810e+000	-143.785477	-46.946791
1882	1.8820e+000	-142.641068	-46.905914
1883	1.8830e+000	-141.277313	-47.064311
1884	1.8840e+000	-140.104294	-46.681093
1885	1.8850e+000	-138.959885	-46.900804
1886	1.8860e+000	-137.567520	-46.885476
1887	1.8870e+000	-136.613846	-46.742407
1888	1.8880e+000	-135.374069	-46.762846
1889	1.8890e+000	-134.000778	-46.859928
1890	1.8900e+000	-132.722855	-46.716860
1891	1.8910e+000	-131.406784	-46.563572
1892	1.8920e+000	-130.434036	-46.706640
1893	1.8930e+000	-129.165649	-46.727079
1894	1.8940e+000	-127.906799	-46.696421
1895	1.8950e+000	-126.771927	-46.895695
1896	1.8960e+000	-125.675201	-46.660654
1897	1.8970e+000	-124.702454	-46.563572
1898	1.8980e+000	-123.157501	-46.476709
1899	1.8990e+000	-122.175217	-46.384737
1900	1.9000e+000	-120.906830	-46.384737
1901	1.9010e+000	-119.657516	-46.420504
1902	1.9020e+000	-118.360519	-46.435833
1903	1.9030e+000	-117.530823	-46.364299
1904	1.9040e+000	-116.100311	-46.405175
1905	1.9050e+000	-114.822388	-46.440942
1906	1.9060e+000	-113.887787	-46.338751
1907	1.9070e+000	-112.581253	-46.323422
1908	1.9080e+000	-111.551285	-46.364299
1909	1.9090e+000	-110.044479	-46.211011
1910	1.9100e+000	-108.976364	-46.527805
1911	1.9110e+000	-108.413696	-46.492038
1912	1.9120e+000	-106.620789	-46.078162
1913	1.9130e+000	-105.276108	-46.042395
1914	1.9140e+000	-104.351044	-45.771588
1915	1.9150e+000	-102.901459	-45.945313
1916	1.9160e+000	-101.718903	-45.924875
1917	1.9170e+000	-100.526810	-45.863560
1918	1.9180e+000	-99.163055	-45.705163
1919	1.9190e+000	-98.085403	-45.863560
1920	1.9200e+000	-96.635818	-46.047505
1921	1.9210e+000	-95.796585	-45.643848
1922	1.9220e+000	-94.566345	-45.863560
1923	1.9230e+000	-93.336105	-45.654068
1924	1.9240e+000	-92.115402	-45.597862
1925	1.9250e+000	-90.904236	-45.587643
1926	1.9260e+000	-89.683533	-45.582534
1927	1.9270e+000	-88.481903	-45.582534
1928	1.9280e+000	-87.232590	-45.577424
1929	1.9290e+000	-86.193085	-45.296397
1930	1.9300e+000	-84.934235	-45.311726
1931	1.9310e+000	-83.684921	-45.321945
1932	1.9320e+000	-82.654953	-45.362822
1933	1.9330e+000	-81.253052	-45.327055
1934	1.9340e+000	-80.003738	-45.219754
1935	1.9350e+000	-79.412460	-45.286178
1936	1.9360e+000	-77.629089	-45.056247
1937	1.9370e+000	-76.742172	-44.954056
1938	1.9380e+000	-75.302124	-45.138000
1939	1.9390e+000	-73.871613	-45.030699
1940	1.9400e+000	-73.003769	-44.616824
1941	1.9410e+000	-71.878433	-45.030699
1942	1.9420e+000	-70.390701	-44.877412
1943	1.9430e+000	-69.475174	-44.918289
1944	1.9440e+000	-68.187714	-44.954056
1945	1.9450e+000	-66.967010	-44.856974
1946	1.9460e+000	-65.851212	-44.841645
1947	1.9470e+000	-64.535141	-44.800768
1948	1.9480e+000	-62.541962	-44.570837
1949	1.9490e+000	-62.026978	-44.586166
1950	1.9500e+000	-60.997009	-44.565728
1951	1.9510e+000	-59.614182	-44.524851
1952	1.9520e+000	-58.498383	-44.386893
1953	1.9530e+000	-57.430267	-44.504413
1954	1.9540e+000	-56.076050	-44.371564
1955	1.9550e+000	-54.883957	-44.029222
1956	1.9560e+000	-53.806305	-44.407331
1957	1.9570e+000	-52.795410	-44.494194
1958	1.9580e+000	-51.450729	-44.187619
1959	1.9590e+000	-50.239563	-44.560618
1960	1.9600e+000	-48.971176	-44.064989
1961	1.9610e+000	-47.750473	-44.110975
1962	1.9620e+000	-46.596527	-44.095647
1963	1.9630e+000	-45.452118	-43.881045
1964	1.9640e+000	-44.097900	-43.957688
1965	1.9650e+000	-42.829514	-43.707319
1966	1.9660e+000	-41.627884	-43.891264
1967	1.9670e+000	-40.397644	-43.697100
1968	1.9680e+000	-39.815903	-43.993455
1969	1.9690e+000	-38.166046	-43.579579
1970	1.9700e+000	-36.859512	-43.758415
1971	1.9710e+000	-35.619736	-43.559141
1972	1.9720e+000	-34.465790	-43.416073
1973	1.9730e+000	-33.531189	-43.625566
1974	1.9740e+000	-32.119751	-43.400744
1975	1.9750e+000	-31.185150	-43.508045
1976	1.9760e+000	-29.344559	-43.308772
1977	1.9770e+000	-28.581619	-43.211690
1978	1.9780e+000	-27.351379	-43.099279
1979	1.9790e+000	-26.273727	-43.119718
1980	1.9800e+000	-24.881363	-43.017526
1981	1.9810e+000	-23.708344	-43.119718
1982	1.9820e+000	-22.783279	-43.109498
1983	1.9830e+000	-21.562576	-43.181033
1984	1.9840e+000	-20.170212	-42.976649
1985	1.9850e+000	-18.949509	-42.935773
1986	1.9860e+000	-17.700195	-42.705842
1987	1.9870e+000	-16.517639	-42.721171
1988	1.9880e+000	-15.239716	-42.649637
1989	1.9890e+000	-14.104843	-42.608760
1990	1.9900e+000	-12.950897	-42.654746
1991	1.9910e+000	-11.463165	-42.404377
1992	1.9920e+000	-10.461807	-42.440144
1993	1.9930e+000	-9.517670	-42.470801
1994	1.9940e+000	-7.247925	-41.893419
1995	1.9950e+000	-6.904602	-42.322624
1996	1.9960e+000	-5.578995	-42.230651
1997	1.9970e+000	-4.568100	-42.159117
1998	1.9980e+000	-3.385544	-42.036487
1999	1.9990e+000	-1.840591	-41.929186
2000	2.0000e+000	-0.991821	-42.041597
2001	2.0010e+000	0.238419	-41.740132

Center data before PMax,±Pr and ±Vc Calc.

PMax (µC/cm2):	4.94e+001
Pr (µC/cm2):	4.33e+001
-Pr (µC/cm2):	-4.17e+001
Vc:	1.19e+000
-Vc:	-8.09e-001
C (Max-Eff) (nF):	1.62e+000
K (Eff):	1.86e+003
Vert. (±Pr) Shift (µC/cm2):	7.98e-001
Horiz. Shift (±Vc):	1.90e-001
Offset (µC/cm2):	4.06e+001

A (Loop Area - µC/cm2·Volts):	1.73e+002



Hysteresis Version: 5.16.2 - Radiant Technologies, Inc., 1999 - 3/20/18

