»»»»»»»»»»»»»»»»»»»»»»»»»»»»»»»»»»»» Hysteresis ««««««««««««««««««««««««««««««««««««
»»»  Executed Version:	5.16.2
»»»  Vision Version:	5.16.10 (R)
»»»  Vision Compiled:	4/26/18
»»»  Driver Version:	5.16.6
»»»  Windows Version:	Windows 8
»»»  Processor Information:	x86 (AMD or Intel) - 8 Processors
»»»  Tester Name:	PPM21016-863
»»»  Tester S/N:	PPM21016-863
»»»  Internal Amp Type:	 RTI ML200V    
»»»  Internal Amp S/N:	 iAB2-0000     
»»»  Execution Count:	1
»»»»»»»»»»»»»»»»»»»»»»»»»»»»»»»»»»»»»»»»»»««««««««««««««««««««««««««««««««««««««««««

Stored:	6/5/2018 - 7:4:7
Configured:	06/05/18 05:57:41 AM
Executed:	06/05/18 07:03:44 AM

»»»»»»»»»»»»»»»»»»»»»»»»»»»»»»»»»»» Sample Info ««««««««««««««««««««««««««««««««««««
Sample Name:	Internal Reference Cap.
Lot Name:	N/A
Wafer Name:	N/A
Die Row/Column:	0/0
Capacitor Number:	0
Sample Area (cm2):	6.20e-005
Sample Thickness (µm):	1.00e-001

Mux Loop Adjustment:	Disabled

Amplifier:	Internal

»»»»»»»»»»»»»»»»»»»»»»»»»»»»»»»»»»» Tester Info «««««««««««««««««««««««««««««««««««
Tester Name:	PPM21016-863
Tester Serial Number:	PPM21016-863
Return Signal Amp. Level:	1.79 [Index: 2]

»»»»»»»»»»»»»»»»»»»»»»»»»»»»»»»» Hysteresis Info ««««««««««««««««««««««««««««««««««
Task Name:	Hyst-1
Volts:	3.00
Field:	300.00 (kV/cm)
Hysteresis Period (ms):	4.00e+000
Preset:	Enabled
Preset Delay (ms):	1.00e+003
Profile:	Double Bipolar

»»»»»»»»»»»»»»»»»»»»»»»»»»»»»»»»»»»»»» Data «««««««««««««««««««««««««««««««««««««««
Points:	2001

Valid Data

Point	Time (ms)	Field (kV/cm)	Measured Polarization
   1	2.0000e-003	-20.217896	-11.319858
   2	4.0000e-003	-19.218445	-11.251325
   3	6.0000e-003	-17.425537	-11.155380
   4	8.0000e-003	-16.731262	-11.021741
   5	1.0000e-002	-15.563965	-10.897698
   6	1.2000e-002	-14.442444	-10.719513
   7	1.4000e-002	-12.992859	-10.483761
   8	1.6000e-002	-12.107849	-10.221967
   9	1.8000e-002	-10.917664	-9.932760
  10	2.0000e-002	-9.376526	-9.616825
  11	2.2000e-002	-8.476257	-9.230302
  12	2.4000e-002	-6.797791	-8.816365
  13	2.6000e-002	-5.950928	-8.427786
  14	2.8000e-002	-4.707336	-7.941205
  15	3.0000e-002	-3.242493	-7.442288
  16	3.2000e-002	-2.456665	-6.948854
  17	3.4000e-002	-1.106262	-6.372496
  18	3.6000e-002	-0.297546	-5.803676
  19	3.8000e-002	1.342773	-5.238968
  20	4.0000e-002	2.235413	-4.601616
  21	4.2000e-002	3.639221	-3.960837
  22	4.4000e-002	4.798889	-3.284421
  23	4.6000e-002	6.187439	-2.580592
  24	4.8000e-002	7.240295	-1.866483
  25	5.0000e-002	8.522034	-1.142780
  26	5.2000e-002	9.681702	-0.386181
  27	5.4000e-002	10.910034	0.447175
  28	5.6000e-002	12.115479	1.254488
  29	5.8000e-002	13.244629	2.104291
  30	6.0000e-002	14.564514	2.949982
  31	6.2000e-002	15.762329	3.847758
  32	6.4000e-002	16.921997	4.756499
  33	6.6000e-002	18.127441	5.636457
  34	6.8000e-002	19.256592	6.582891
  35	7.0000e-002	20.660400	7.545772
  36	7.2000e-002	21.484375	8.522361
  37	7.4000e-002	23.002625	9.507173
  38	7.6000e-002	24.291992	10.502950
  39	7.8000e-002	25.543213	11.540533
  40	8.0000e-002	26.512146	12.613066
  41	8.2000e-002	27.793884	13.643795
  42	8.4000e-002	28.938293	14.689602
  43	8.6000e-002	30.410767	15.756653
  44	8.8000e-002	31.463623	16.833299
  45	9.0000e-002	32.249451	17.898294
  46	9.2000e-002	33.676147	18.950953
  47	9.4000e-002	35.171509	19.976885
  48	9.6000e-002	36.094666	21.079573
  49	9.8000e-002	37.521362	22.093169
  50	1.0000e-001	38.841248	23.066331
  51	1.0200e-001	39.695740	24.007967
  52	1.0400e-001	41.191101	24.935898
  53	1.0600e-001	41.999817	25.808316
  54	1.0800e-001	43.258667	26.597811
  55	1.1000e-001	44.448853	27.319458
  56	1.1200e-001	45.974731	27.973944
  57	1.1400e-001	46.806335	28.545505
  58	1.1600e-001	48.156738	29.049904
  59	1.1800e-001	49.240112	29.515240
  60	1.2000e-001	50.285339	29.907246
  61	1.2200e-001	51.879883	30.281434
  62	1.2400e-001	52.848816	30.587774
  63	1.2600e-001	54.054260	30.848197
  64	1.2800e-001	55.389404	31.122327
  65	1.3000e-001	56.564331	31.345058
  66	1.3200e-001	57.678223	31.573957
  67	1.3400e-001	58.631897	31.782981
  68	1.3600e-001	60.256958	31.940606
  69	1.3800e-001	61.424255	32.119476
  70	1.4000e-001	62.644958	32.277100
  71	1.4200e-001	63.743591	32.431984
  72	1.4400e-001	65.132141	32.582070
  73	1.4600e-001	66.215515	32.711596
  74	1.4800e-001	67.398071	32.826046
  75	1.5000e-001	68.138123	32.952146
  76	1.5200e-001	69.869995	33.046035
  77	1.5400e-001	70.846558	33.178988
  78	1.5600e-001	72.135925	33.266710
  79	1.5800e-001	73.219299	33.346893
  80	1.6000e-001	74.699402	33.455860
  81	1.6200e-001	75.691223	33.568938
  82	1.6400e-001	77.102661	33.620338
  83	1.6600e-001	77.995300	33.711486
  84	1.6800e-001	78.994751	33.781389
  85	1.7000e-001	80.825806	33.875964
  86	1.7200e-001	81.832886	33.928049
  87	1.7400e-001	83.068848	34.027421
  88	1.7600e-001	84.236145	34.091841
  89	1.7800e-001	85.418701	34.150094
  90	1.8000e-001	86.456299	34.233704
  91	1.8200e-001	87.577820	34.276879
  92	1.8400e-001	88.912964	34.341300
  93	1.8600e-001	90.232849	34.402979
  94	1.8800e-001	91.598511	34.458490
  95	1.9000e-001	92.552185	34.520855
  96	1.9200e-001	93.795776	34.555806
  97	1.9400e-001	95.062256	34.621598
  98	1.9600e-001	96.244812	34.681906
  99	1.9800e-001	97.640991	34.755921
 100	2.0000e-001	98.686218	34.758663
 101	2.0200e-001	99.777222	34.821027
 102	2.0400e-001	100.883484	34.861461
 103	2.0600e-001	102.500916	34.940959
 104	2.0800e-001	103.149414	34.972484
 105	2.1000e-001	104.515076	35.032107
 106	2.1200e-001	105.850220	35.060206
 107	2.1400e-001	106.864929	35.105437
 108	2.1600e-001	108.009338	35.147242
 109	2.1800e-001	109.405518	35.197271
 110	2.2000e-001	110.511780	35.223313
 111	2.2200e-001	111.564636	35.263747
 112	2.2400e-001	113.052368	35.305552
 113	2.2600e-001	114.196777	35.352840
 114	2.2800e-001	115.081787	35.372029
 115	2.3000e-001	116.630554	35.424799
 116	2.3200e-001	118.057251	35.461806
 117	2.3400e-001	118.904114	35.505667
 118	2.3600e-001	120.346069	35.538563
 119	2.3800e-001	121.391296	35.577626
 120	2.4000e-001	122.489929	35.590647
 121	2.4200e-001	123.710632	35.645473
 122	2.4400e-001	124.992371	35.689334
 123	2.4600e-001	125.923157	35.698929
 124	2.4800e-001	127.220154	35.729768
 125	2.5000e-001	128.562927	35.787336
 126	2.5200e-001	129.776001	35.833938
 127	2.5400e-001	131.103516	35.853812
 128	2.5600e-001	132.278442	35.856553
 129	2.5800e-001	133.209229	35.933995
 130	2.6000e-001	134.361267	35.953184
 131	2.6200e-001	135.734558	35.986080
 132	2.6400e-001	136.772156	35.996360
 133	2.6600e-001	138.107300	36.045703
 134	2.6800e-001	139.335632	36.081340
 135	2.7000e-001	140.594482	36.110124
 136	2.7200e-001	141.761780	36.144390
 137	2.7400e-001	143.028259	36.132054
 138	2.7600e-001	144.126892	36.193733
 139	2.7800e-001	145.332336	36.236224
 140	2.8000e-001	146.415710	36.261581
 141	2.8200e-001	147.659302	36.298588
 142	2.8400e-001	149.002075	36.346561
 143	2.8600e-001	150.016785	36.332854
 144	2.8800e-001	151.100159	36.398646
 145	2.9000e-001	152.458191	36.408926
 146	2.9200e-001	153.633118	36.441136
 147	2.9400e-001	154.808044	36.463066
 148	2.9600e-001	156.333923	36.506242
 149	2.9800e-001	157.264709	36.533655
 150	3.0000e-001	158.401489	36.564494
 151	3.0200e-001	159.851074	36.591222
 152	3.0400e-001	161.048889	36.611782
 153	3.0600e-001	162.178040	36.634398
 154	3.0800e-001	163.406372	36.678258
 155	3.1000e-001	164.474487	36.668664
 156	3.1200e-001	165.847778	36.723490
 157	3.1400e-001	166.984558	36.750217
 158	3.1600e-001	167.816162	36.786540
 159	3.1800e-001	169.593811	36.802302
 160	3.2000e-001	170.715332	36.843422
 161	3.2200e-001	171.585083	36.869464
 162	3.2400e-001	173.011780	36.897562
 163	3.2600e-001	174.430847	36.927717
 164	3.2800e-001	175.056458	36.945535
 165	3.3000e-001	176.818848	36.992137
 166	3.3200e-001	177.665710	37.006529
 167	3.3400e-001	178.993225	37.025718
 168	3.3600e-001	180.061340	37.048334
 169	3.3800e-001	181.350708	37.093565
 170	3.4000e-001	182.456970	37.090824
 171	3.4200e-001	183.868408	37.153874
 172	3.4400e-001	185.050964	37.157986
 173	3.4600e-001	185.935974	37.172378
 174	3.4800e-001	187.431335	37.225833
 175	3.5000e-001	188.652039	37.250505
 176	3.5200e-001	189.376831	37.265582
 177	3.5400e-001	191.093445	37.299848
 178	3.5600e-001	192.314148	37.315611
 179	3.5800e-001	193.237305	37.340282
 180	3.6000e-001	194.526672	37.364269
 181	3.6200e-001	195.594788	37.388255
 182	3.6400e-001	197.074890	37.411556
 183	3.6600e-001	198.074341	37.434857
 184	3.6800e-001	199.249268	37.473235
 185	3.7000e-001	200.302124	37.512984
 186	3.7200e-001	201.721191	37.513670
 187	3.7400e-001	203.216553	37.546565
 188	3.7600e-001	204.620361	37.573978
 189	3.7800e-001	205.513000	37.600706
 190	3.8000e-001	206.535339	37.605503
 191	3.8200e-001	207.710266	37.628804
 192	3.8400e-001	208.839417	37.661015
 193	3.8600e-001	210.227966	37.662385
 194	3.8800e-001	211.341858	37.708302
 195	3.9000e-001	212.455750	37.741198
 196	3.9200e-001	213.607788	37.758331
 197	3.9400e-001	214.683533	37.784373
 198	3.9600e-001	216.362000	37.804248
 199	3.9800e-001	217.292786	37.852906
 200	4.0000e-001	218.765259	37.843311
 201	4.0200e-001	219.421387	37.865927
 202	4.0400e-001	220.756531	37.856332
 203	4.0600e-001	222.190857	37.927606
 204	4.0800e-001	223.159790	37.946795
 205	4.1000e-001	224.380493	37.952278
 206	4.1200e-001	225.944519	37.985859
 207	4.1400e-001	226.737976	38.024237
 208	4.1600e-001	228.080750	38.037943
 209	4.1800e-001	229.583740	38.067412
 210	4.2000e-001	230.552673	38.081119
 211	4.2200e-001	231.613159	38.103049
 212	4.2400e-001	233.367920	38.134574
 213	4.2600e-001	234.115601	38.171582
 214	4.2800e-001	235.420227	38.179120
 215	4.3000e-001	236.610413	38.211331
 216	4.3200e-001	237.876892	38.233946
 217	4.3400e-001	238.792419	38.249709
 218	4.3600e-001	240.135193	38.293570
 219	4.3800e-001	241.477966	38.334004
 220	4.4000e-001	242.698669	38.322353
 221	4.4200e-001	243.812561	38.362102
 222	4.4400e-001	244.766235	38.349081
 223	4.4600e-001	246.299744	38.392942
 224	4.4800e-001	247.306824	38.423781
 225	4.5000e-001	248.252869	38.441600
 226	4.5200e-001	249.824524	38.446397
 227	4.5400e-001	251.091003	38.502594
 228	4.5600e-001	252.273560	38.511503
 229	4.5800e-001	253.402710	38.555364
 230	4.6000e-001	254.623413	38.576609
 231	4.6200e-001	255.821228	38.595113
 232	4.6400e-001	256.942749	38.602651
 233	4.6600e-001	257.987976	38.614987
 234	4.6800e-001	259.651184	38.637603
 235	4.7000e-001	260.665894	38.673925
 236	4.7200e-001	261.619568	38.696541
 237	4.7400e-001	263.107300	38.713674
 238	4.7600e-001	264.091492	38.722583
 239	4.7800e-001	265.739441	38.808249
 240	4.8000e-001	266.548157	38.799340
 241	4.8200e-001	267.623901	38.814417
 242	4.8400e-001	268.722534	38.815102
 243	4.8600e-001	270.217896	38.848683
 244	4.8800e-001	271.560669	38.885005
 245	4.9000e-001	272.735596	38.893229
 246	4.9200e-001	273.811340	38.917901
 247	4.9400e-001	274.955750	38.922013
 248	4.9600e-001	276.191711	38.956964
 249	4.9800e-001	277.290344	38.969986
 250	5.0000e-001	278.579712	39.009049
 251	5.0200e-001	279.632568	39.023441
 252	5.0400e-001	278.686523	38.996713
 253	5.0600e-001	277.008057	38.999455
 254	5.0800e-001	276.130676	38.975468
 255	5.1000e-001	274.902344	38.936405
 256	5.1200e-001	273.445129	38.922013
 257	5.1400e-001	272.552490	38.915845
 258	5.1600e-001	271.476746	38.893914
 259	5.1800e-001	269.943237	38.880208
 260	5.2000e-001	268.516541	38.847312
 261	5.2200e-001	267.753601	38.808249
 262	5.2400e-001	266.563416	38.807563
 263	5.2600e-001	265.113831	38.787689
 264	5.2800e-001	264.160156	38.767129
 265	5.3000e-001	262.695313	38.734919
 266	5.3200e-001	261.726379	38.740402
 267	5.3400e-001	260.543823	38.729436
 268	5.3600e-001	259.300232	38.683520
 269	5.3800e-001	257.858276	38.669813
 270	5.4000e-001	257.102966	38.636232
 271	5.4200e-001	255.813599	38.617728
 272	5.4400e-001	254.470825	38.594427
 273	5.4600e-001	253.326416	38.577294
 274	5.4800e-001	252.067566	38.597169
 275	5.5000e-001	250.976563	38.526580
 276	5.5200e-001	249.694824	38.516986
 277	5.5400e-001	248.504639	38.490258
 278	5.5600e-001	247.398376	38.455992
 279	5.5800e-001	245.925903	38.479293
 280	5.6000e-001	244.819641	38.433376
 281	5.6200e-001	243.728638	38.389515
 282	5.6400e-001	242.271423	38.401166
 283	5.6600e-001	241.264343	38.363473
 284	5.6800e-001	240.196228	38.352508
 285	5.7000e-001	239.158630	38.334689
 286	5.7200e-001	237.693787	38.320983
 287	5.7400e-001	236.679077	38.286031
 288	5.7600e-001	235.351563	38.287402
 289	5.7800e-001	233.856201	38.240800
 290	5.8000e-001	233.421326	38.261359
 291	5.8200e-001	231.712341	38.199680
 292	5.8400e-001	230.323792	38.174323
 293	5.8600e-001	229.591370	38.177750
 294	5.8800e-001	227.989197	38.140742
 295	5.9000e-001	227.073669	38.121553
 296	5.9200e-001	225.769043	38.107161
 297	5.9400e-001	224.357605	38.068783
 298	5.9600e-001	223.411560	38.053021
 299	5.9800e-001	222.145081	38.032461
 300	6.0000e-001	220.787048	38.003677
 301	6.0200e-001	219.520569	37.980376
 302	6.0400e-001	218.406677	37.940627
 303	6.0600e-001	217.292786	37.941313
 304	6.0800e-001	216.171265	37.917326
 305	6.1000e-001	214.744568	37.891284
 306	6.1200e-001	213.539124	37.880319
 307	6.1400e-001	212.577820	37.848108
 308	6.1600e-001	211.433411	37.813157
 309	6.1800e-001	209.861755	37.816583
 310	6.2000e-001	208.938599	37.781632
 311	6.2200e-001	207.870483	37.772037
 312	6.2400e-001	206.649780	37.737086
 313	6.2600e-001	205.146790	37.725435
 314	6.2800e-001	204.071045	37.686372
 315	6.3000e-001	202.896118	37.671980
 316	6.3200e-001	202.102661	37.650735
 317	6.3400e-001	200.523376	37.624692
 318	6.3600e-001	199.440002	37.617839
 319	6.3800e-001	198.104858	37.580146
 320	6.4000e-001	196.929932	37.553419
 321	6.4200e-001	195.938110	37.542453
 322	6.4400e-001	194.511414	37.503390
 323	6.4600e-001	193.138123	37.503390
 324	6.4800e-001	192.184448	37.482145
 325	6.5000e-001	191.101074	37.451305
 326	6.5200e-001	189.575195	37.425948
 327	6.5400e-001	189.125061	37.403332
 328	6.5600e-001	187.408447	37.393052
 329	6.5800e-001	185.974121	37.349192
 330	6.6000e-001	185.043335	37.292995
 331	6.6200e-001	183.784485	37.299848
 332	6.6400e-001	182.327271	37.309443
 333	6.6600e-001	181.526184	37.264897
 334	6.6800e-001	179.855347	37.239540
 335	6.7000e-001	179.130554	37.188826
 336	6.7200e-001	177.612305	37.181972
 337	6.7400e-001	176.506042	37.180602
 338	6.7600e-001	175.399780	37.142223
 339	6.7800e-001	174.484253	37.099048
 340	6.8000e-001	172.966003	37.103845
 341	6.8200e-001	171.623230	37.052446
 342	6.8400e-001	170.715332	37.045593
 343	6.8600e-001	169.517517	37.051761
 344	6.8800e-001	168.090820	36.997620
 345	6.9000e-001	166.877747	36.968836
 346	6.9200e-001	165.596008	36.938682
 347	6.9400e-001	164.634705	36.922919
 348	6.9600e-001	163.177490	36.905101
 349	6.9800e-001	162.376404	36.865352
 350	7.0000e-001	161.178589	36.805729
 351	7.0200e-001	159.561157	36.816009
 352	7.0400e-001	158.309937	36.800932
 353	7.0600e-001	157.417297	36.783798
 354	7.0800e-001	156.219482	36.740623
 355	7.1000e-001	154.815674	36.700189
 356	7.1200e-001	153.747559	36.710469
 357	7.1400e-001	152.648926	36.661811
 358	7.1600e-001	151.206970	36.645363
 359	7.1800e-001	150.222778	36.611782
 360	7.2000e-001	148.956299	36.609040
 361	7.2200e-001	147.720337	36.565865
 362	7.2400e-001	146.469116	36.563124
 363	7.2600e-001	145.164490	36.514466
 364	7.2800e-001	144.203186	36.504871
 365	7.3000e-001	142.944336	36.475402
 366	7.3200e-001	141.647339	36.429485
 367	7.3400e-001	140.373230	36.430856
 368	7.3600e-001	139.427185	36.397960
 369	7.3800e-001	137.962341	36.417835
 370	7.4000e-001	136.802673	36.342449
 371	7.4200e-001	136.215210	36.313665
 372	7.4400e-001	134.445190	36.288994
 373	7.4600e-001	133.201599	36.252671
 374	7.4800e-001	132.263184	36.228685
 375	7.5000e-001	130.897522	36.210181
 376	7.5200e-001	129.554749	36.184824
 377	7.5400e-001	128.494263	36.157411
 378	7.5600e-001	127.120972	36.140963
 379	7.5800e-001	125.755310	36.092991
 380	7.6000e-001	124.984741	36.077228
 381	7.6200e-001	123.588562	36.056668
 382	7.6400e-001	122.566223	36.011437
 383	7.6600e-001	121.055603	35.930569
 384	7.6800e-001	120.056152	35.956611
 385	7.7000e-001	118.377686	35.925771
 386	7.7200e-001	117.469788	35.903841
 387	7.7400e-001	116.401672	35.872316
 388	7.7600e-001	115.318298	35.843532
 389	7.7800e-001	114.334106	35.820917
 390	7.8000e-001	112.945557	35.789392
 391	7.8200e-001	111.557007	35.771573
 392	7.8400e-001	110.565186	35.744160
 393	7.8600e-001	109.336853	35.709894
 394	7.8800e-001	108.047485	35.694817
 395	7.9000e-001	107.124329	35.657124
 396	7.9200e-001	105.842590	35.620116
 397	7.9400e-001	104.446411	35.594759
 398	7.9600e-001	103.340149	35.561864
 399	7.9800e-001	102.249146	35.521429
 400	8.0000e-001	100.845337	35.509094
 401	8.0200e-001	99.617004	35.471401
 402	8.0400e-001	98.739624	35.454268
 403	8.0600e-001	96.984863	35.414519
 404	8.0800e-001	95.771790	35.380253
 405	8.1000e-001	94.871521	35.341874
 406	8.1200e-001	93.696594	35.316517
 407	8.1400e-001	92.430115	35.303496
 408	8.1600e-001	91.239929	35.277454
 409	8.1800e-001	90.049744	35.216460
 410	8.2000e-001	88.745117	35.208236
 411	8.2200e-001	87.707520	35.197271
 412	8.2400e-001	86.380005	35.128738
 413	8.2600e-001	85.197449	35.101325
 414	8.2800e-001	84.297180	35.076653
 415	8.3000e-001	82.908630	35.038961
 416	8.3200e-001	81.748962	35.045814
 417	8.3400e-001	80.528259	34.968372
 418	8.3600e-001	79.490662	34.947127
 419	8.3800e-001	77.728271	34.872427
 420	8.4000e-001	76.942444	34.872427
 421	8.4200e-001	75.538635	34.843643
 422	8.4400e-001	74.447632	34.798411
 423	8.4600e-001	73.448181	34.763460
 424	8.4800e-001	72.486877	34.736732
 425	8.5000e-001	70.755005	34.682592
 426	8.5200e-001	69.732666	34.653808
 427	8.5400e-001	68.580627	34.612003
 428	8.5600e-001	67.230225	34.595555
 429	8.5800e-001	66.040039	34.552380
 430	8.6000e-001	64.933777	34.534561
 431	8.6200e-001	63.507080	34.500295
 432	8.6400e-001	62.271118	34.442728
 433	8.6600e-001	61.119080	34.409832
 434	8.6800e-001	60.592651	34.350894
 435	8.7000e-001	58.822632	34.333076
 436	8.7200e-001	57.731628	34.305663
 437	8.7400e-001	56.350708	34.270711
 438	8.7600e-001	55.038452	34.202864
 439	8.7800e-001	54.153442	34.161744
 440	8.8000e-001	52.764893	34.126793
 441	8.8200e-001	51.696777	34.074708
 442	8.8400e-001	50.270081	34.029477
 443	8.8600e-001	49.354553	33.988357
 444	8.8800e-001	47.904968	33.964371
 445	8.9000e-001	46.684265	33.880076
 446	8.9200e-001	45.692444	33.860887
 447	8.9400e-001	44.578552	33.821823
 448	8.9600e-001	42.778015	33.751920
 449	8.9800e-001	42.037964	33.726563
 450	9.0000e-001	40.824890	33.668310
 451	9.0200e-001	39.764404	33.629247
 452	9.0400e-001	38.536072	33.568938
 453	9.0600e-001	37.513733	33.507944
 454	9.0800e-001	35.942078	33.455174
 455	9.1000e-001	34.866333	33.399663
 456	9.1200e-001	33.737183	33.352375
 457	9.1400e-001	32.653809	33.284528
 458	9.1600e-001	31.356812	33.213940
 459	9.1800e-001	30.189514	33.152946
 460	9.2000e-001	29.045105	33.090581
 461	9.2200e-001	27.580261	33.052888
 462	9.2400e-001	26.458740	32.945292
 463	9.2600e-001	25.390625	32.884984
 464	9.2800e-001	24.070740	32.825360
 465	9.3000e-001	22.583008	32.733527
 466	9.3200e-001	21.759033	32.662938
 467	9.3400e-001	20.446777	32.578643
 468	9.3600e-001	19.271851	32.477215
 469	9.3800e-001	18.066406	32.401829
 470	9.4000e-001	17.112732	32.312052
 471	9.4200e-001	15.830994	32.207197
 472	9.4400e-001	14.312744	32.096860
 473	9.4600e-001	13.130188	31.998173
 474	9.4800e-001	12.069702	31.883038
 475	9.5000e-001	10.871887	31.756253
 476	9.5200e-001	9.361267	31.632895
 477	9.5400e-001	8.422852	31.495144
 478	9.5600e-001	7.293701	31.325184
 479	9.5800e-001	6.309509	31.179895
 480	9.6000e-001	4.798889	31.008564
 481	9.6200e-001	3.822327	30.824896
 482	9.6400e-001	2.517700	30.619299
 483	9.6600e-001	1.487732	30.421925
 484	9.6800e-001	0.320435	30.213586
 485	9.7000e-001	-1.327515	29.999080
 486	9.7200e-001	-2.105713	29.686571
 487	9.7400e-001	-3.257751	29.407644
 488	9.7600e-001	-4.760742	29.075947
 489	9.7800e-001	-5.737305	28.729172
 490	9.8000e-001	-7.057190	28.356355
 491	9.8200e-001	-8.453369	27.940363
 492	9.8400e-001	-9.346008	27.507237
 493	9.8600e-001	-10.452271	26.987761
 494	9.8800e-001	-11.901855	26.496383
 495	9.9000e-001	-13.175964	25.867940
 496	9.9200e-001	-14.266968	25.244979
 497	9.9400e-001	-15.151978	24.550059
 498	9.9600e-001	-16.815186	23.796202
 499	9.9800e-001	-17.890930	22.989574
 500	1.0000e+000	-19.279480	22.138400
 501	1.0020e+000	-20.065308	21.170721
 502	1.0040e+000	-21.331787	20.155755
 503	1.0060e+000	-22.880554	19.131194
 504	1.0080e+000	-23.712158	17.971624
 505	1.0100e+000	-24.902344	16.793550
 506	1.0120e+000	-26.344299	15.555852
 507	1.0140e+000	-27.351379	14.248937
 508	1.0160e+000	-28.816223	12.986569
 509	1.0180e+000	-29.747009	11.604953
 510	1.0200e+000	-31.013489	10.235673
 511	1.0220e+000	-32.180786	8.796491
 512	1.0240e+000	-33.378601	7.414190
 513	1.0260e+000	-34.545898	6.009959
 514	1.0280e+000	-35.644531	4.638623
 515	1.0300e+000	-36.926270	3.268658
 516	1.0320e+000	-38.352966	1.976135
 517	1.0340e+000	-39.154053	0.714451
 518	1.0360e+000	-40.618896	-0.539008
 519	1.0380e+000	-41.679382	-1.665683
 520	1.0400e+000	-42.938232	-2.780021
 521	1.0420e+000	-44.097900	-3.794303
 522	1.0440e+000	-44.624329	-4.784597
 523	1.0460e+000	-46.600342	-5.709101
 524	1.0480e+000	-47.729492	-6.582891
 525	1.0500e+000	-49.011230	-7.419673
 526	1.0520e+000	-50.186157	-8.210538
 527	1.0540e+000	-51.422119	-8.964395
 528	1.0560e+000	-52.818298	-9.687413
 529	1.0580e+000	-53.756714	-10.354235
 530	1.0600e+000	-54.893494	-10.995699
 531	1.0620e+000	-56.091309	-11.624828
 532	1.0640e+000	-57.579041	-12.208039
 533	1.0660e+000	-58.494568	-12.778230
 534	1.0680e+000	-59.982300	-13.312098
 535	1.0700e+000	-61.088562	-13.861729
 536	1.0720e+000	-62.385559	-14.358589
 537	1.0740e+000	-63.407898	-14.843114
 538	1.0760e+000	-64.697266	-15.344772
 539	1.0780e+000	-65.933228	-15.791604
 540	1.0800e+000	-66.993713	-16.259681
 541	1.0820e+000	-68.161011	-16.667450
 542	1.0840e+000	-69.656372	-17.080016
 543	1.0860e+000	-70.655823	-17.476819
 544	1.0880e+000	-71.624756	-17.868139
 545	1.0900e+000	-73.081970	-18.234788
 546	1.0920e+000	-74.409485	-18.594584
 547	1.0940e+000	-75.370789	-18.978366
 548	1.0960e+000	-76.568604	-19.301154
 549	1.0980e+000	-77.850342	-19.573914
 550	1.1000e+000	-79.284668	-19.909038
 551	1.1020e+000	-80.024719	-20.209210
 552	1.1040e+000	-81.619263	-20.518292
 553	1.1060e+000	-82.649231	-20.793107
 554	1.1080e+000	-84.167480	-21.078888
 555	1.1100e+000	-84.877014	-21.337255
 556	1.1120e+000	-86.395264	-21.620980
 557	1.1140e+000	-87.379456	-21.872494
 558	1.1160e+000	-88.722229	-22.127435
 559	1.1180e+000	-89.675903	-22.362502
 560	1.1200e+000	-90.896606	-22.604421
 561	1.1220e+000	-92.140198	-22.864160
 562	1.1240e+000	-93.566895	-23.106765
 563	1.1260e+000	-94.459534	-23.293859
 564	1.1280e+000	-95.466614	-23.523442
 565	1.1300e+000	-97.366333	-23.752341
 566	1.1320e+000	-98.335266	-23.956568
 567	1.1340e+000	-99.525452	-24.156683
 568	1.1360e+000	-100.723267	-24.375302
 569	1.1380e+000	-102.088928	-24.591179
 570	1.1400e+000	-103.141785	-24.755657
 571	1.1420e+000	-104.217529	-24.958513
 572	1.1440e+000	-105.453491	-25.170279
 573	1.1460e+000	-106.460571	-25.345037
 574	1.1480e+000	-107.933044	-25.525962
 575	1.1500e+000	-109.313965	-25.731560
 576	1.1520e+000	-110.023499	-25.884388
 577	1.1540e+000	-111.564636	-26.053663
 578	1.1560e+000	-112.648010	-26.257204
 579	1.1580e+000	-113.525391	-26.416885
 580	1.1600e+000	-115.272522	-26.595755
 581	1.1620e+000	-116.493225	-26.737617
 582	1.1640e+000	-117.271423	-26.897298
 583	1.1660e+000	-118.438721	-27.087818
 584	1.1680e+000	-119.773865	-27.261891
 585	1.1700e+000	-121.032715	-27.383879
 586	1.1720e+000	-122.215271	-27.552469
 587	1.1740e+000	-123.802185	-27.703926
 588	1.1760e+000	-124.649048	-27.854012
 589	1.1780e+000	-125.732422	-27.999986
 590	1.1800e+000	-126.808167	-28.124715
 591	1.1820e+000	-128.273010	-28.280284
 592	1.1840e+000	-129.531860	-28.418720
 593	1.1860e+000	-130.783081	-28.556470
 594	1.1880e+000	-131.675720	-28.702444
 595	1.1900e+000	-132.926941	-28.828544
 596	1.1920e+000	-134.231567	-28.951903
 597	1.1940e+000	-135.513306	-29.104045
 598	1.1960e+000	-136.589050	-29.204788
 599	1.1980e+000	-137.901306	-29.365154
 600	1.2000e+000	-139.015198	-29.478232
 601	1.2020e+000	-139.907837	-29.566639
 602	1.2040e+000	-141.349792	-29.753733
 603	1.2060e+000	-142.578125	-29.847623
 604	1.2080e+000	-143.798828	-29.964813
 605	1.2100e+000	-145.118713	-30.078577
 606	1.2120e+000	-145.828247	-30.200565
 607	1.2140e+000	-147.209167	-30.290343
 608	1.2160e+000	-148.796082	-30.465101
 609	1.2180e+000	-149.856567	-30.550766
 610	1.2200e+000	-151.153564	-30.658362
 611	1.2220e+000	-152.191162	-30.774182
 612	1.2240e+000	-153.442383	-30.875610
 613	1.2260e+000	-154.762268	-31.007193
 614	1.2280e+000	-155.746460	-31.096285
 615	1.2300e+000	-157.135010	-31.197028
 616	1.2320e+000	-158.195496	-31.299141
 617	1.2340e+000	-159.416199	-31.406052
 618	1.2360e+000	-160.659790	-31.513648
 619	1.2380e+000	-161.979675	-31.618503
 620	1.2400e+000	-162.841797	-31.706224
 621	1.2420e+000	-164.245605	-31.814506
 622	1.2440e+000	-165.565491	-31.880982
 623	1.2460e+000	-166.534424	-31.996802
 624	1.2480e+000	-168.106079	-32.090007
 625	1.2500e+000	-169.166565	-32.170190
 626	1.2520e+000	-170.036316	-32.267506
 627	1.2540e+000	-171.669006	-32.384696
 628	1.2560e+000	-172.737122	-32.451173
 629	1.2580e+000	-173.645020	-32.534783
 630	1.2600e+000	-175.178528	-32.634155
 631	1.2620e+000	-176.139832	-32.695834
 632	1.2640e+000	-177.505493	-32.787668
 633	1.2660e+000	-178.955078	-32.878130
 634	1.2680e+000	-179.656982	-32.953516
 635	1.2700e+000	-181.182861	-33.044664
 636	1.2720e+000	-182.113647	-33.102917
 637	1.2740e+000	-183.258057	-33.195436
 638	1.2760e+000	-184.402466	-33.249577
 639	1.2780e+000	-185.806274	-33.363341
 640	1.2800e+000	-187.004089	-33.418167
 641	1.2820e+000	-187.881470	-33.500406
 642	1.2840e+000	-189.300537	-33.566882
 643	1.2860e+000	-190.452576	-33.627191
 644	1.2880e+000	-191.444397	-33.683387
 645	1.2900e+000	-193.229675	-33.777962
 646	1.2920e+000	-194.252014	-33.865684
 647	1.2940e+000	-195.182800	-33.935587
 648	1.2960e+000	-196.739197	-34.008232
 649	1.2980e+000	-197.776794	-34.069911
 650	1.3000e+000	-198.989868	-34.109660
 651	1.3020e+000	-200.149536	-34.176136
 652	1.3040e+000	-201.477051	-34.257005
 653	1.3060e+000	-202.140808	-34.326222
 654	1.3080e+000	-203.880310	-34.389958
 655	1.3100e+000	-204.986572	-34.446840
 656	1.3120e+000	-206.031799	-34.516058
 657	1.3140e+000	-207.435608	-34.587331
 658	1.3160e+000	-208.610535	-34.662032
 659	1.3180e+000	-210.006714	-34.703837
 660	1.3200e+000	-210.899353	-34.772369
 661	1.3220e+000	-212.150574	-34.825139
 662	1.3240e+000	-213.294983	-34.869685
 663	1.3260e+000	-214.744568	-34.926567
 664	1.3280e+000	-215.850830	-34.981393
 665	1.3300e+000	-217.086792	-35.054038
 666	1.3320e+000	-218.330383	-35.108864
 667	1.3340e+000	-219.169617	-35.092416
 668	1.3360e+000	-220.710754	-35.213719
 669	1.3380e+000	-221.641541	-35.264433
 670	1.3400e+000	-222.984314	-35.324056
 671	1.3420e+000	-224.395752	-35.363119
 672	1.3440e+000	-225.540161	-35.410407
 673	1.3460e+000	-226.593018	-35.476883
 674	1.3480e+000	-227.882385	-35.539248
 675	1.3500e+000	-229.232788	-35.537192
 676	1.3520e+000	-230.278015	-35.625599
 677	1.3540e+000	-230.949402	-35.691390
 678	1.3560e+000	-232.704163	-35.722230
 679	1.3580e+000	-233.871460	-35.766776
 680	1.3600e+000	-234.954834	-35.816805
 681	1.3620e+000	-236.511230	-35.894932
 682	1.3640e+000	-237.373352	-35.921659
 683	1.3660e+000	-238.876343	-35.947016
 684	1.3680e+000	-239.753723	-36.008010
 685	1.3700e+000	-240.997314	-36.051186
 686	1.3720e+000	-242.164612	-36.097788
 687	1.3740e+000	-243.370056	-36.140278
 688	1.3760e+000	-244.621277	-36.208125
 689	1.3780e+000	-245.651245	-36.236909
 690	1.3800e+000	-247.154236	-36.284882
 691	1.3820e+000	-248.008728	-36.317777
 692	1.3840e+000	-249.595642	-36.358211
 693	1.3860e+000	-250.579834	-36.414408
 694	1.3880e+000	-251.983643	-36.463752
 695	1.3900e+000	-252.929688	-36.454842
 696	1.3920e+000	-254.264832	-36.504186
 697	1.3940e+000	-255.256653	-36.580942
 698	1.3960e+000	-256.652832	-36.626174
 699	1.3980e+000	-257.629395	-36.652901
 700	1.4000e+000	-258.850098	-36.684426
 701	1.4020e+000	-260.185242	-36.727602
 702	1.4040e+000	-261.337280	-36.778316
 703	1.4060e+000	-262.603760	-36.829030
 704	1.4080e+000	-263.931274	-36.884541
 705	1.4100e+000	-265.228271	-36.874947
 706	1.4120e+000	-266.044617	-36.916751
 707	1.4140e+000	-267.395020	-36.983913
 708	1.4160e+000	-268.638611	-36.994193
 709	1.4180e+000	-269.905090	-37.042851
 710	1.4200e+000	-271.179199	-37.092195
 711	1.4220e+000	-272.270203	-37.118922
 712	1.4240e+000	-273.246765	-37.144279
 713	1.4260e+000	-274.719238	-37.183343
 714	1.4280e+000	-275.810242	-37.232001
 715	1.4300e+000	-276.847839	-37.287512
 716	1.4320e+000	-278.358459	-37.313555
 717	1.4340e+000	-279.273987	-37.334800
 718	1.4360e+000	-280.540466	-37.403332
 719	1.4380e+000	-281.669617	-37.441711
 720	1.4400e+000	-283.317566	-37.442396
 721	1.4420e+000	-284.187317	-37.486257
 722	1.4440e+000	-285.438538	-37.528061
 723	1.4460e+000	-286.537170	-37.568496
 724	1.4480e+000	-287.887573	-37.597965
 725	1.4500e+000	-288.848877	-37.630175
 726	1.4520e+000	-290.214539	-37.664441
 727	1.4540e+000	-291.351318	-37.695281
 728	1.4560e+000	-292.755127	-37.739827
 729	1.4580e+000	-293.991089	-37.787114
 730	1.4600e+000	-294.952393	-37.836458
 731	1.4620e+000	-296.485901	-37.863871
 732	1.4640e+000	-297.599792	-37.907046
 733	1.4660e+000	-298.446655	-37.925550
 734	1.4680e+000	-299.911499	-37.956390
 735	1.4700e+000	-301.010132	-37.980376
 736	1.4720e+000	-302.108765	-38.030405
 737	1.4740e+000	-303.565979	-38.069468
 738	1.4760e+000	-304.512024	-38.100308
 739	1.4780e+000	-305.862427	-38.142113
 740	1.4800e+000	-307.128906	-38.172267
 741	1.4820e+000	-308.074951	-38.192827
 742	1.4840e+000	-309.356689	-38.229834
 743	1.4860e+000	-310.676575	-38.287402
 744	1.4880e+000	-311.759949	-38.317556
 745	1.4900e+000	-312.881470	-38.329207
 746	1.4920e+000	-314.292908	-38.375809
 747	1.4940e+000	-315.505981	-38.441600
 748	1.4960e+000	-316.474915	-38.465586
 749	1.4980e+000	-318.145752	-38.473125
 750	1.5000e+000	-318.923950	-38.503964
 751	1.5020e+000	-320.037842	-38.567700
 752	1.5040e+000	-319.145203	-38.548511
 753	1.5060e+000	-317.962646	-38.531377
 754	1.5080e+000	-316.604614	-38.521783
 755	1.5100e+000	-315.696716	-38.506020
 756	1.5120e+000	-314.208984	-38.490943
 757	1.5140e+000	-312.927246	-38.469013
 758	1.5160e+000	-312.095642	-38.449824
 759	1.5180e+000	-310.592651	-38.434061
 760	1.5200e+000	-309.417725	-38.384033
 761	1.5220e+000	-308.380127	-38.388145
 762	1.5240e+000	-307.014465	-38.369641
 763	1.5260e+000	-305.816650	-38.385403
 764	1.5280e+000	-304.679871	-38.350452
 765	1.5300e+000	-303.337097	-38.318241
 766	1.5320e+000	-302.322388	-38.312073
 767	1.5340e+000	-300.804138	-38.292884
 768	1.5360e+000	-299.743652	-38.258618
 769	1.5380e+000	-298.423767	-38.245597
 770	1.5400e+000	-297.447205	-38.228464
 771	1.5420e+000	-296.005249	-38.199680
 772	1.5440e+000	-295.166016	-38.159931
 773	1.5460e+000	-293.876648	-38.203792
 774	1.5480e+000	-292.770386	-38.146225
 775	1.5500e+000	-291.107178	-38.118812
 776	1.5520e+000	-290.283203	-38.104420
 777	1.5540e+000	-289.047241	-38.081119
 778	1.5560e+000	-287.834167	-38.063300
 779	1.5580e+000	-286.582947	-38.027663
 780	1.5600e+000	-285.400391	-38.024237
 781	1.5620e+000	-284.179688	-37.987915
 782	1.5640e+000	-283.119202	-37.967355
 783	1.5660e+000	-281.707764	-37.940627
 784	1.5680e+000	-280.624390	-37.950907
 785	1.5700e+000	-279.571533	-37.896081
 786	1.5720e+000	-278.465271	-37.885801
 787	1.5740e+000	-276.885986	-37.862500
 788	1.5760e+000	-275.871277	-37.830290
 789	1.5780e+000	-274.505615	-37.821381
 790	1.5800e+000	-273.254395	-37.795338
 791	1.5820e+000	-272.056580	-37.737771
 792	1.5840e+000	-271.064758	-37.748736
 793	1.5860e+000	-270.156860	-37.718582
 794	1.5880e+000	-268.646240	-37.683630
 795	1.5900e+000	-267.410278	-37.660329
 796	1.5920e+000	-266.349792	-37.648679
 797	1.5940e+000	-265.014648	-37.619210
 798	1.5960e+000	-264.190674	-37.616468
 799	1.5980e+000	-262.420654	-37.547251
 800	1.6000e+000	-261.253357	-37.526005
 801	1.6020e+000	-260.307312	-37.524635
 802	1.6040e+000	-259.155273	-37.482830
 803	1.6060e+000	-257.629395	-37.460900
 804	1.6080e+000	-256.599426	-37.437599
 805	1.6100e+000	-255.355835	-37.401962
 806	1.6120e+000	-254.158020	-37.368381
 807	1.6140e+000	-252.990723	-37.343024
 808	1.6160e+000	-251.632690	-37.334114
 809	1.6180e+000	-250.480652	-37.271065
 810	1.6200e+000	-249.427795	-37.264211
 811	1.6220e+000	-248.565674	-37.230630
 812	1.6240e+000	-246.925354	-37.223092
 813	1.6260e+000	-245.880127	-37.194308
 814	1.6280e+000	-244.766235	-37.175119
 815	1.6300e+000	-243.804932	-37.132629
 816	1.6320e+000	-242.332458	-37.122349
 817	1.6340e+000	-241.043091	-37.090824
 818	1.6360e+000	-239.532471	-37.085341
 819	1.6380e+000	-238.426208	-36.972263
 820	1.6400e+000	-237.319946	-36.988025
 821	1.6420e+000	-236.328125	-36.962668
 822	1.6440e+000	-234.947205	-36.931829
 823	1.6460e+000	-233.787537	-36.898933
 824	1.6480e+000	-232.604980	-36.868779
 825	1.6500e+000	-231.330872	-36.857813
 826	1.6520e+000	-230.087280	-36.818750
 827	1.6540e+000	-229.087830	-36.779686
 828	1.6560e+000	-227.943420	-36.769407
 829	1.6580e+000	-226.715088	-36.720063
 830	1.6600e+000	-225.555420	-36.701559
 831	1.6620e+000	-224.205017	-36.661811
 832	1.6640e+000	-222.976685	-36.608355
 833	1.6660e+000	-221.771240	-36.596019
 834	1.6680e+000	-220.565796	-36.578886
 835	1.6700e+000	-219.329834	-36.528857
 836	1.6720e+000	-218.292236	-36.500759
 837	1.6740e+000	-217.170715	-36.469234
 838	1.6760e+000	-216.171265	-36.461010
 839	1.6780e+000	-214.630127	-36.414408
 840	1.6800e+000	-213.623047	-36.359582
 841	1.6820e+000	-212.127686	-36.335596
 842	1.6840e+000	-211.105347	-36.315036
 843	1.6860e+000	-209.709167	-36.260210
 844	1.6880e+000	-208.244324	-36.229370
 845	1.6900e+000	-207.489014	-36.204013
 846	1.6920e+000	-206.420898	-36.165635
 847	1.6940e+000	-205.032349	-36.108753
 848	1.6960e+000	-204.063416	-36.090249
 849	1.6980e+000	-202.667236	-36.060780
 850	1.7000e+000	-201.377869	-36.017605
 851	1.7020e+000	-200.241089	-35.977171
 852	1.7040e+000	-198.806763	-35.944275
 853	1.7060e+000	-197.769165	-35.925771
 854	1.7080e+000	-196.754456	-35.889449
 855	1.7100e+000	-195.602417	-35.821602
 856	1.7120e+000	-194.198608	-35.787336
 857	1.7140e+000	-193.168640	-35.771573
 858	1.7160e+000	-191.726685	-35.721544
 859	1.7180e+000	-190.498352	-35.679740
 860	1.7200e+000	-188.720703	-35.622172
 861	1.7220e+000	-188.148499	-35.617375
 862	1.7240e+000	-186.706543	-35.555696
 863	1.7260e+000	-185.813904	-35.526912
 864	1.7280e+000	-184.524536	-35.480310
 865	1.7300e+000	-183.387756	-35.404239
 866	1.7320e+000	-182.029724	-35.376826
 867	1.7340e+000	-180.931091	-35.363119
 868	1.7360e+000	-179.939270	-35.306237
 869	1.7380e+000	-178.611755	-35.269915
 870	1.7400e+000	-177.253723	-35.198641
 871	1.7420e+000	-175.842285	-35.174655
 872	1.7440e+000	-174.858093	-35.119144
 873	1.7460e+000	-173.919678	-35.098584
 874	1.7480e+000	-172.447205	-35.034163
 875	1.7500e+000	-171.325684	-34.984820
 876	1.7520e+000	-170.219421	-34.909434
 877	1.7540e+000	-169.021606	-34.888874
 878	1.7560e+000	-167.900085	-34.855979
 879	1.7580e+000	-166.587830	-34.797041
 880	1.7600e+000	-165.367126	-34.724396
 881	1.7620e+000	-164.367676	-34.709319
 882	1.7640e+000	-162.956238	-34.635989
 883	1.7660e+000	-161.743164	-34.615430
 884	1.7680e+000	-160.423279	-34.557862
 885	1.7700e+000	-159.187317	-34.466714
 886	1.7720e+000	-158.058167	-34.401608
 887	1.7740e+000	-156.898499	-34.364601
 888	1.7760e+000	-155.677795	-34.305663
 889	1.7780e+000	-154.678345	-34.252207
 890	1.7800e+000	-153.289795	-34.196696
 891	1.7820e+000	-151.916504	-34.149409
 892	1.7840e+000	-151.016235	-34.073337
 893	1.7860e+000	-149.734497	-34.012344
 894	1.7880e+000	-148.735046	-33.966427
 895	1.7900e+000	-147.010803	-33.893097
 896	1.7920e+000	-145.996094	-33.823194
 897	1.7940e+000	-144.729614	-33.742325
 898	1.7960e+000	-143.722534	-33.681332
 899	1.7980e+000	-142.578125	-33.640897
 900	1.8000e+000	-141.494751	-33.566882
 901	1.8020e+000	-140.335083	-33.482587
 902	1.8040e+000	-138.954163	-33.422279
 903	1.8060e+000	-137.542725	-33.359229
 904	1.8080e+000	-136.535645	-33.287955
 905	1.8100e+000	-135.322571	-33.210513
 906	1.8120e+000	-134.307861	-33.129645
 907	1.8140e+000	-132.728577	-33.052203
 908	1.8160e+000	-131.668091	-33.006972
 909	1.8180e+000	-130.455017	-32.927474
 910	1.8200e+000	-129.257202	-32.823304
 911	1.8220e+000	-128.570557	-32.757513
 912	1.8240e+000	-126.914978	-32.675274
 913	1.8260e+000	-125.755310	-32.590294
 914	1.8280e+000	-124.786377	-32.512167
 915	1.8300e+000	-123.130798	-32.424445
 916	1.8320e+000	-122.245789	-32.327814
 917	1.8340e+000	-121.063232	-32.256541
 918	1.8360e+000	-119.857788	-32.171560
 919	1.8380e+000	-118.667603	-32.085209
 920	1.8400e+000	-117.431641	-31.980355
 921	1.8420e+000	-116.027832	-31.962536
 922	1.8440e+000	-115.089417	-31.819988
 923	1.8460e+000	-113.677979	-31.723358
 924	1.8480e+000	-112.640381	-31.632895
 925	1.8500e+000	-111.297607	-31.527355
 926	1.8520e+000	-110.130310	-31.405367
 927	1.8540e+000	-109.016418	-31.340946
 928	1.8560e+000	-107.872009	-31.250483
 929	1.8580e+000	-106.498718	-31.122327
 930	1.8600e+000	-105.339050	-31.028438
 931	1.8620e+000	-104.202271	-30.900967
 932	1.8640e+000	-103.248596	-30.828323
 933	1.8660e+000	-101.791382	-30.727580
 934	1.8680e+000	-100.845337	-30.651509
 935	1.8700e+000	-99.319458	-30.434261
 936	1.8720e+000	-97.763062	-30.352022
 937	1.8740e+000	-97.091675	-30.263615
 938	1.8760e+000	-95.901489	-30.142313
 939	1.8780e+000	-94.398499	-30.018269
 940	1.8800e+000	-93.399048	-29.883945
 941	1.8820e+000	-92.201233	-29.790055
 942	1.8840e+000	-90.782166	-29.655046
 943	1.8860e+000	-89.820862	-29.524835
 944	1.8880e+000	-88.500977	-29.405588
 945	1.8900e+000	-87.394714	-29.275376
 946	1.8920e+000	-86.227417	-29.120493
 947	1.8940e+000	-84.808350	-29.018379
 948	1.8960e+000	-83.847046	-28.863496
 949	1.8980e+000	-82.519531	-28.792907
 950	1.9000e+000	-81.489563	-28.609926
 951	1.9020e+000	-80.299377	-28.457098
 952	1.9040e+000	-78.842163	-28.307697
 953	1.9060e+000	-77.674866	-28.174059
 954	1.9080e+000	-76.576233	-28.007525
 955	1.9100e+000	-75.225830	-27.901985
 956	1.9120e+000	-74.195862	-27.714891
 957	1.9140e+000	-72.761536	-27.580567
 958	1.9160e+000	-71.563721	-27.410607
 959	1.9180e+000	-70.289612	-27.239961
 960	1.9200e+000	-69.358826	-27.078909
 961	1.9220e+000	-68.168640	-26.902781
 962	1.9240e+000	-66.604614	-26.723911
 963	1.9260e+000	-65.780640	-26.564230
 964	1.9280e+000	-64.483643	-26.388101
 965	1.9300e+000	-63.217163	-26.201008
 966	1.9320e+000	-62.477112	-26.013914
 967	1.9340e+000	-60.882568	-25.821338
 968	1.9360e+000	-59.959412	-25.609572
 969	1.9380e+000	-58.624268	-25.458115
 970	1.9400e+000	-57.128906	-25.250462
 971	1.9420e+000	-55.877686	-25.045550
 972	1.9440e+000	-55.130005	-24.828987
 973	1.9460e+000	-53.855896	-24.624760
 974	1.9480e+000	-52.459717	-24.409568
 975	1.9500e+000	-51.704407	-24.190264
 976	1.9520e+000	-50.033569	-23.933267
 977	1.9540e+000	-48.912048	-23.689291
 978	1.9560e+000	-47.828674	-23.493288
 979	1.9580e+000	-46.966553	-23.222585
 980	1.9600e+000	-45.234680	-22.972441
 981	1.9620e+000	-44.097900	-22.714759
 982	1.9640e+000	-42.900085	-22.454335
 983	1.9660e+000	-41.847229	-22.208989
 984	1.9680e+000	-40.573120	-21.919096
 985	1.9700e+000	-39.772034	-21.660729
 986	1.9720e+000	-38.101196	-21.359186
 987	1.9740e+000	-37.193298	-21.050789
 988	1.9760e+000	-35.926819	-20.756785
 989	1.9780e+000	-34.645081	-20.431255
 990	1.9800e+000	-33.401489	-20.092020
 991	1.9820e+000	-32.218933	-19.755525
 992	1.9840e+000	-30.891418	-19.451926
 993	1.9860e+000	-29.487610	-19.127082
 994	1.9880e+000	-28.106689	-18.748097
 995	1.9900e+000	-27.343750	-18.409546
 996	1.9920e+000	-26.130676	-18.041527
 997	1.9940e+000	-24.787903	-17.675563
 998	1.9960e+000	-23.727417	-17.295893
 999	1.9980e+000	-22.941589	-16.883327
1000	2.0000e+000	-21.537781	-16.490636
1001	2.0020e+000	-20.500183	-16.094518
1002	2.0040e+000	-19.172668	-15.679211
1003	2.0060e+000	-17.990112	-15.212505
1004	2.0080e+000	-16.571045	-14.789659
1005	2.0100e+000	-15.426636	-14.405192
1006	2.0120e+000	-14.282227	-13.928205
1007	2.0140e+000	-13.320923	-13.408044
1008	2.0160e+000	-12.100220	-12.887882
1009	2.0180e+000	-10.322571	-12.422546
1010	2.0200e+000	-9.384155	-11.942818
1011	2.0220e+000	-8.094788	-11.402782
1012	2.0240e+000	-7.011414	-10.850410
1013	2.0260e+000	-5.950928	-10.284332
1014	2.0280e+000	-4.478455	-9.729904
1015	2.0300e+000	-3.448486	-9.152174
1016	2.0320e+000	-2.098083	-8.542920
1017	2.0340e+000	-0.915527	-7.898029
1018	2.0360e+000	0.411987	-7.274384
1019	2.0380e+000	1.426697	-6.604136
1020	2.0400e+000	2.761841	-5.899621
1021	2.0420e+000	3.814697	-5.183457
1022	2.0440e+000	5.020142	-4.463865
1023	2.0460e+000	6.103516	-3.722343
1024	2.0480e+000	7.270813	-2.987675
1025	2.0500e+000	8.506775	-2.170082
1026	2.0520e+000	9.895325	-1.377846
1027	2.0540e+000	10.833740	-0.523931
1028	2.0560e+000	12.107849	0.338208
1029	2.0580e+000	13.046265	1.190067
1030	2.0600e+000	14.381409	2.063857
1031	2.0620e+000	15.434265	3.039074
1032	2.0640e+000	16.899109	3.975228
1033	2.0660e+000	18.135071	4.922348
1034	2.0680e+000	19.233704	5.902363
1035	2.0700e+000	20.614624	6.918700
1036	2.0720e+000	21.537781	7.935722
1037	2.0740e+000	23.094177	8.969878
1038	2.0760e+000	24.131775	9.996495
1039	2.0780e+000	25.260925	11.057378
1040	2.0800e+000	26.603699	12.100443
1041	2.0820e+000	27.809143	13.206558
1042	2.0840e+000	29.052734	14.354478
1043	2.0860e+000	30.014038	15.397542
1044	2.0880e+000	31.127930	16.483097
1045	2.0900e+000	32.608032	17.623478
1046	2.0920e+000	33.638000	18.698754
1047	2.0940e+000	34.988403	19.785679
1048	2.0960e+000	36.155701	20.839709
1049	2.0980e+000	37.376404	21.901963
1050	2.1000e+000	38.345337	22.929266
1051	2.1020e+000	39.863586	23.853084
1052	2.1040e+000	40.687561	24.731671
1053	2.1060e+000	41.870117	25.641097
1054	2.1080e+000	42.839050	26.459375
1055	2.1100e+000	44.441223	27.172113
1056	2.1120e+000	45.730591	27.834823
1057	2.1140e+000	46.813965	28.413923
1058	2.1160e+000	48.126221	28.937511
1059	2.1180e+000	49.316406	29.376804
1060	2.1200e+000	50.262451	29.774293
1061	2.1220e+000	51.589966	30.141627
1062	2.1240e+000	52.772522	30.449338
1063	2.1260e+000	54.023743	30.733748
1064	2.1280e+000	55.252075	30.977039
1065	2.1300e+000	56.541443	31.199769
1066	2.1320e+000	57.853699	31.451969
1067	2.1340e+000	59.143066	31.620559
1068	2.1360e+000	60.333252	31.815191
1069	2.1380e+000	61.576843	31.979669
1070	2.1400e+000	62.751770	32.134553
1071	2.1420e+000	63.781738	32.276415
1072	2.1440e+000	65.162659	32.422389
1073	2.1460e+000	66.024780	32.547804
1074	2.1480e+000	67.535400	32.658826
1075	2.1500e+000	68.672180	32.812339
1076	2.1520e+000	69.923401	32.906914
1077	2.1540e+000	71.525574	33.003545
1078	2.1560e+000	72.227478	33.102232
1079	2.1580e+000	73.257446	33.204345
1080	2.1600e+000	74.569702	33.296179
1081	2.1620e+000	75.828552	33.388012
1082	2.1640e+000	76.690674	33.458601
1083	2.1660e+000	78.208923	33.537413
1084	2.1680e+000	79.444885	33.619652
1085	2.1700e+000	80.619812	33.694353
1086	2.1720e+000	81.939697	33.780704
1087	2.1740e+000	82.740784	33.884188
1088	2.1760e+000	84.182739	33.904748
1089	2.1780e+000	85.723877	33.978763
1090	2.1800e+000	86.448669	34.046610
1091	2.1820e+000	87.928772	34.093897
1092	2.1840e+000	89.179993	34.166542
1093	2.1860e+000	90.148926	34.243298
1094	2.1880e+000	91.316223	34.274823
1095	2.1900e+000	92.826843	34.329649
1096	2.1920e+000	93.917847	34.397496
1097	2.1940e+000	94.802856	34.447525
1098	2.1960e+000	96.115112	34.495498
1099	2.1980e+000	97.412109	34.556492
1100	2.2000e+000	98.869324	34.643528
1101	2.2020e+000	99.876404	34.646955
1102	2.2040e+000	100.990295	34.709319
1103	2.2060e+000	102.005005	34.753180
1104	2.2080e+000	103.370667	34.790188
1105	2.2100e+000	104.667664	34.851182
1106	2.2120e+000	105.667114	34.871741
1107	2.2140e+000	107.131958	34.899840
1108	2.2160e+000	108.276367	34.970428
1109	2.2180e+000	109.458923	35.012918
1110	2.2200e+000	110.626221	35.065688
1111	2.2220e+000	111.801147	35.082821
1112	2.2240e+000	112.876892	35.117773
1113	2.2260e+000	113.929749	35.176711
1114	2.2280e+000	115.600586	35.231537
1115	2.2300e+000	116.500854	35.244558
1116	2.2320e+000	117.805481	35.287734
1117	2.2340e+000	119.102478	35.334336
1118	2.2360e+000	120.231628	35.354895
1119	2.2380e+000	121.681213	35.389847
1120	2.2400e+000	122.322083	35.435079
1121	2.2420e+000	123.794556	35.476883
1122	2.2440e+000	124.969482	35.504982
1123	2.2460e+000	126.091003	35.537877
1124	2.2480e+000	127.342224	35.568032
1125	2.2500e+000	128.555298	35.624914
1126	2.2520e+000	129.592896	35.599557
1127	2.2540e+000	130.874634	35.674942
1128	2.2560e+000	132.385254	35.696873
1129	2.2580e+000	133.316040	35.748272
1130	2.2600e+000	134.475708	35.788021
1131	2.2620e+000	136.123657	35.816805
1132	2.2640e+000	137.176514	35.851071
1133	2.2660e+000	138.069153	35.879169
1134	2.2680e+000	139.328003	35.903156
1135	2.2700e+000	140.373230	35.974429
1136	2.2720e+000	141.944885	35.981283
1137	2.2740e+000	143.302917	36.003898
1138	2.2760e+000	144.317627	36.037479
1139	2.2780e+000	145.446777	36.066948
1140	2.2800e+000	146.751404	36.117662
1141	2.2820e+000	147.727966	36.137537
1142	2.2840e+000	148.956299	36.168376
1143	2.2860e+000	150.054932	36.183454
1144	2.2880e+000	151.527405	36.216349
1145	2.2900e+000	152.832031	36.240336
1146	2.2920e+000	153.656006	36.269119
1147	2.2940e+000	155.326843	36.304071
1148	2.2960e+000	156.272888	36.323945
1149	2.2980e+000	157.493591	36.358211
1150	2.3000e+000	158.561707	36.427429
1151	2.3020e+000	159.606934	36.454157
1152	2.3040e+000	160.903931	36.450730
1153	2.3060e+000	162.261963	36.511724
1154	2.3080e+000	163.536072	36.522004
1155	2.3100e+000	164.825439	36.549417
1156	2.3120e+000	165.565491	36.561753
1157	2.3140e+000	166.824341	36.543249
1158	2.3160e+000	168.388367	36.606984
1159	2.3180e+000	169.548035	36.639880
1160	2.3200e+000	170.433044	36.678944
1161	2.3220e+000	171.630859	36.703615
1162	2.3240e+000	173.011780	36.715951
1163	2.3260e+000	174.026489	36.768721
1164	2.3280e+000	175.491333	36.791337
1165	2.3300e+000	176.361084	36.800246
1166	2.3320e+000	177.803040	36.841366
1167	2.3340e+000	178.833008	36.853702
1168	2.3360e+000	180.191040	36.883171
1169	2.3380e+000	181.266785	36.938682
1170	2.3400e+000	182.662964	36.952388
1171	2.3420e+000	183.738708	36.972263
1172	2.3440e+000	184.883118	37.022292
1173	2.3460e+000	185.859680	37.019550
1174	2.3480e+000	187.156677	37.027774
1175	2.3500e+000	188.255310	37.072320
1176	2.3520e+000	189.689636	37.116866
1177	2.3540e+000	191.139221	37.132629
1178	2.3560e+000	192.260742	37.146335
1179	2.3580e+000	193.260193	37.166210
1180	2.3600e+000	194.587708	37.232001
1181	2.3620e+000	195.640564	37.221036
1182	2.3640e+000	197.013855	37.260785
1183	2.3660e+000	198.295593	37.274491
1184	2.3680e+000	199.440002	37.316296
1185	2.3700e+000	200.798035	37.319037
1186	2.3720e+000	202.018738	37.377290
1187	2.3740e+000	202.735901	37.404703
1188	2.3760e+000	203.392029	37.360157
1189	2.3780e+000	205.467224	37.429375
1190	2.3800e+000	206.375122	37.478718
1191	2.3820e+000	207.946777	37.477347
1192	2.3840e+000	208.961487	37.502019
1193	2.3860e+000	210.029602	37.530803
1194	2.3880e+000	211.280823	37.554789
1195	2.3900e+000	212.699890	37.536285
1196	2.3920e+000	213.432312	37.591797
1197	2.3940e+000	214.996338	37.610300
1198	2.3960e+000	216.499329	37.656217
1199	2.3980e+000	217.582703	37.680889
1200	2.4000e+000	218.498230	37.691854
1201	2.4020e+000	219.749451	37.729547
1202	2.4040e+000	220.939636	37.727491
1203	2.4060e+000	222.167969	37.780261
1204	2.4080e+000	223.457336	37.784373
1205	2.4100e+000	224.327087	37.810415
1206	2.4120e+000	225.860596	37.846052
1207	2.4140e+000	226.974487	37.842626
1208	2.4160e+000	228.263855	37.887857
1209	2.4180e+000	229.667664	37.918011
1210	2.4200e+000	230.575562	37.943369
1211	2.4220e+000	231.925964	37.961872
1212	2.4240e+000	233.055115	37.972152
1213	2.4260e+000	234.298706	37.961187
1214	2.4280e+000	235.641479	38.029034
1215	2.4300e+000	236.709595	38.050965
1216	2.4320e+000	237.632751	38.056447
1217	2.4340e+000	239.120483	38.067412
1218	2.4360e+000	240.097046	38.127721
1219	2.4380e+000	241.378784	38.151022
1220	2.4400e+000	242.637634	38.161302
1221	2.4420e+000	243.812561	38.192827
1222	2.4440e+000	244.865417	38.205848
1223	2.4460e+000	246.002197	38.220240
1224	2.4480e+000	247.352600	38.264101
1225	2.4500e+000	248.252869	38.237373
1226	2.4520e+000	249.847412	38.307276
1227	2.4540e+000	250.938416	38.315500
1228	2.4560e+000	251.884460	38.346340
1229	2.4580e+000	253.440857	38.373753
1230	2.4600e+000	254.493713	38.390200
1231	2.4620e+000	255.897522	38.427893
1232	2.4640e+000	257.011414	38.449138
1233	2.4660e+000	258.262634	38.459418
1234	2.4680e+000	259.284973	38.484775
1235	2.4700e+000	260.459900	38.510132
1236	2.4720e+000	261.711121	38.523839
1237	2.4740e+000	263.160706	38.547825
1238	2.4760e+000	263.969421	38.552623
1239	2.4780e+000	265.190125	38.612246
1240	2.4800e+000	266.403198	38.625952
1241	2.4820e+000	267.677307	38.626638
1242	2.4840e+000	268.783569	38.658163
1243	2.4860e+000	270.454407	38.690373
1244	2.4880e+000	271.392822	38.695855
1245	2.4900e+000	272.537231	38.719157
1246	2.4920e+000	273.803711	38.755479
1247	2.4940e+000	275.047302	38.785633
1248	2.4960e+000	276.298523	38.804822
1249	2.4980e+000	277.320862	38.810990
1250	2.5000e+000	278.434753	38.798654
1251	2.5020e+000	279.663086	38.887747
1252	2.5040e+000	278.701782	38.837718
1253	2.5060e+000	277.633667	38.858963
1254	2.5080e+000	276.176453	38.814417
1255	2.5100e+000	274.955750	38.797284
1256	2.5120e+000	273.735046	38.775353
1257	2.5140e+000	272.430420	38.750682
1258	2.5160e+000	271.415710	38.713674
1259	2.5180e+000	270.103455	38.702709
1260	2.5200e+000	268.898010	38.673240
1261	2.5220e+000	267.654419	38.667072
1262	2.5240e+000	266.632080	38.654736
1263	2.5260e+000	265.365601	38.623211
1264	2.5280e+000	264.213562	38.597854
1265	2.5300e+000	263.008118	38.604707
1266	2.5320e+000	261.764526	38.556734
1267	2.5340e+000	260.612488	38.547825
1268	2.5360e+000	259.414673	38.514930
1269	2.5380e+000	257.926941	38.510818
1270	2.5400e+000	256.919861	38.484090
1271	2.5420e+000	256.004333	38.465586
1272	2.5440e+000	254.341125	38.436117
1273	2.5460e+000	253.379822	38.469698
1274	2.5480e+000	252.273560	38.382662
1275	2.5500e+000	251.029968	38.390886
1276	2.5520e+000	249.687195	38.376494
1277	2.5540e+000	248.825073	38.347710
1278	2.5560e+000	247.100830	38.323039
1279	2.5580e+000	246.223450	38.313444
1280	2.5600e+000	244.949341	38.275066
1281	2.5620e+000	243.797302	38.257247
1282	2.5640e+000	242.538452	38.238058
1283	2.5660e+000	241.500854	38.214072
1284	2.5680e+000	240.036011	38.193512
1285	2.5700e+000	238.807678	38.153078
1286	2.5720e+000	237.731934	38.124980
1287	2.5740e+000	236.488342	38.150337
1288	2.5760e+000	235.450745	38.107161
1289	2.5780e+000	233.932495	38.084545
1290	2.5800e+000	232.940674	38.074951
1291	2.5820e+000	231.643677	38.051650
1292	2.5840e+000	230.598450	38.029034
1293	2.5860e+000	229.240417	37.990656
1294	2.5880e+000	228.096008	37.974208
1295	2.5900e+000	226.989746	37.945424
1296	2.5920e+000	225.616455	37.913900
1297	2.5940e+000	224.601746	37.941998
1298	2.5960e+000	223.365784	37.889228
1299	2.5980e+000	222.434998	37.865927
1300	2.6000e+000	221.145630	37.860444
1301	2.6020e+000	219.726563	37.847423
1302	2.6040e+000	218.498230	37.810415
1303	2.6060e+000	217.178345	37.799450
1304	2.6080e+000	216.346741	37.751477
1305	2.6100e+000	214.736938	37.743254
1306	2.6120e+000	213.790894	37.715841
1307	2.6140e+000	212.471008	37.689113
1308	2.6160e+000	211.509705	37.675406
1309	2.6180e+000	209.915161	37.645937
1310	2.6200e+000	209.175110	37.656903
1311	2.6220e+000	207.893372	37.589055
1312	2.6240e+000	206.436157	37.586999
1313	2.6260e+000	205.482483	37.574664
1314	2.6280e+000	204.002380	37.556160
1315	2.6300e+000	202.972412	37.505446
1316	2.6320e+000	201.904297	37.507502
1317	2.6340e+000	200.424194	37.477347
1318	2.6360e+000	199.180603	37.438284
1319	2.6380e+000	198.280334	37.398535
1320	2.6400e+000	197.219849	37.404703
1321	2.6420e+000	195.503235	37.385514
1322	2.6440e+000	194.480896	37.410186
1323	2.6460e+000	193.313599	37.338226
1324	2.6480e+000	192.131042	37.300534
1325	2.6500e+000	191.139221	37.279974
1326	2.6520e+000	189.804077	37.262155
1327	2.6540e+000	188.400269	37.240910
1328	2.6560e+000	187.278748	37.225833
1329	2.6580e+000	186.012268	37.194993
1330	2.6600e+000	185.150146	37.176490
1331	2.6620e+000	183.723450	37.151133
1332	2.6640e+000	182.540894	37.115496
1333	2.6660e+000	181.320190	37.112069
1334	2.6680e+000	180.335999	37.063411
1335	2.6700e+000	179.229736	37.055187
1336	2.6720e+000	177.787781	37.007214
1337	2.6740e+000	176.330566	37.022977
1338	2.6760e+000	175.392151	36.988711
1339	2.6780e+000	174.087524	36.966780
1340	2.6800e+000	172.920227	36.947591
1341	2.6820e+000	171.699524	36.910584
1342	2.6840e+000	170.425415	36.900304
1343	2.6860e+000	169.433594	36.867408
1344	2.6880e+000	168.075562	36.835198
1345	2.6900e+000	166.885376	36.831086
1346	2.6920e+000	165.702820	36.802302
1347	2.6940e+000	164.482117	36.741994
1348	2.6960e+000	163.436890	36.742679
1349	2.6980e+000	162.307739	36.714581
1350	2.7000e+000	160.842896	36.698133
1351	2.7020e+000	159.713745	36.678944
1352	2.7040e+000	158.386230	36.648789
1353	2.7060e+000	157.417297	36.628915
1354	2.7080e+000	156.173706	36.599446
1355	2.7100e+000	154.914856	36.613838
1356	2.7120e+000	153.808594	36.563809
1357	2.7140e+000	152.229309	36.480885
1358	2.7160e+000	151.191711	36.507612
1359	2.7180e+000	150.253296	36.484997
1360	2.7200e+000	149.055481	36.455528
1361	2.7220e+000	147.659302	36.413723
1362	2.7240e+000	146.568298	36.390422
1363	2.7260e+000	145.286560	36.385624
1364	2.7280e+000	144.248962	36.340393
1365	2.7300e+000	142.807007	36.321889
1366	2.7320e+000	141.647339	36.292420
1367	2.7340e+000	140.785217	36.277343
1368	2.7360e+000	139.587402	36.237594
1369	2.7380e+000	138.175964	36.221146
1370	2.7400e+000	137.130737	36.196475
1371	2.7420e+000	135.688782	36.176600
1372	2.7440e+000	134.475708	36.138222
1373	2.7460e+000	133.110046	36.062836
1374	2.7480e+000	132.194519	36.079284
1375	2.7500e+000	131.027222	36.079969
1376	2.7520e+000	129.722595	36.019661
1377	2.7540e+000	128.562927	35.994989
1378	2.7560e+000	127.410889	36.024458
1379	2.7580e+000	125.999451	35.943590
1380	2.7600e+000	125.030518	35.929883
1381	2.7620e+000	123.497009	35.890820
1382	2.7640e+000	122.833252	35.864092
1383	2.7660e+000	121.284485	35.852442
1384	2.7680e+000	120.193481	35.801042
1385	2.7700e+000	119.216919	35.793504
1386	2.7720e+000	117.691040	35.761979
1387	2.7740e+000	116.546631	35.696187
1388	2.7760e+000	115.745544	35.714691
1389	2.7780e+000	114.204407	35.681110
1390	2.7800e+000	112.998962	35.659180
1391	2.7820e+000	111.724854	35.620116
1392	2.7840e+000	110.527039	35.597501
1393	2.7860e+000	109.291077	35.557752
1394	2.7880e+000	107.986450	35.546101
1395	2.7900e+000	107.009888	35.507038
1396	2.7920e+000	105.705261	35.463177
1397	2.7940e+000	104.675293	35.449470
1398	2.7960e+000	103.347778	35.430967
1399	2.7980e+000	102.050781	35.395330
1400	2.8000e+000	101.333618	35.367917
1401	2.8020e+000	99.731445	35.352840
1402	2.8040e+000	98.350525	35.308979
1403	2.8060e+000	97.427368	35.263062
1404	2.8080e+000	96.275330	35.246614
1405	2.8100e+000	95.024109	35.212348
1406	2.8120e+000	93.833923	35.182879
1407	2.8140e+000	92.590332	35.159578
1408	2.8160e+000	91.506958	35.121885
1409	2.8180e+000	89.675903	35.057464
1410	2.8200e+000	88.859558	35.029366
1411	2.8220e+000	87.692261	35.028681
1412	2.8240e+000	86.311340	35.031422
1413	2.8260e+000	85.182190	34.984135
1414	2.8280e+000	84.014893	34.929309
1415	2.8300e+000	82.977295	34.903266
1416	2.8320e+000	81.764221	34.853237
1417	2.8340e+000	80.535889	34.817601
1418	2.8360e+000	79.238892	34.790873
1419	2.8380e+000	78.224182	34.786761
1420	2.8400e+000	76.805115	34.740159
1421	2.8420e+000	75.653076	34.683277
1422	2.8440e+000	74.752808	34.656549
1423	2.8460e+000	73.249817	34.622968
1424	2.8480e+000	72.052002	34.646955
1425	2.8500e+000	70.945740	34.555806
1426	2.8520e+000	69.816589	34.509890
1427	2.8540e+000	68.580627	34.485218
1428	2.8560e+000	67.451477	34.455064
1429	2.8580e+000	66.543579	34.396811
1430	2.8600e+000	64.926147	34.371454
1431	2.8620e+000	63.537598	34.342670
1432	2.8640e+000	62.507629	34.299495
1433	2.8660e+000	61.355591	34.263173
1434	2.8680e+000	60.173035	34.228906
1435	2.8700e+000	59.120178	34.190528
1436	2.8720e+000	57.601929	34.139129
1437	2.8740e+000	56.503296	34.085673
1438	2.8760e+000	55.442810	34.039071
1439	2.8780e+000	54.153442	34.013714
1440	2.8800e+000	53.047180	33.969853
1441	2.8820e+000	51.757813	33.934216
1442	2.8840e+000	50.559998	33.880761
1443	2.8860e+000	49.392700	33.871852
1444	2.8880e+000	48.126221	33.814970
1445	2.8900e+000	46.730042	33.746437
1446	2.8920e+000	45.639038	33.721766
1447	2.8940e+000	44.578552	33.666254
1448	2.8960e+000	43.228149	33.612799
1449	2.8980e+000	42.068481	33.544952
1450	2.9000e+000	40.969849	33.496979
1451	2.9020e+000	39.550781	33.453804
1452	2.9040e+000	38.299561	33.419537
1453	2.9060e+000	37.483215	33.373621
1454	2.9080e+000	36.003113	33.318795
1455	2.9100e+000	34.965515	33.236556
1456	2.9120e+000	33.752441	33.199548
1457	2.9140e+000	32.554626	33.142666
1458	2.9160e+000	31.211853	33.100176
1459	2.9180e+000	30.151367	32.991209
1460	2.9200e+000	28.923035	32.934327
1461	2.9220e+000	27.900696	32.880186
1462	2.9240e+000	26.374817	32.826731
1463	2.9260e+000	25.238037	32.732842
1464	2.9280e+000	24.002075	32.675274
1465	2.9300e+000	23.254395	32.601944
1466	2.9320e+000	21.873474	32.516279
1467	2.9340e+000	20.683289	32.428557
1468	2.9360e+000	19.119263	32.342206
1469	2.9380e+000	18.203735	32.251058
1470	2.9400e+000	17.242432	32.155112
1471	2.9420e+000	15.724182	32.068076
1472	2.9440e+000	14.533997	31.942662
1473	2.9460e+000	13.252258	31.848087
1474	2.9480e+000	12.092590	31.715134
1475	2.9500e+000	11.222839	31.606167
1476	2.9520e+000	9.796143	31.473214
1477	2.9540e+000	8.720398	31.352597
1478	2.9560e+000	7.339478	31.218273
1479	2.9580e+000	6.057739	31.048998
1480	2.9600e+000	4.745483	30.867387
1481	2.9620e+000	3.654480	30.687831
1482	2.9640e+000	2.555847	30.497996
1483	2.9660e+000	1.487732	30.272524
1484	2.9680e+000	0.022888	30.040884
1485	2.9700e+000	-1.152039	29.823636
1486	2.9720e+000	-2.326965	29.548136
1487	2.9740e+000	-3.410339	29.278118
1488	2.9760e+000	-4.631042	28.947791
1489	2.9780e+000	-6.263733	28.625003
1490	2.9800e+000	-6.912231	28.238479
1491	2.9820e+000	-8.163452	27.833452
1492	2.9840e+000	-9.346008	27.360578
1493	2.9860e+000	-10.887146	26.884962
1494	2.9880e+000	-11.695862	26.327793
1495	2.9900e+000	-13.145447	25.733616
1496	2.9920e+000	-14.228821	25.116138
1497	2.9940e+000	-15.647888	24.450687
1498	2.9960e+000	-16.540527	23.672843
1499	2.9980e+000	-17.868042	22.879237
1500	3.0000e+000	-18.684387	21.965013
1501	3.0020e+000	-20.118713	21.064496
1502	3.0040e+000	-21.308899	20.059809
1503	3.0060e+000	-23.307800	18.999611
1504	3.0080e+000	-23.704529	17.864713
1505	3.0100e+000	-25.131226	16.683898
1506	3.0120e+000	-25.970459	15.420158
1507	3.0140e+000	-27.160645	14.152307
1508	3.0160e+000	-28.701782	12.781656
1509	3.0180e+000	-29.541016	11.409635
1510	3.0200e+000	-31.173706	9.997866
1511	3.0220e+000	-32.241821	8.586781
1512	3.0240e+000	-33.317566	7.147598
1513	3.0260e+000	-34.492493	5.760500
1514	3.0280e+000	-35.949707	4.337765
1515	3.0300e+000	-36.567688	2.960947
1516	3.0320e+000	-38.230896	1.614969
1517	3.0340e+000	-39.695740	0.280641
1518	3.0360e+000	-40.489197	-0.932385
1519	3.0380e+000	-41.511536	-2.144725
1520	3.0400e+000	-42.938232	-3.253581
1521	3.0420e+000	-43.945313	-4.314464
1522	3.0440e+000	-45.181274	-5.331487
1523	3.0460e+000	-46.928406	-6.292313
1524	3.0480e+000	-47.637939	-7.196257
1525	3.0500e+000	-49.087524	-8.035094
1526	3.0520e+000	-50.041199	-8.836925
1527	3.0540e+000	-51.322937	-9.599692
1528	3.0560e+000	-52.589417	-10.323395
1529	3.0580e+000	-53.916931	-10.984734
1530	3.0600e+000	-55.259705	-11.663206
1531	3.0620e+000	-56.129456	-12.277257
1532	3.0640e+000	-57.197571	-12.878287
1533	3.0660e+000	-58.517456	-13.476576
1534	3.0680e+000	-59.844971	-14.020039
1535	3.0700e+000	-61.096191	-14.541571
1536	3.0720e+000	-62.156677	-15.093258
1537	3.0740e+000	-63.369751	-15.583951
1538	3.0760e+000	-64.765930	-16.078070
1539	3.0780e+000	-66.017151	-16.503657
1540	3.0800e+000	-67.260742	-16.980643
1541	3.0820e+000	-68.290710	-17.376076
1542	3.0840e+000	-69.557190	-17.788642
1543	3.0860e+000	-70.556641	-18.185445
1544	3.0880e+000	-71.754456	-18.566486
1545	3.0900e+000	-72.921753	-18.918743
1546	3.0920e+000	-74.279785	-19.282651
1547	3.0940e+000	-75.469971	-19.610921
1548	3.0960e+000	-76.728821	-19.992647
1549	3.0980e+000	-77.880859	-20.295561
1550	3.1000e+000	-78.788757	-20.619035
1551	3.1020e+000	-80.093384	-20.914410
1552	3.1040e+000	-81.329346	-21.219379
1553	3.1060e+000	-82.763672	-21.529146
1554	3.1080e+000	-84.617615	-21.777234
1555	3.1100e+000	-84.693909	-22.073980
1556	3.1120e+000	-86.265564	-22.347425
1557	3.1140e+000	-87.646484	-22.617443
1558	3.1160e+000	-88.455200	-22.847027
1559	3.1180e+000	-89.729309	-23.087576
1560	3.1200e+000	-91.072083	-23.342517
1561	3.1220e+000	-92.453003	-23.598828
1562	3.1240e+000	-92.956543	-23.810594
1563	3.1260e+000	-94.528198	-24.052513
1564	3.1280e+000	-95.748901	-24.278671
1565	3.1300e+000	-96.893311	-24.493863
1566	3.1320e+000	-98.220825	-24.703572
1567	3.1340e+000	-99.342346	-24.898890
1568	3.1360e+000	-100.555420	-25.142866
1569	3.1380e+000	-101.837158	-25.335442
1570	3.1400e+000	-103.187561	-25.526648
1571	3.1420e+000	-103.927612	-25.734301
1572	3.1440e+000	-105.133057	-25.914542
1573	3.1460e+000	-106.666565	-26.116713
1574	3.1480e+000	-107.719421	-26.312716
1575	3.1500e+000	-109.077454	-26.483362
1576	3.1520e+000	-110.321045	-26.660861
1577	3.1540e+000	-111.450195	-26.836304
1578	3.1560e+000	-112.495422	-27.025454
1579	3.1580e+000	-114.028931	-27.196785
1580	3.1600e+000	-114.936829	-27.376340
1581	3.1620e+000	-116.271973	-27.531909
1582	3.1640e+000	-116.958618	-27.723115
1583	3.1660e+000	-118.621826	-27.859495
1584	3.1680e+000	-119.606018	-28.019175
1585	3.1700e+000	-120.826721	-28.169261
1586	3.1720e+000	-122.131348	-28.320033
1587	3.1740e+000	-123.558044	-28.491364
1588	3.1760e+000	-124.717712	-28.650360
1589	3.1780e+000	-125.778198	-28.797019
1590	3.1800e+000	-127.227783	-28.918322
1591	3.1820e+000	-128.410339	-29.070464
1592	3.1840e+000	-129.402161	-29.203417
1593	3.1860e+000	-130.546570	-29.347335
1594	3.1880e+000	-131.950378	-29.483715
1595	3.1900e+000	-132.995605	-29.607759
1596	3.1920e+000	-134.170532	-29.767440
1597	3.1940e+000	-135.330200	-29.896281
1598	3.1960e+000	-136.322021	-30.039514
1599	3.1980e+000	-137.718201	-30.161502
1600	3.2000e+000	-139.060974	-30.263615
1601	3.2020e+000	-140.090942	-30.391771
1602	3.2040e+000	-141.555786	-30.530207
1603	3.2060e+000	-142.616272	-30.637803
1604	3.2080e+000	-143.402100	-30.761161
1605	3.2100e+000	-145.202637	-30.867387
1606	3.2120e+000	-146.278381	-30.996913
1607	3.2140e+000	-147.178650	-31.093544
1608	3.2160e+000	-148.391724	-31.225812
1609	3.2180e+000	-149.978638	-31.319701
1610	3.2200e+000	-151.107788	-31.452654
1611	3.2220e+000	-152.221680	-31.545858
1612	3.2240e+000	-153.495789	-31.666476
1613	3.2260e+000	-154.655457	-31.756253
1614	3.2280e+000	-155.799866	-31.833695
1615	3.2300e+000	-157.196045	-31.974187
1616	3.2320e+000	-158.180237	-32.079727
1617	3.2340e+000	-159.210205	-32.150315
1618	3.2360e+000	-160.820007	-32.281212
1619	3.2380e+000	-161.651611	-32.342892
1620	3.2400e+000	-162.811279	-32.460082
1621	3.2420e+000	-164.146423	-32.548489
1622	3.2440e+000	-165.351868	-32.641693
1623	3.2460e+000	-166.519165	-32.728730
1624	3.2480e+000	-167.839050	-32.849347
1625	3.2500e+000	-169.425964	-32.919935
1626	3.2520e+000	-170.455933	-33.004230
1627	3.2540e+000	-171.264648	-33.085099
1628	3.2560e+000	-172.561646	-33.180359
1629	3.2580e+000	-173.988342	-33.291382
1630	3.2600e+000	-175.308228	-33.359914
1631	3.2620e+000	-175.964355	-33.410628
1632	3.2640e+000	-177.520752	-33.507259
1633	3.2660e+000	-178.916931	-33.602519
1634	3.2680e+000	-179.763794	-33.627876
1635	3.2700e+000	-181.030273	-33.741640
1636	3.2720e+000	-182.136536	-33.823879
1637	3.2740e+000	-183.303833	-33.906118
1638	3.2760e+000	-184.692383	-33.965741
1639	3.2780e+000	-185.997009	-34.074708
1640	3.2800e+000	-186.973572	-34.148038
1641	3.2820e+000	-188.575745	-34.203549
1642	3.2840e+000	-189.414978	-34.278250
1643	3.2860e+000	-190.628052	-34.344041
1644	3.2880e+000	-191.558838	-34.405035
1645	3.2900e+000	-193.046570	-34.469455
1646	3.2920e+000	-194.145203	-34.543471
1647	3.2940e+000	-195.358276	-34.615430
1648	3.2960e+000	-196.929932	-34.678480
1649	3.2980e+000	-197.540283	-34.736047
1650	3.3000e+000	-199.020386	-34.796356
1651	3.3020e+000	-200.111389	-34.872427
1652	3.3040e+000	-201.210022	-34.932050
1653	3.3060e+000	-202.606201	-34.988932
1654	3.3080e+000	-203.742981	-35.024569
1655	3.3100e+000	-204.734802	-35.099269
1656	3.3120e+000	-206.077576	-35.147927
1657	3.3140e+000	-207.145691	-35.223998
1658	3.3160e+000	-208.412170	-35.268545
1659	3.3180e+000	-209.709167	-35.315832
1660	3.3200e+000	-211.082458	-35.399442
1661	3.3220e+000	-212.051392	-35.450156
1662	3.3240e+000	-213.531494	-35.495387
1663	3.3260e+000	-214.569092	-35.559122
1664	3.3280e+000	-215.721130	-35.607780
1665	3.3300e+000	-217.025757	-35.675628
1666	3.3320e+000	-218.177795	-35.706467
1667	3.3340e+000	-219.223022	-35.766776
1668	3.3360e+000	-220.863342	-35.851071
1669	3.3380e+000	-221.549988	-35.859295
1670	3.3400e+000	-223.358154	-35.898358
1671	3.3420e+000	-224.395752	-35.963464
1672	3.3440e+000	-225.395203	-36.004584
1673	3.3460e+000	-226.387024	-36.048445
1674	3.3480e+000	-227.813721	-36.102585
1675	3.3500e+000	-228.996277	-36.123830
1676	3.3520e+000	-229.995728	-36.195789
1677	3.3540e+000	-231.369019	-36.223202
1678	3.3560e+000	-232.513428	-36.264322
1679	3.3580e+000	-233.810425	-36.327372
1680	3.3600e+000	-234.779358	-36.391792
1681	3.3620e+000	-236.099243	-36.401387
1682	3.3640e+000	-237.304688	-36.452101
1683	3.3660e+000	-238.647461	-36.498703
1684	3.3680e+000	-239.677429	-36.535711
1685	3.3700e+000	-240.997314	-36.606984
1686	3.3720e+000	-242.080688	-36.628230
1687	3.3740e+000	-243.438721	-36.660440
1688	3.3760e+000	-244.606018	-36.696762
1689	3.3780e+000	-246.063232	-36.749532
1690	3.3800e+000	-246.994019	-36.785854
1691	3.3820e+000	-247.993469	-36.824233
1692	3.3840e+000	-249.443054	-36.873576
1693	3.3860e+000	-250.183105	-36.892080
1694	3.3880e+000	-251.617432	-36.932514
1695	3.3900e+000	-252.876282	-36.988025
1696	3.3920e+000	-254.425049	-37.034627
1697	3.3940e+000	-255.340576	-37.062040
1698	3.3960e+000	-256.340027	-37.099048
1699	3.3980e+000	-257.873535	-37.128517
1700	3.4000e+000	-259.017944	-37.175119
1701	3.4020e+000	-260.238647	-37.202532
1702	3.4040e+000	-261.390686	-37.234057
1703	3.4060e+000	-262.527466	-37.274491
1704	3.4080e+000	-263.885498	-37.318352
1705	3.4100e+000	-264.999390	-37.344394
1706	3.4120e+000	-266.288757	-37.406074
1707	3.4140e+000	-267.639160	-37.423892
1708	3.4160e+000	-268.508911	-37.443081
1709	3.4180e+000	-270.011902	-37.490369
1710	3.4200e+000	-271.202087	-37.536971
1711	3.4220e+000	-272.430420	-37.558216
1712	3.4240e+000	-273.498535	-37.603447
1713	3.4260e+000	-274.650574	-37.608930
1714	3.4280e+000	-275.810242	-37.664441
1715	3.4300e+000	-276.931763	-37.715155
1716	3.4320e+000	-278.007507	-37.728862
1717	3.4340e+000	-279.495239	-37.753533
1718	3.4360e+000	-280.471802	-37.810415
1719	3.4380e+000	-281.967163	-37.820010
1720	3.4400e+000	-283.157349	-37.889228
1721	3.4420e+000	-283.821106	-37.883745
1722	3.4440e+000	-285.461426	-37.948851
1723	3.4460e+000	-286.682129	-37.976949
1724	3.4480e+000	-287.803650	-37.983117
1725	3.4500e+000	-289.123535	-38.044797
1726	3.4520e+000	-290.596008	-38.080434
1727	3.4540e+000	-291.152954	-38.097567
1728	3.4560e+000	-292.594910	-38.132518
1729	3.4580e+000	-294.029236	-38.166784
1730	3.4600e+000	-294.975281	-38.224352
1731	3.4620e+000	-296.226501	-38.230520
1732	3.4640e+000	-297.386169	-38.255191
1733	3.4660e+000	-298.454285	-38.305220
1734	3.4680e+000	-299.865723	-38.337430
1735	3.4700e+000	-301.170349	-38.362102
1736	3.4720e+000	-301.994324	-38.403222
1737	3.4740e+000	-303.558350	-38.421725
1738	3.4760e+000	-304.649353	-38.457362
1739	3.4780e+000	-305.580139	-38.503964
1740	3.4800e+000	-307.090759	-38.543028
1741	3.4820e+000	-308.174133	-38.559476
1742	3.4840e+000	-309.440613	-38.594427
1743	3.4860e+000	-310.691833	-38.639659
1744	3.4880e+000	-311.798096	-38.666387
1745	3.4900e+000	-313.125610	-38.625267
1746	3.4920e+000	-314.086914	-38.716415
1747	3.4940e+000	-315.284729	-38.766444
1748	3.4960e+000	-316.390991	-38.800710
1749	3.4980e+000	-318.054199	-38.821270
1750	3.5000e+000	-319.099426	-38.853480
1751	3.5020e+000	-320.251465	-38.885005
1752	3.5040e+000	-319.267273	-38.887747
1753	3.5060e+000	-317.810059	-38.852110
1754	3.5080e+000	-316.566467	-38.824011
1755	3.5100e+000	-315.429688	-38.810990
1756	3.5120e+000	-314.178467	-38.801396
1757	3.5140e+000	-312.957764	-38.773983
1758	3.5160e+000	-311.744690	-38.774668
1759	3.5180e+000	-310.752869	-38.787689
1760	3.5200e+000	-309.020996	-38.716415
1761	3.5220e+000	-308.227539	-38.739031
1762	3.5240e+000	-306.983948	-38.702709
1763	3.5260e+000	-305.755615	-38.682834
1764	3.5280e+000	-304.603577	-38.660219
1765	3.5300e+000	-303.581238	-38.634176
1766	3.5320e+000	-302.299500	-38.607449
1767	3.5340e+000	-300.895691	-38.605393
1768	3.5360e+000	-299.682617	-38.560161
1769	3.5380e+000	-298.851013	-38.553308
1770	3.5400e+000	-297.355652	-38.526580
1771	3.5420e+000	-296.295166	-38.516986
1772	3.5440e+000	-295.318604	-38.502594
1773	3.5460e+000	-293.800354	-38.462845
1774	3.5480e+000	-292.579651	-38.447082
1775	3.5500e+000	-291.275024	-38.452565
1776	3.5520e+000	-290.069580	-38.416928
1777	3.5540e+000	-288.787842	-38.375123
1778	3.5560e+000	-288.154602	-38.368270
1779	3.5580e+000	-286.621094	-38.345654
1780	3.5600e+000	-285.240173	-38.327836
1781	3.5620e+000	-284.118652	-38.299052
1782	3.5640e+000	-282.768250	-38.272325
1783	3.5660e+000	-281.753540	-38.270269
1784	3.5680e+000	-280.548096	-38.255877
1785	3.5700e+000	-279.319763	-38.213387
1786	3.5720e+000	-277.999878	-38.172952
1787	3.5740e+000	-277.069092	-38.153078
1788	3.5760e+000	-275.756836	-38.142798
1789	3.5780e+000	-274.688721	-38.130462
1790	3.5800e+000	-273.620605	-38.090028
1791	3.5820e+000	-271.995544	-38.086601
1792	3.5840e+000	-271.018982	-38.043426
1793	3.5860e+000	-269.783020	-38.026978
1794	3.5880e+000	-268.577576	-37.994083
1795	3.5900e+000	-267.303467	-37.982432
1796	3.5920e+000	-266.036987	-37.944739
1797	3.5940e+000	-265.098572	-37.930347
1798	3.5960e+000	-263.946533	-37.955704
1799	3.5980e+000	-262.817383	-37.878263
1800	3.6000e+000	-261.413574	-37.843311
1801	3.6020e+000	-260.391235	-37.817269
1802	3.6040e+000	-259.017944	-37.804933
1803	3.6060e+000	-257.926941	-37.785058
1804	3.6080e+000	-256.500244	-37.753533
1805	3.6100e+000	-255.516052	-37.721323
1806	3.6120e+000	-254.188538	-37.695281
1807	3.6140e+000	-253.326416	-37.680204
1808	3.6160e+000	-251.670837	-37.649364
1809	3.6180e+000	-250.976563	-37.637028
1810	3.6200e+000	-249.298096	-37.590426
1811	3.6220e+000	-248.100281	-37.542453
1812	3.6240e+000	-247.009277	-37.509558
1813	3.6260e+000	-245.574951	-37.483515
1814	3.6280e+000	-244.636536	-37.478718
1815	3.6300e+000	-243.576050	-37.442396
1816	3.6320e+000	-242.095947	-37.441711
1817	3.6340e+000	-241.004944	-37.408815
1818	3.6360e+000	-239.791870	-37.381402
1819	3.6380e+000	-238.578796	-37.340282
1820	3.6400e+000	-237.358093	-37.327947
1821	3.6420e+000	-236.282349	-37.295051
1822	3.6440e+000	-234.924316	-37.269009
1823	3.6460e+000	-233.474731	-37.231316
1824	3.6480e+000	-232.482910	-37.212127
1825	3.6500e+000	-231.285095	-37.173063
1826	3.6520e+000	-230.262756	-37.144279
1827	3.6540e+000	-228.790283	-37.109328
1828	3.6560e+000	-227.584839	-37.092195
1829	3.6580e+000	-226.089478	-37.053131
1830	3.6600e+000	-225.540161	-37.031201
1831	3.6620e+000	-224.243164	-37.002417
1832	3.6640e+000	-223.258972	-36.953759
1833	3.6660e+000	-221.618652	-36.957186
1834	3.6680e+000	-220.390320	-36.910584
1835	3.6700e+000	-219.688416	-36.864667
1836	3.6720e+000	-218.254089	-36.837254
1837	3.6740e+000	-216.896057	-36.833827
1838	3.6760e+000	-215.728760	-36.770777
1839	3.6780e+000	-214.675903	-36.752959
1840	3.6800e+000	-213.569641	-36.739938
1841	3.6820e+000	-212.287903	-36.695391
1842	3.6840e+000	-210.800171	-36.644677
1843	3.6860e+000	-209.983826	-36.618635
1844	3.6880e+000	-208.450317	-36.593963
1845	3.6900e+000	-207.359314	-36.565865
1846	3.6920e+000	-206.413269	-36.530228
1847	3.6940e+000	-205.131531	-36.490479
1848	3.6960e+000	-203.651428	-36.447304
1849	3.6980e+000	-202.491760	-36.410982
1850	3.7000e+000	-201.438904	-36.395219
1851	3.7020e+000	-199.859619	-36.367806
1852	3.7040e+000	-198.844910	-36.328057
1853	3.7060e+000	-197.967529	-36.282826
1854	3.7080e+000	-196.678162	-36.264322
1855	3.7100e+000	-195.487976	-36.208811
1856	3.7120e+000	-194.480896	-36.151929
1857	3.7140e+000	-193.046570	-36.123830
1858	3.7160e+000	-191.612244	-36.092991
1859	3.7180e+000	-190.757751	-36.058724
1860	3.7200e+000	-189.788818	-36.070375
1861	3.7220e+000	-188.240051	-35.977856
1862	3.7240e+000	-187.202454	-35.953870
1863	3.7260e+000	-185.768127	-35.949072
1864	3.7280e+000	-184.608459	-35.849700
1865	3.7300e+000	-183.532715	-35.825029
1866	3.7320e+000	-182.304382	-35.788021
1867	3.7340e+000	-180.740356	-35.731824
1868	3.7360e+000	-180.030823	-35.690019
1869	3.7380e+000	-178.573608	-35.661921
1870	3.7400e+000	-177.093506	-35.610522
1871	3.7420e+000	-176.223755	-35.582423
1872	3.7440e+000	-174.842834	-35.520059
1873	3.7460e+000	-173.866272	-35.470715
1874	3.7480e+000	-172.782898	-35.448785
1875	3.7500e+000	-171.180725	-35.405610
1876	3.7520e+000	-170.608521	-35.350098
1877	3.7540e+000	-168.991089	-35.291160
1878	3.7560e+000	-167.778015	-35.251411
1879	3.7580e+000	-166.458130	-35.206865
1880	3.7600e+000	-165.382385	-35.173970
1881	3.7620e+000	-164.421082	-35.108864
1882	3.7640e+000	-162.658691	-35.045814
1883	3.7660e+000	-161.834717	-35.015660
1884	3.7680e+000	-160.781860	-34.964945
1885	3.7700e+000	-159.324646	-34.912861
1886	3.7720e+000	-158.172607	-34.876539
1887	3.7740e+000	-157.005310	-34.810062
1888	3.7760e+000	-155.372620	-34.753865
1889	3.7780e+000	-154.602051	-34.694242
1890	3.7800e+000	-153.587341	-34.653808
1891	3.7820e+000	-151.947021	-34.604464
1892	3.7840e+000	-150.978088	-34.537303
1893	3.7860e+000	-149.429321	-34.475623
1894	3.7880e+000	-148.521423	-34.405720
1895	3.7900e+000	-147.132874	-34.366657
1896	3.7920e+000	-146.209717	-34.287159
1897	3.7940e+000	-145.507813	-34.228906
1898	3.7960e+000	-143.783569	-34.181619
1899	3.7980e+000	-142.471313	-34.117198
1900	3.8000e+000	-141.510010	-34.017826
1901	3.8020e+000	-140.129089	-33.968483
1902	3.8040e+000	-138.969421	-33.904062
1903	3.8060e+000	-137.710571	-33.827991
1904	3.8080e+000	-136.589050	-33.783445
1905	3.8100e+000	-135.520935	-33.725878
1906	3.8120e+000	-134.201050	-33.619652
1907	3.8140e+000	-133.125305	-33.572365
1908	3.8160e+000	-131.912231	-33.486699
1909	3.8180e+000	-130.485535	-33.413369
1910	3.8200e+000	-129.676819	-33.340040
1911	3.8220e+000	-128.105164	-33.330445
1912	3.8240e+000	-126.853943	-33.132386
1913	3.8260e+000	-125.640869	-33.110456
1914	3.8280e+000	-124.618530	-33.020678
1915	3.8300e+000	-123.321533	-32.947348
1916	3.8320e+000	-122.390747	-32.863053
1917	3.8340e+000	-121.078491	-32.765737
1918	3.8360e+000	-119.888306	-32.693093
1919	3.8380e+000	-118.789673	-32.627301
1920	3.8400e+000	-117.362976	-32.530671
1921	3.8420e+000	-116.210938	-32.414851
1922	3.8440e+000	-115.097046	-32.330556
1923	3.8460e+000	-113.784790	-32.244890
1924	3.8480e+000	-112.472534	-32.158539
1925	3.8500e+000	-111.389160	-32.047516
1926	3.8520e+000	-110.206604	-31.952942
1927	3.8540e+000	-108.856201	-31.875500
1928	3.8560e+000	-107.841492	-31.756939
1929	3.8580e+000	-106.597900	-31.659622
1930	3.8600e+000	-105.400085	-31.554082
1931	3.8620e+000	-104.164124	-31.450598
1932	3.8640e+000	-103.134155	-31.359450
1933	3.8660e+000	-101.768494	-31.248427
1934	3.8680e+000	-100.143433	-31.127810
1935	3.8700e+000	-99.334717	-31.028438
1936	3.8720e+000	-98.289490	-30.916045
1937	3.8740e+000	-96.984863	-30.829008
1938	3.8760e+000	-95.909119	-30.674810
1939	3.8780e+000	-94.429016	-30.548025
1940	3.8800e+000	-93.238831	-30.469213
1941	3.8820e+000	-92.323303	-30.331462
1942	3.8840e+000	-91.064453	-30.189600
1943	3.8860e+000	-89.660645	-30.088857
1944	3.8880e+000	-88.630676	-29.975779
1945	3.8900e+000	-87.333679	-29.820210
1946	3.8920e+000	-86.257935	-29.694110
1947	3.8940e+000	-85.220337	-29.555674
1948	3.8960e+000	-83.427429	-29.428204
1949	3.8980e+000	-82.641602	-29.276747
1950	3.9000e+000	-81.428528	-29.147220
1951	3.9020e+000	-80.085754	-29.010155
1952	3.9040e+000	-79.132080	-28.902559
1953	3.9060e+000	-77.781677	-28.726431
1954	3.9080e+000	-76.728821	-28.590051
1955	3.9100e+000	-75.233459	-28.433797
1956	3.9120e+000	-74.134827	-28.285081
1957	3.9140e+000	-73.028564	-28.138422
1958	3.9160e+000	-71.952820	-27.967776
1959	3.9180e+000	-70.564270	-27.817004
1960	3.9200e+000	-69.213867	-27.631281
1961	3.9220e+000	-68.252563	-27.466118
1962	3.9240e+000	-67.062378	-27.318773
1963	3.9260e+000	-65.834045	-27.113861
1964	3.9280e+000	-64.674377	-26.963089
1965	3.9300e+000	-63.552856	-26.769828
1966	3.9320e+000	-62.240601	-26.570398
1967	3.9340e+000	-61.119080	-26.362059
1968	3.9360e+000	-59.516907	-26.204434
1969	3.9380e+000	-58.586121	-26.013914
1970	3.9400e+000	-57.052612	-25.806260
1971	3.9420e+000	-56.587219	-25.561599
1972	3.9440e+000	-54.924011	-25.387527
1973	3.9460e+000	-53.825378	-25.200433
1974	3.9480e+000	-52.734375	-24.987982
1975	3.9500e+000	-51.475525	-24.733041
1976	3.9520e+000	-50.277710	-24.504143
1977	3.9540e+000	-49.034119	-24.261538
1978	3.9560e+000	-47.584534	-24.033324
1979	3.9580e+000	-46.470642	-23.791405
1980	3.9600e+000	-45.417786	-23.531666
1981	3.9620e+000	-44.158936	-23.283579
1982	3.9640e+000	-43.136597	-23.001910
1983	3.9660e+000	-41.931152	-22.790145
1984	3.9680e+000	-40.412903	-22.475580
1985	3.9700e+000	-39.245605	-22.204192
1986	3.9720e+000	-38.093567	-21.859473
1987	3.9740e+000	-37.147522	-21.605903
1988	3.9760e+000	-35.865784	-21.323549
1989	3.9780e+000	-34.698486	-20.990481
1990	3.9800e+000	-33.462524	-20.668378
1991	3.9820e+000	-32.020569	-20.365464
1992	3.9840e+000	-30.822754	-20.005669
1993	3.9860e+000	-29.693604	-19.656838
1994	3.9880e+000	-28.198242	-19.290189
1995	3.9900e+000	-27.511597	-18.939303
1996	3.9920e+000	-26.237488	-18.579507
1997	3.9940e+000	-24.780273	-18.195040
1998	3.9960e+000	-23.651123	-17.820167
1999	3.9980e+000	-22.766113	-17.445979
2000	4.0000e+000	-21.385193	-16.997091
2001	4.0020e+000	-20.614624	-16.647575

Center data before PMax,±Pr and ±Vc Calc.

PMax (µC/cm2):	3.89e+001
Pr (µC/cm2):	3.00e+001
-Pr (µC/cm2):	-1.66e+001
Vc:	1.16e-001
-Vc:	-3.99e-001
C (Max-Eff) (nF):	8.04e-001
K (Eff):	1.47e+003
Vert. (±Pr) Shift (µC/cm2):	6.69e+000
Horiz. Shift (±Vc):	-1.41e-001
Offset (µC/cm2):	1.13e+001

A (Loop Area - µC/cm2·Volts):	3.74e+001



Hysteresis Version: 5.16.2 - Radiant Technologies, Inc., 1999 - 3/20/18

