»»»»»»»»»»»»»»»»»»»»»»»»»»»»»»»»»»»» Hysteresis ««««««««««««««««««««««««««««««««««««
»»»  Executed Version:	5.16.2
»»»  Vision Version:	5.16.10 (R)
»»»  Vision Compiled:	4/26/18
»»»  Driver Version:	5.16.6
»»»  Windows Version:	Windows 8
»»»  Processor Information:	x86 (AMD or Intel) - 8 Processors
»»»  Tester Name:	PPM21016-863
»»»  Tester S/N:	PPM21016-863
»»»  Internal Amp Type:	 RTI ML200V    
»»»  Internal Amp S/N:	 iAB2-0000     
»»»  Execution Count:	1
»»»»»»»»»»»»»»»»»»»»»»»»»»»»»»»»»»»»»»»»»»««««««««««««««««««««««««««««««««««««««««««

Stored:	5/16/2018 - 10:4:40
Configured:	05/15/18 08:22:15 PM
Executed:	05/16/18 10:04:20 AM

»»»»»»»»»»»»»»»»»»»»»»»»»»»»»»»»»»» Sample Info ««««««««««««««««««««««««««««««««««««
Sample Name:	Internal Reference Cap.
Lot Name:	N/A
Wafer Name:	N/A
Die Row/Column:	0/0
Capacitor Number:	0
Sample Area (cm2):	7.85e-005
Sample Thickness (µm):	1.00e-001

Mux Loop Adjustment:	Disabled

Amplifier:	Internal

»»»»»»»»»»»»»»»»»»»»»»»»»»»»»»»»»»» Tester Info «««««««««««««««««««««««««««««««««««
Tester Name:	PPM21016-863
Tester Serial Number:	PPM21016-863
Return Signal Amp. Level:	0.19 [Index: 3]

»»»»»»»»»»»»»»»»»»»»»»»»»»»»»»»» Hysteresis Info ««««««««««««««««««««««««««««««««««
Task Name:	Hyst-1
Field (kV/cm):	0.03
Field:	300.00 (kV/cm)
Hysteresis Period (ms):	2.00e+000
Preset:	Enabled
Preset Delay (ms):	1.00e+003
Profile:	Double Bipolar

»»»»»»»»»»»»»»»»»»»»»»»»»»»»»»»»»»»»»» Data «««««««««««««««««««««««««««««««««««««««
Points:	2001

Valid Data

Point	Time (ms)	Field (kV/cm)	Measured Polarization
   1	1.0000e-003	0.465393	-34.969943
   2	2.0000e-003	1.365662	-35.005710
   3	3.0000e-003	2.517700	-35.072134
   4	4.0000e-003	3.715515	-34.913737
   5	5.0000e-003	4.989624	-34.785998
   6	6.0000e-003	6.225586	-34.969943
   7	7.0000e-003	7.331848	-34.453876
   8	8.0000e-003	8.453369	-34.668478
   9	9.0000e-003	9.620667	-34.550958
  10	1.0000e-002	11.016846	-34.387451
  11	1.1000e-002	12.550354	-34.351684
  12	1.2000e-002	13.496399	-34.295479
  13	1.3000e-002	14.366150	-34.469204
  14	1.4000e-002	15.769958	-34.239273
  15	1.5000e-002	16.906738	-34.183068
  16	1.6000e-002	18.356323	-33.462618
  17	1.7000e-002	19.271851	-33.917370
  18	1.8000e-002	20.591736	-33.861165
  19	1.9000e-002	21.697998	-33.324659
  20	2.0000e-002	23.040771	-33.186701
  21	2.1000e-002	24.070740	-33.171372
  22	2.2000e-002	24.833679	-32.895455
  23	2.3000e-002	26.557922	-32.777934
  24	2.4000e-002	27.717590	-32.445812
  25	2.5000e-002	28.907776	-32.052375
  26	2.6000e-002	29.869080	-31.965512
  27	2.7000e-002	31.257629	-31.612951
  28	2.8000e-002	32.493591	-31.510759
  29	2.9000e-002	33.447266	-31.081555
  30	3.0000e-002	34.843445	-30.647241
  31	3.1000e-002	35.964966	-30.754542
  32	3.2000e-002	37.246704	-30.039201
  33	3.3000e-002	38.482666	-29.609997
  34	3.4000e-002	39.718628	-29.809270
  35	3.5000e-002	40.870667	-28.823122
  36	3.6000e-002	42.053223	-28.480780
  37	3.7000e-002	43.365479	-27.990261
  38	3.8000e-002	44.235229	-26.861045
  39	3.9000e-002	45.692444	-27.218715
  40	4.0000e-002	46.936035	-26.712867
  41	4.1000e-002	48.057556	-26.069060
  42	4.2000e-002	49.194336	-25.455911
  43	4.3000e-002	50.552368	-24.873419
  44	4.4000e-002	51.536560	-24.382900
  45	4.5000e-002	52.665710	-23.897490
  46	4.6000e-002	54.252625	-22.783602
  47	4.7000e-002	55.175781	-22.308412
  48	4.8000e-002	56.304932	-21.720810
  49	4.9000e-002	57.762146	-20.852182
  50	5.0000e-002	58.311462	-20.356553
  51	5.1000e-002	59.959412	-18.992297
  52	5.2000e-002	61.111450	-18.169655
  53	5.3000e-002	62.294006	-17.265260
  54	5.4000e-002	63.560486	-15.957208
  55	5.5000e-002	64.659119	-14.879087
  56	5.6000e-002	66.169739	-13.770309
  57	5.7000e-002	66.986084	-12.589997
  58	5.8000e-002	68.367004	-11.445452
  59	5.9000e-002	70.014954	-9.887031
  60	6.0000e-002	72.128296	-8.292843
  61	6.1000e-002	71.662903	-7.168736
  62	6.2000e-002	73.074341	-5.896451
  63	6.3000e-002	74.325562	-4.067223
  64	6.4000e-002	75.424194	-2.539460
  65	6.5000e-002	76.568604	-0.909505
  66	6.6000e-002	77.674866	0.981039
  67	6.7000e-002	78.964233	2.835815
  68	6.8000e-002	79.521179	4.644605
  69	6.9000e-002	81.398010	6.857052
  70	7.0000e-002	82.527161	8.716938
  71	7.1000e-002	83.702087	10.658577
  72	7.2000e-002	84.930420	12.860805
  73	7.3000e-002	86.181641	15.083470
  74	7.4000e-002	87.341309	17.086424
  75	7.5000e-002	89.591980	20.213485
  76	7.6000e-002	89.691162	21.194524
  77	7.7000e-002	90.904236	23.468286
  78	7.8000e-002	92.010498	25.328172
  79	7.9000e-002	93.391418	27.407769
  80	8.0000e-002	94.635010	29.385175
  81	8.1000e-002	95.802307	30.923158
  82	8.2000e-002	96.984863	32.711510
  83	8.3000e-002	98.274231	34.351684
  84	8.4000e-002	99.601746	35.792585
  85	8.5000e-002	100.639343	35.746598
  86	8.6000e-002	101.928711	38.010141
  87	8.7000e-002	103.340149	39.216001
  88	8.8000e-002	104.347229	39.808712
  89	8.9000e-002	105.529785	40.421861
  90	9.0000e-002	106.567383	40.825518
  91	9.1000e-002	108.055115	41.781009
  92	9.2000e-002	109.222412	42.363500
  93	9.3000e-002	110.328674	42.542335
  94	9.4000e-002	111.648560	42.945992
  95	9.5000e-002	112.785339	43.201471
  96	9.6000e-002	113.586426	43.298553
  97	9.7000e-002	115.341187	43.410963
  98	9.8000e-002	116.348267	43.753305
  99	9.9000e-002	117.591858	43.993455
 100	1.0000e-001	118.972778	44.131414
 101	1.0100e-001	120.086670	44.754782
 102	1.0200e-001	121.093750	44.560618
 103	1.0300e-001	122.489929	44.652591
 104	1.0400e-001	123.748779	44.765001
 105	1.0500e-001	124.092102	45.541657
 106	1.0600e-001	126.022339	45.112452
 107	1.0700e-001	127.182007	45.040918
 108	1.0800e-001	128.501892	45.281069
 109	1.0900e-001	129.745483	45.321945
 110	1.1000e-001	130.912781	45.572314
 111	1.1100e-001	132.125854	45.720492
 112	1.1200e-001	133.483887	46.251888
 113	1.1300e-001	134.437561	45.945313
 114	1.1400e-001	135.612488	46.021957
 115	1.1500e-001	136.718750	45.986190
 116	1.1600e-001	138.160706	46.195683
 117	1.1700e-001	139.236450	46.078162
 118	1.1800e-001	140.518188	46.394956
 119	1.1900e-001	141.700745	46.384737
 120	1.2000e-001	142.456055	46.062834
 121	1.2100e-001	144.241333	46.655545
 122	1.2200e-001	145.240784	46.762846
 123	1.2300e-001	146.575928	46.885476
 124	1.2400e-001	147.781372	46.946791
 125	1.2500e-001	148.918152	47.094968
 126	1.2600e-001	150.123596	47.054092
 127	1.2700e-001	151.313782	47.181831
 128	1.2800e-001	152.503967	46.880366
 129	1.2900e-001	153.671265	47.784761
 130	1.3000e-001	154.869080	47.565049
 131	1.3100e-001	156.074524	47.626364
 132	1.3200e-001	157.379150	46.701531
 133	1.3300e-001	159.164429	47.948268
 134	1.3400e-001	159.744263	47.800090
 135	1.3500e-001	160.316467	48.101555
 136	1.3600e-001	162.330627	48.121993
 137	1.3700e-001	163.490295	48.065788
 138	1.3800e-001	164.581299	48.249733
 139	1.3900e-001	165.779114	48.438787
 140	1.4000e-001	166.725159	48.239513
 141	1.4100e-001	168.182373	48.443896
 142	1.4200e-001	169.296265	48.500102
 143	1.4300e-001	170.349121	48.602293
 144	1.4400e-001	171.722412	48.607403
 145	1.4500e-001	172.355652	48.740252
 146	1.4600e-001	174.041748	48.888430
 147	1.4700e-001	175.468445	49.016169
 148	1.4800e-001	176.567078	49.486250
 149	1.4900e-001	177.658081	49.051936
 150	1.5000e-001	179.023743	48.811786
 151	1.5100e-001	180.061340	49.200114
 152	1.5200e-001	180.969238	49.215443
 153	1.5300e-001	182.479858	49.338072
 154	1.5400e-001	183.860779	49.455593
 155	1.5500e-001	184.844971	49.465812
 156	1.5600e-001	186.279297	49.659976
 157	1.5700e-001	187.484741	49.654866
 158	1.5800e-001	188.583374	49.690633
 159	1.5900e-001	189.842224	49.828592
 160	1.6000e-001	190.452576	49.644647
 161	1.6100e-001	192.642212	50.329330
 162	1.6200e-001	193.389893	49.849030
 163	1.6300e-001	194.465637	50.043194
 164	1.6400e-001	196.067810	49.573113
 165	1.6500e-001	196.807861	50.222029
 166	1.6600e-001	198.066711	50.380426
 167	1.6700e-001	199.363708	50.390645
 168	1.6800e-001	200.347900	50.288454
 169	1.6900e-001	201.713562	50.416193
 170	1.7000e-001	202.598572	50.176043
 171	1.7100e-001	204.040527	50.661453
 172	1.7200e-001	205.429077	50.533713
 173	1.7300e-001	206.497192	50.799411
 174	1.7400e-001	207.580566	50.778973
 175	1.7500e-001	208.824158	50.518385
 176	1.7600e-001	210.075378	50.988466
 177	1.7700e-001	211.296082	50.942479
 178	1.7800e-001	212.562561	51.065109
 179	1.7900e-001	213.935852	50.211810
 180	1.8000e-001	214.653015	51.121315
 181	1.8100e-001	216.102600	51.310369
 182	1.8200e-001	217.308044	51.346136
 183	1.8300e-001	218.536377	51.325698
 184	1.8400e-001	219.726563	51.509642
 185	1.8500e-001	220.901489	51.570957
 186	1.8600e-001	222.091675	51.642491
 187	1.8700e-001	223.297119	51.494314
 188	1.8800e-001	224.533081	51.734464
 189	1.8900e-001	226.158142	51.857094
 190	1.9000e-001	226.921082	51.683368
 191	1.9100e-001	228.225708	51.908189
 192	1.9200e-001	229.385376	51.841765
 193	1.9300e-001	230.400085	52.138120
 194	1.9400e-001	231.361389	52.189216
 195	1.9500e-001	233.016968	52.107463
 196	1.9600e-001	234.031677	52.163668
 197	1.9700e-001	235.336304	52.276079
 198	1.9800e-001	236.167908	51.857094
 199	1.9900e-001	237.602234	52.408928
 200	2.0000e-001	239.006042	52.424257
 201	2.0100e-001	240.226746	52.495791
 202	2.0200e-001	241.241455	52.511120
 203	2.0300e-001	242.599487	52.444695
 204	2.0400e-001	243.881226	52.776818
 205	2.0500e-001	244.720459	52.465133
 206	2.0600e-001	246.025085	52.730831
 207	2.0700e-001	247.306824	52.623530
 208	2.0800e-001	248.481750	52.955653
 209	2.0900e-001	250.419617	53.609679
 210	2.1000e-001	250.907898	53.011858
 211	2.1100e-001	252.044678	53.206022
 212	2.1200e-001	253.379822	52.730831
 213	2.1300e-001	254.531860	53.154926
 214	2.1400e-001	255.767822	53.134488
 215	2.1500e-001	256.736755	53.272446
 216	2.1600e-001	258.049011	53.379748
 217	2.1700e-001	259.613037	53.558583
 218	2.1800e-001	260.566711	53.379748
 219	2.1900e-001	261.772156	53.594350
 220	2.2000e-001	262.870789	53.507487
 221	2.2100e-001	264.122009	53.676103
 222	2.2200e-001	265.251160	53.609679
 223	2.2300e-001	266.571045	53.599459
 224	2.2400e-001	268.112183	53.773185
 225	2.2500e-001	268.798828	54.018445
 226	2.2600e-001	270.942688	54.084869
 227	2.2700e-001	271.270752	53.977568
 228	2.2800e-001	272.560120	53.962239
 229	2.2900e-001	273.712158	54.105307
 230	2.3000e-001	275.016785	54.125746
 231	2.3100e-001	276.054382	54.049102
 232	2.3200e-001	277.290344	54.161513
 233	2.3300e-001	278.518677	54.365896
 234	2.3400e-001	279.823303	54.238156
 235	2.3500e-001	280.998230	54.089979
 236	2.3600e-001	282.012939	54.304581
 237	2.3700e-001	283.134460	54.376115
 238	2.3800e-001	284.416199	54.391444
 239	2.3900e-001	286.186218	54.933059
 240	2.4000e-001	286.827087	54.795100
 241	2.4100e-001	288.078308	54.800210
 242	2.4200e-001	289.253235	54.749114
 243	2.4300e-001	290.428162	54.682690
 244	2.4400e-001	291.656494	54.902401
 245	2.4500e-001	292.503357	54.682690
 246	2.4600e-001	294.090271	54.917730
 247	2.4700e-001	295.326233	55.071017
 248	2.4800e-001	296.524048	55.045470
 249	2.4900e-001	297.706604	55.004593
 250	2.5000e-001	298.744202	55.311168
 251	2.5100e-001	300.178528	55.178319
 252	2.5200e-001	299.278259	55.147661
 253	2.5300e-001	298.027039	55.132332
 254	2.5400e-001	296.958923	54.841086
 255	2.5500e-001	295.364380	55.168099
 256	2.5600e-001	294.456482	55.117004
 257	2.5700e-001	293.113708	55.214086
 258	2.5800e-001	291.923523	55.239633
 259	2.5900e-001	290.809631	55.137442
 260	2.6000e-001	289.512634	55.086346
 261	2.6100e-001	288.551331	55.203866
 262	2.6200e-001	287.223816	55.055689
 263	2.6300e-001	285.919189	55.101675
 264	2.6400e-001	285.476685	55.260072
 265	2.6500e-001	283.638000	55.025031
 266	2.6600e-001	282.379150	55.091456
 267	2.6700e-001	281.166077	55.086346
 268	2.6800e-001	281.593323	55.888550
 269	2.6900e-001	278.617859	55.147661
 270	2.7000e-001	277.648926	55.244743
 271	2.7100e-001	276.405334	54.958607
 272	2.7200e-001	275.123596	55.081237
 273	2.7300e-001	273.612976	54.943278
 274	2.7400e-001	272.865295	54.907511
 275	2.7500e-001	271.545410	54.789991
 276	2.7600e-001	270.385742	54.835977
 277	2.7700e-001	269.233704	55.050579
 278	2.7800e-001	267.883301	54.810429
 279	2.7900e-001	267.005920	55.464455
 280	2.8000e-001	265.495300	54.728676
 281	2.8100e-001	264.175415	54.861525
 282	2.8200e-001	262.924194	54.968826
 283	2.8300e-001	260.498047	54.181951
 284	2.8400e-001	260.955811	54.784881
 285	2.8500e-001	259.567261	55.106784
 286	2.8600e-001	258.232117	54.825758
 287	2.8700e-001	257.171631	54.580498
 288	2.8800e-001	255.981445	54.754224
 289	2.8900e-001	254.692078	54.703128
 290	2.9000e-001	253.677368	54.554950
 291	2.9100e-001	252.464294	54.631594
 292	2.9200e-001	250.892639	54.570279
 293	2.9300e-001	250.030518	54.575389
 294	2.9400e-001	248.146057	54.079760
 295	2.9500e-001	247.428894	54.902401
 296	2.9600e-001	246.459961	54.371005
 297	2.9700e-001	245.346069	54.611156
 298	2.9800e-001	244.071960	54.626484
 299	2.9900e-001	242.614746	54.508964
 300	3.0000e-001	241.661072	54.728676
 301	3.0100e-001	240.394592	54.340348
 302	3.0200e-001	239.265442	54.411882
 303	3.0300e-001	238.113403	54.473197
 304	3.0400e-001	236.778259	54.396553
 305	3.0500e-001	235.588074	54.452759
 306	3.0600e-001	234.291077	54.309691
 307	3.0700e-001	233.329773	54.355677
 308	3.0800e-001	231.925964	54.309691
 309	3.0900e-001	230.567932	54.652032
 310	3.1000e-001	229.957581	54.427211
 311	3.1100e-001	228.324890	54.345458
 312	3.1200e-001	227.294922	54.488526
 313	3.1300e-001	225.715637	54.018445
 314	3.1400e-001	224.754333	54.125746
 315	3.1500e-001	223.777771	54.396553
 316	3.1600e-001	222.259521	54.089979
 317	3.1700e-001	221.099854	54.100198
 318	3.1800e-001	220.039368	54.074650
 319	3.1900e-001	219.245911	54.488526
 320	3.2000e-001	217.689514	54.008225
 321	3.2100e-001	216.468811	53.957130
 322	3.2200e-001	215.209961	53.946911
 323	3.2300e-001	213.943481	54.049102
 324	3.2400e-001	212.699890	54.095088
 325	3.2500e-001	211.502075	54.391444
 326	3.2600e-001	210.166931	53.798733
 327	3.2700e-001	209.175110	53.768075
 328	3.2800e-001	208.038330	53.839609
 329	3.2900e-001	207.206726	54.059321
 330	3.3000e-001	205.474854	53.829390
 331	3.3100e-001	204.345703	53.803842
 332	3.3200e-001	203.208923	53.762966
 333	3.3300e-001	201.896667	53.604569
 334	3.3400e-001	200.737000	53.681213
 335	3.3500e-001	199.554443	53.563692
 336	3.3600e-001	198.341370	53.568802
 337	3.3700e-001	197.196960	53.701651
 338	3.3800e-001	196.479797	53.788514
 339	3.3900e-001	194.869995	53.517706
 340	3.4000e-001	193.634033	53.829390
 341	3.4100e-001	192.207336	53.497268
 342	3.4200e-001	191.352844	53.318433
 343	3.4300e-001	190.017700	53.282666
 344	3.4400e-001	188.796997	53.338871
 345	3.4500e-001	187.828064	53.400186
 346	3.4600e-001	186.378479	53.257118
 347	3.4700e-001	184.692383	53.114050
 348	3.4800e-001	184.135437	53.338871
 349	3.4900e-001	182.701111	52.879009
 350	3.5000e-001	181.709290	53.206022
 351	3.5100e-001	180.404663	53.119159
 352	3.5200e-001	179.161072	53.078283
 353	3.5300e-001	178.115845	53.108940
 354	3.5400e-001	176.841736	53.042516
 355	3.5500e-001	175.308228	52.551996
 356	3.5600e-001	174.255371	52.833023
 357	3.5700e-001	173.019409	53.027187
 358	3.5800e-001	171.958923	52.843242
 359	3.5900e-001	170.890808	52.960762
 360	3.6000e-001	167.915344	51.642491
 361	3.6100e-001	168.357849	52.884119
 362	3.6200e-001	167.411804	52.812585
 363	3.6300e-001	165.893555	52.730831
 364	3.6400e-001	164.627075	52.649078
 365	3.6500e-001	163.658142	52.735941
 366	3.6600e-001	161.964417	52.419147
 367	3.6700e-001	161.216736	52.495791
 368	3.6800e-001	160.057068	52.582654
 369	3.6900e-001	158.889771	52.475352
 370	3.7000e-001	157.661438	51.974614
 371	3.7100e-001	156.517029	52.424257
 372	3.7200e-001	155.097961	52.414038
 373	3.7300e-001	153.778076	52.301627
 374	3.7400e-001	152.755737	52.475352
 375	3.7500e-001	151.451111	51.913299
 376	3.7600e-001	150.184631	52.265860
 377	3.7700e-001	149.482727	52.199435
 378	3.7800e-001	148.040771	52.163668
 379	3.7900e-001	146.682739	52.122792
 380	3.8000e-001	145.729065	52.030819
 381	3.8100e-001	144.569397	52.025710
 382	3.8200e-001	143.104553	52.035929
 383	3.8300e-001	142.028809	51.867313
 384	3.8400e-001	140.518188	51.867313
 385	3.8500e-001	139.587402	51.851984
 386	3.8600e-001	138.389587	51.959285
 387	3.8700e-001	137.351990	52.041038
 388	3.8800e-001	135.993958	51.780450
 389	3.8900e-001	134.864807	51.632272
 390	3.9000e-001	133.651733	51.596505
 391	3.9100e-001	132.362366	51.642491
 392	3.9200e-001	130.935669	51.790669
 393	3.9300e-001	129.928589	51.816217
 394	3.9400e-001	128.906250	51.494314
 395	3.9500e-001	127.746582	51.387013
 396	3.9600e-001	126.518250	51.320588
 397	3.9700e-001	125.198364	51.330807
 398	3.9800e-001	124.153137	51.295040
 399	3.9900e-001	122.856140	51.203068
 400	4.0000e-001	121.620178	51.065109
 401	4.0100e-001	120.513916	51.197958
 402	4.0200e-001	118.881226	51.192849
 403	4.0300e-001	118.217468	50.334440
 404	4.0400e-001	116.828918	50.952699
 405	4.0500e-001	115.745544	50.916932
 406	4.0600e-001	114.364624	50.835178
 407	4.0700e-001	114.067078	50.656343
 408	4.0800e-001	111.709595	50.773863
 409	4.0900e-001	110.610962	50.722768
 410	4.1000e-001	109.519958	50.809630
 411	4.1100e-001	108.406067	50.641014
 412	4.1200e-001	106.849670	50.359988
 413	4.1300e-001	106.048584	50.523494
 414	4.1400e-001	104.972839	50.538823
 415	4.1500e-001	103.668213	51.141753
 416	4.1600e-001	102.455139	50.513275
 417	4.1700e-001	101.379395	49.854140
 418	4.1800e-001	99.922180	50.339549
 419	4.1900e-001	98.640442	50.411084
 420	4.2000e-001	97.724915	50.078961
 421	4.2100e-001	96.420288	50.692110
 422	4.2200e-001	95.352173	50.140276
 423	4.2300e-001	94.047546	49.578223
 424	4.2400e-001	92.636108	49.889907
 425	4.2500e-001	91.575623	49.833701
 426	4.2600e-001	90.454102	49.976769
 427	4.2700e-001	89.218140	49.762167
 428	4.2800e-001	87.837219	49.649757
 429	4.2900e-001	86.936951	49.659976
 430	4.3000e-001	85.731506	49.537346
 431	4.3100e-001	84.373474	49.700852
 432	4.3200e-001	83.099365	49.435154
 433	4.3300e-001	82.153320	49.501579
 434	4.3400e-001	80.703735	49.184785
 435	4.3500e-001	79.795837	49.562894
 436	4.3600e-001	78.414917	49.159237
 437	4.3700e-001	77.117920	49.179676
 438	4.3800e-001	75.996399	49.082594
 439	4.3900e-001	75.111389	49.149018
 440	4.4000e-001	73.524475	48.883320
 441	4.4100e-001	72.456360	48.903758
 442	4.4200e-001	71.159363	48.959964
 443	4.4300e-001	69.938660	48.776019
 444	4.4400e-001	68.878174	48.724923
 445	4.4500e-001	67.771912	48.479664
 446	4.4600e-001	66.307068	48.556307
 447	4.4700e-001	65.376282	48.571636
 448	4.4800e-001	64.018250	48.581855
 449	4.4900e-001	62.881470	48.147541
 450	4.5000e-001	60.882568	47.938048
 451	4.5100e-001	60.440063	48.224185
 452	4.5200e-001	59.165955	48.183308
 453	4.5300e-001	57.853699	48.142431
 454	4.5400e-001	56.457520	47.611035
 455	4.5500e-001	55.656433	48.091336
 456	4.5600e-001	54.389954	47.958487
 457	4.5700e-001	53.199768	47.375995
 458	4.5800e-001	51.322937	47.427091
 459	4.5900e-001	50.949097	47.626364
 460	4.6000e-001	49.568176	47.544611
 461	4.6100e-001	48.355103	47.345338
 462	4.6200e-001	47.149658	47.488406
 463	4.6300e-001	46.180725	47.284023
 464	4.6400e-001	44.746399	47.232927
 465	4.6500e-001	43.624878	47.360666
 466	4.6600e-001	42.396545	47.064311
 467	4.6700e-001	41.114807	46.890585
 468	4.6800e-001	39.764404	46.798613
 469	4.6900e-001	38.879395	46.875256
 470	4.7000e-001	37.689209	46.543134
 471	4.7100e-001	36.567688	46.752627
 472	4.7200e-001	35.263062	46.461381
 473	4.7300e-001	33.874512	46.400066
 474	4.7400e-001	32.768250	46.374518
 475	4.7500e-001	31.784058	46.369408
 476	4.7600e-001	30.113220	46.027067
 477	4.7700e-001	29.411316	45.991300
 478	4.7800e-001	28.221130	45.929985
 479	4.7900e-001	26.664734	45.802245
 480	4.8000e-001	25.619507	45.950423
 481	4.8100e-001	24.528503	45.526328
 482	4.8200e-001	23.208618	45.526328
 483	4.8300e-001	22.048950	45.490561
 484	4.8400e-001	20.812988	45.260630
 485	4.8500e-001	19.523621	45.321945
 486	4.8600e-001	18.867493	44.586166
 487	4.8700e-001	17.402649	44.887631
 488	4.8800e-001	15.937805	44.780330
 489	4.8900e-001	14.854431	44.647481
 490	4.9000e-001	13.771057	44.575947
 491	4.9100e-001	12.237549	44.504413
 492	4.9200e-001	11.306763	44.156962
 493	4.9300e-001	10.032654	44.509522
 494	4.9400e-001	8.682251	43.773743
 495	4.9500e-001	6.881714	43.681771
 496	4.9600e-001	6.614685	43.472278
 497	4.9700e-001	4.104614	42.598541
 498	4.9800e-001	3.921509	43.135046
 499	4.9900e-001	2.807617	42.843800
 500	5.0000e-001	1.396179	42.762047
 501	5.0100e-001	0.564575	42.501459
 502	5.0200e-001	-0.648499	41.990501
 503	5.0300e-001	-1.953125	41.791228
 504	5.0400e-001	-2.998352	41.499982
 505	5.0500e-001	-4.112244	41.234284
 506	5.0600e-001	-5.661011	39.956890
 507	5.0700e-001	-6.645203	40.467847
 508	5.0800e-001	-7.888794	40.053972
 509	5.0900e-001	-9.025574	39.507247
 510	5.1000e-001	-10.238647	39.292645
 511	5.1100e-001	-11.474609	38.383140
 512	5.1200e-001	-12.870789	37.851744
 513	5.1300e-001	-13.839722	36.952459
 514	5.1400e-001	-15.121460	36.364857
 515	5.1500e-001	-16.464233	35.593311
 516	5.1600e-001	-17.295837	34.857532
 517	5.1700e-001	-18.333435	34.193287
 518	5.1800e-001	-19.844055	32.803482
 519	5.1900e-001	-20.874023	31.863320
 520	5.2000e-001	-22.064209	30.483734
 521	5.2100e-001	-23.468018	29.282984
 522	5.2200e-001	-24.505615	28.112891
 523	5.2300e-001	-25.184631	26.661771
 524	5.2400e-001	-26.931763	24.960282
 525	5.2500e-001	-27.999878	23.422299
 526	5.2600e-001	-29.083252	21.771906
 527	5.2700e-001	-30.380249	20.085746
 528	5.2800e-001	-31.608582	17.919285
 529	5.2900e-001	-32.646179	15.957208
 530	5.3000e-001	-34.072876	14.378349
 531	5.3100e-001	-35.217285	12.308970
 532	5.3200e-001	-36.994934	10.004551
 533	5.3300e-001	-38.146973	7.551954
 534	5.3400e-001	-38.520813	6.044629
 535	5.3500e-001	-40.130615	3.873059
 536	5.3600e-001	-41.114807	1.752585
 537	5.3700e-001	-42.335510	-0.669355
 538	5.3800e-001	-43.617249	-2.340186
 539	5.3900e-001	-44.761658	-4.322702
 540	5.4000e-001	-45.967102	-6.208136
 541	5.4100e-001	-47.233582	-8.507445
 542	5.4200e-001	-48.316956	-9.718415
 543	5.4300e-001	-49.758911	-11.506767
 544	5.4400e-001	-51.589966	-13.458625
 545	5.4500e-001	-52.482605	-14.327253
 546	5.4600e-001	-53.367615	-15.803921
 547	5.4700e-001	-54.519653	-17.234602
 548	5.4800e-001	-55.801392	-18.297394
 549	5.4900e-001	-56.877136	-19.544131
 550	5.5000e-001	-58.227539	-20.555827
 551	5.5100e-001	-59.417725	-21.777016
 552	5.5200e-001	-60.646057	-22.497466
 553	5.5300e-001	-62.011719	-23.345656
 554	5.5400e-001	-62.858582	-24.076325
 555	5.5500e-001	-64.239502	-24.801885
 556	5.5600e-001	-65.475464	-25.394596
 557	5.5700e-001	-66.635132	-26.263224
 558	5.5800e-001	-67.794800	-26.845716
 559	5.5900e-001	-69.137573	-27.576385
 560	5.6000e-001	-70.419312	-28.041357
 561	5.6100e-001	-71.456909	-28.511438
 562	5.6200e-001	-72.731018	-29.196121
 563	5.6300e-001	-73.783875	-29.701969
 564	5.6400e-001	-74.897766	-30.120955
 565	5.6500e-001	-76.263428	-30.493954
 566	5.6600e-001	-77.499390	-31.107103
 567	5.6700e-001	-78.704834	-31.648718
 568	5.6800e-001	-79.940796	-32.333401
 569	5.6900e-001	-80.795288	-32.583770
 570	5.7000e-001	-82.435608	-32.869907
 571	5.7100e-001	-83.679199	-33.309330
 572	5.7200e-001	-84.571838	-33.472837
 573	5.7300e-001	-86.036682	-33.937808
 574	5.7400e-001	-87.242126	-34.264821
 575	5.7500e-001	-88.432312	-34.673587
 576	5.7600e-001	-89.355469	-34.760450
 577	5.7700e-001	-90.629578	-35.210093
 578	5.7800e-001	-92.529297	-35.710831
 579	5.7900e-001	-93.086243	-35.751708
 580	5.8000e-001	-94.726563	-36.676541
 581	5.8100e-001	-95.275879	-36.216679
 582	5.8200e-001	-96.817017	-36.599898
 583	5.8300e-001	-98.106384	-36.288214
 584	5.8400e-001	-99.075317	-36.916692
 585	5.8500e-001	-100.341797	-37.340786
 586	5.8600e-001	-101.753235	-37.570717
 587	5.8700e-001	-102.783203	-38.613071
 588	5.8800e-001	-104.103088	-38.040798
 589	5.8900e-001	-105.346680	-38.204305
 590	5.9000e-001	-106.269836	-38.286058
 591	5.9100e-001	-108.276367	-38.934974
 592	5.9200e-001	-108.764648	-38.597742
 593	5.9300e-001	-109.779358	-38.761249
 594	5.9400e-001	-111.167908	-38.924755
 595	5.9500e-001	-112.396240	-39.072933
 596	5.9600e-001	-113.571167	-39.568562
 597	5.9700e-001	-114.807129	-39.522576
 598	5.9800e-001	-115.875244	-39.594110
 599	5.9900e-001	-117.004395	-39.543014
 600	6.0000e-001	-118.316650	-39.818931
 601	6.0100e-001	-119.598389	-39.655425
 602	6.0200e-001	-120.651245	-39.987547
 603	6.0300e-001	-122.100830	-39.941561
 604	6.0400e-001	-123.107910	-40.360546
 605	6.0500e-001	-124.343872	-40.498505
 606	6.0600e-001	-125.549316	-40.707997
 607	6.0700e-001	-127.105713	-41.178078
 608	6.0800e-001	-127.853394	-40.871504
 609	6.0900e-001	-129.188538	-41.101435
 610	6.1000e-001	-130.340576	-41.157640
 611	6.1100e-001	-131.065369	-40.799970
 612	6.1200e-001	-132.751465	-41.443776
 613	6.1300e-001	-133.926392	-41.525530
 614	6.1400e-001	-135.108948	-41.372242
 615	6.1500e-001	-136.306763	-41.423338
 616	6.1600e-001	-137.405396	-41.806556
 617	6.1700e-001	-138.732910	-41.826995
 618	6.1800e-001	-140.007019	-41.597064
 619	6.1900e-001	-141.090393	-42.199994
 620	6.2000e-001	-142.250061	-42.199994
 621	6.2100e-001	-143.615723	-42.235761
 622	6.2200e-001	-144.531250	-42.348172
 623	6.2300e-001	-146.072388	-42.358391
 624	6.2400e-001	-147.659302	-42.818253
 625	6.2500e-001	-148.277283	-42.859129
 626	6.2600e-001	-149.566650	-42.823362
 627	6.2700e-001	-151.199341	-43.594908
 628	6.2800e-001	-151.771545	-42.997088
 629	6.2900e-001	-153.121948	-43.881045
 630	6.3000e-001	-154.174805	-43.252567
 631	6.3100e-001	-155.410767	-43.308772
 632	6.3200e-001	-156.784058	-43.329210
 633	6.3300e-001	-157.730103	-43.743086
 634	6.3400e-001	-159.179688	-43.456950
 635	6.3500e-001	-160.293579	-43.748196
 636	6.3600e-001	-161.483765	-43.870825
 637	6.3700e-001	-162.597656	-43.911702
 638	6.3800e-001	-164.192200	-43.927031
 639	6.3900e-001	-165.145874	-44.172290
 640	6.4000e-001	-166.160583	-44.172290
 641	6.4100e-001	-167.655945	-44.243824
 642	6.4200e-001	-168.006897	-43.676661
 643	6.4300e-001	-170.227051	-44.642371
 644	6.4400e-001	-171.127319	-44.519742
 645	6.4500e-001	-172.187805	-44.529961
 646	6.4600e-001	-173.439026	-44.652591
 647	6.4700e-001	-174.804688	-44.805878
 648	6.4800e-001	-175.910950	-44.826316
 649	6.4900e-001	-176.971436	-45.725602
 650	6.5000e-001	-178.543091	-45.081795
 651	6.5100e-001	-179.519653	-45.189096
 652	6.5200e-001	-180.908203	-45.480342
 653	6.5300e-001	-182.144165	-45.306616
 654	6.5400e-001	-183.082581	-45.362822
 655	6.5500e-001	-184.295654	-45.694944
 656	6.5600e-001	-185.783386	-45.521219
 657	6.5700e-001	-187.057495	-45.204425
 658	6.5800e-001	-187.767029	-45.710273
 659	6.5900e-001	-189.193726	-45.889108
 660	6.6000e-001	-190.467834	-46.195683
 661	6.6100e-001	-192.047119	-46.538024
 662	6.6200e-001	-192.916870	-46.195683
 663	6.6300e-001	-193.801880	-46.292765
 664	6.6400e-001	-194.931030	-45.577424
 665	6.6500e-001	-196.678162	-46.660654
 666	6.6600e-001	-197.525024	-46.532915
 667	6.6700e-001	-198.669434	-46.629997
 668	6.6800e-001	-200.134277	-46.543134
 669	6.6900e-001	-201.232910	-46.803722
 670	6.7000e-001	-202.812195	-46.885476
 671	6.7100e-001	-203.636169	-46.834380
 672	6.7200e-001	-205.177307	-47.176721
 673	6.7300e-001	-205.970764	-47.059201
 674	6.7400e-001	-207.206726	-47.115407
 675	6.7500e-001	-208.297729	-47.330009
 676	6.7600e-001	-209.495544	-47.442419
 677	6.7700e-001	-211.013794	-47.381105
 678	6.7800e-001	-211.791992	-47.498625
 679	6.7900e-001	-213.470459	-47.641693
 680	6.8000e-001	-214.515686	-47.651912
 681	6.8100e-001	-215.614319	-47.840966
 682	6.8200e-001	-216.789246	-47.769432
 683	6.8300e-001	-218.032837	-47.892062
 684	6.8400e-001	-219.100952	-48.009582
 685	6.8500e-001	-220.291138	-47.938048
 686	6.8600e-001	-221.702576	-48.060678
 687	6.8700e-001	-223.098755	-48.403020
 688	6.8800e-001	-223.838806	-48.111774
 689	6.8900e-001	-225.326538	-48.586965
 690	6.9000e-001	-226.226807	-48.449006
 691	6.9100e-001	-227.600098	-48.709594
 692	6.9200e-001	-228.607178	-48.607403
 693	6.9300e-001	-229.995728	-48.612513
 694	6.9400e-001	-231.056213	-48.735142
 695	6.9500e-001	-232.383728	-48.551198
 696	6.9600e-001	-233.467102	-48.883320
 697	6.9700e-001	-234.687805	-49.113251
 698	6.9800e-001	-235.778809	-48.985512
 699	6.9900e-001	-237.030029	-49.072374
 700	7.0000e-001	-238.395691	-49.261429
 701	7.0100e-001	-239.562988	-49.363620
 702	7.0200e-001	-241.035461	-49.327853
 703	7.0300e-001	-241.859436	-49.302305
 704	7.0400e-001	-243.133545	-49.496469
 705	7.0500e-001	-244.323730	-49.598661
 706	7.0600e-001	-245.567322	-49.358511
 707	7.0700e-001	-246.742249	-49.491360
 708	7.0800e-001	-247.802734	-49.767277
 709	7.0900e-001	-249.069214	-49.808153
 710	7.1000e-001	-250.328064	-50.620576
 711	7.1100e-001	-251.586914	-50.130057
 712	7.1200e-001	-252.655029	-50.186262
 713	7.1300e-001	-253.860474	-50.354878
 714	7.1400e-001	-254.997253	-50.252687
 715	7.1500e-001	-255.867004	-50.278235
 716	7.1600e-001	-257.934570	-50.778973
 717	7.1700e-001	-259.292603	-50.569480
 718	7.1800e-001	-259.704590	-50.518385
 719	7.1900e-001	-261.100769	-50.615467
 720	7.2000e-001	-262.260437	-50.676781
 721	7.2100e-001	-263.565063	-50.712549
 722	7.2200e-001	-264.472961	-50.998685
 723	7.2300e-001	-266.098022	-50.993575
 724	7.2400e-001	-266.952515	-50.998685
 725	7.2500e-001	-268.180847	-51.054890
 726	7.2600e-001	-269.416809	-50.738096
 727	7.2700e-001	-270.774841	-51.197958
 728	7.2800e-001	-271.682739	-51.458547
 729	7.2900e-001	-273.292542	-51.346136
 730	7.3000e-001	-274.368286	-51.448328
 731	7.3100e-001	-275.550842	-51.550519
 732	7.3200e-001	-277.023315	-51.545410
 733	7.3300e-001	-277.587891	-51.708916
 734	7.3400e-001	-278.976440	-51.805998
 735	7.3500e-001	-280.265808	-51.816217
 736	7.3600e-001	-281.646729	-51.959285
 737	7.3700e-001	-282.546997	-51.857094
 738	7.3800e-001	-283.874512	-52.056367
 739	7.3900e-001	-285.240173	-52.117682
 740	7.4000e-001	-286.170959	-52.347613
 741	7.4100e-001	-287.422180	-52.817694
 742	7.4200e-001	-288.825989	-52.230093
 743	7.4300e-001	-289.688110	-52.500900
 744	7.4400e-001	-290.534973	-52.306736
 745	7.4500e-001	-292.480469	-52.603092
 746	7.4600e-001	-293.304443	-52.746160
 747	7.4700e-001	-295.288086	-52.577544
 748	7.4800e-001	-295.928955	-53.052735
 749	7.4900e-001	-297.065735	-52.868790
 750	7.5000e-001	-298.309326	-52.894338
 751	7.5100e-001	-299.308777	-52.950543
 752	7.5200e-001	-298.446655	-53.206022
 753	7.5300e-001	-297.874451	-52.981201
 754	7.5400e-001	-296.226501	-53.016968
 755	7.5500e-001	-294.738770	-52.843242
 756	7.5600e-001	-293.807983	-53.093611
 757	7.5700e-001	-292.823792	-53.154926
 758	7.5800e-001	-291.381836	-53.062954
 759	7.5900e-001	-290.443420	-52.981201
 760	7.6000e-001	-289.184570	-53.093611
 761	7.6100e-001	-287.628174	-53.083392
 762	7.6200e-001	-287.162781	-52.705283
 763	7.6300e-001	-285.530090	-53.180474
 764	7.6400e-001	-284.088135	-53.042516
 765	7.6500e-001	-283.134460	-52.960762
 766	7.6600e-001	-281.845093	-52.986310
 767	7.6700e-001	-280.578613	-53.001639
 768	7.6800e-001	-279.502869	-52.904557
 769	7.6900e-001	-277.801514	-52.720612
 770	7.7000e-001	-276.741028	-52.996529
 771	7.7100e-001	-275.894165	-52.873899
 772	7.7200e-001	-274.734497	-53.476830
 773	7.7300e-001	-273.193359	-52.868790
 774	7.7400e-001	-272.216797	-52.858571
 775	7.7500e-001	-271.179199	-52.838132
 776	7.7600e-001	-269.622803	-52.741050
 777	7.7700e-001	-267.822266	-52.291408
 778	7.7800e-001	-267.456055	-52.884119
 779	7.7900e-001	-266.166687	-52.827913
 780	7.8000e-001	-265.014648	-52.735941
 781	7.8100e-001	-263.603210	-52.894338
 782	7.8200e-001	-262.611389	-52.710393
 783	7.8300e-001	-261.482239	-53.057844
 784	7.8400e-001	-260.299683	-52.608201
 785	7.8500e-001	-258.804321	-52.506010
 786	7.8600e-001	-257.926941	-52.700174
 787	7.8700e-001	-256.156921	-51.611834
 788	7.8800e-001	-255.531311	-52.689955
 789	7.8900e-001	-254.112244	-52.597982
 790	7.9000e-001	-253.662109	-52.787037
 791	7.9100e-001	-251.785278	-52.506010
 792	7.9200e-001	-250.061035	-52.378271
 793	7.9300e-001	-249.572754	-52.597982
 794	7.9400e-001	-248.390198	-52.490681
 795	7.9500e-001	-247.192383	-52.408928
 796	7.9600e-001	-245.841980	-52.470243
 797	7.9700e-001	-244.628906	-52.368051
 798	7.9800e-001	-243.438721	-52.424257
 799	7.9900e-001	-242.286682	-52.623530
 800	8.0000e-001	-241.165161	-52.301627
 801	8.0100e-001	-239.875793	-52.235202
 802	8.0200e-001	-238.754272	-52.654188
 803	8.0300e-001	-237.457275	-52.189216
 804	8.0400e-001	-236.190796	-52.260750
 805	8.0500e-001	-234.779358	-52.020600
 806	8.0600e-001	-233.871460	-52.270969
 807	8.0700e-001	-232.032776	-51.877532
 808	8.0800e-001	-231.361389	-51.984833
 809	8.0900e-001	-230.552673	-52.219874
 810	8.1000e-001	-229.118347	-52.081915
 811	8.1100e-001	-227.767944	-52.158559
 812	8.1200e-001	-226.554871	-51.969504
 813	8.1300e-001	-225.502014	-51.903080
 814	8.1400e-001	-224.243164	-52.035929
 815	8.1500e-001	-223.251343	-52.061477
 816	8.1600e-001	-221.923828	-51.887751
 817	8.1700e-001	-220.642090	-51.785560
 818	8.1800e-001	-219.238281	-51.678259
 819	8.1900e-001	-218.429565	-51.851984
 820	8.2000e-001	-216.941833	-51.765121
 821	8.2100e-001	-215.850830	-51.657820
 822	8.2200e-001	-213.859558	-51.065109
 823	8.2300e-001	-213.409424	-51.729354
 824	8.2400e-001	-212.203979	-51.616944
 825	8.2500e-001	-210.876465	-51.642491
 826	8.2600e-001	-209.922791	-51.703806
 827	8.2700e-001	-208.343506	-51.570957
 828	8.2800e-001	-207.527161	-51.540300
 829	8.2900e-001	-206.268311	-51.509642
 830	8.3000e-001	-205.085754	-51.427889
 831	8.3100e-001	-203.811646	-51.448328
 832	8.3200e-001	-202.682495	-51.233725
 833	8.3300e-001	-201.477051	-51.162191
 834	8.3400e-001	-200.271606	-51.351246
 835	8.3500e-001	-198.936462	-51.305259
 836	8.3600e-001	-198.577881	-51.504533
 837	8.3700e-001	-195.877075	-50.773863
 838	8.3800e-001	-195.365906	-51.300150
 839	8.3900e-001	-194.404602	-51.075328
 840	8.4000e-001	-193.069458	-51.029342
 841	8.4100e-001	-191.871643	-50.957808
 842	8.4200e-001	-190.719604	-51.346136
 843	8.4300e-001	-189.468384	-50.947589
 844	8.4400e-001	-188.255310	-50.942479
 845	8.4500e-001	-187.149048	-50.968027
 846	8.4600e-001	-185.867310	-50.809630
 847	8.4700e-001	-184.608459	-50.543933
 848	8.4800e-001	-183.380127	-50.549042
 849	8.4900e-001	-182.128906	-50.799411
 850	8.5000e-001	-180.999756	-50.717658
 851	8.5100e-001	-179.794312	-50.620576
 852	8.5200e-001	-178.192139	-50.641014
 853	8.5300e-001	-177.459717	-50.651234
 854	8.5400e-001	-176.200867	-50.671672
 855	8.5500e-001	-174.667358	-50.400864
 856	8.5600e-001	-173.904419	-50.497946
 857	8.5700e-001	-172.592163	-50.533713
 858	8.5800e-001	-171.447754	-50.319111
 859	8.5900e-001	-170.700073	-50.462179
 860	8.6000e-001	-168.800354	-50.349769
 861	8.6100e-001	-167.869568	-49.394278
 862	8.6200e-001	-166.763306	-50.314002
 863	8.6300e-001	-165.596008	-50.237358
 864	8.6400e-001	-164.657593	-50.222029
 865	8.6500e-001	-163.116455	-50.002317
 866	8.6600e-001	-161.705017	-49.889907
 867	8.6700e-001	-159.896851	-49.184785
 868	8.6800e-001	-159.416199	-50.002317
 869	8.6900e-001	-158.088684	-49.854140
 870	8.7000e-001	-156.990051	-49.726400
 871	8.7100e-001	-155.868530	-49.741729
 872	8.7200e-001	-154.464722	-49.690633
 873	8.7300e-001	-153.366089	-49.854140
 874	8.7400e-001	-152.290344	-49.619099
 875	8.7500e-001	-151.245117	-49.470921
 876	8.7600e-001	-149.765015	-48.985512
 877	8.7700e-001	-148.948669	-49.690633
 878	8.7800e-001	-147.377014	-49.537346
 879	8.7900e-001	-146.224976	-49.424935
 880	8.8000e-001	-145.004272	-49.266538
 881	8.8100e-001	-143.531799	-49.261429
 882	8.8200e-001	-143.371582	-49.087703
 883	8.8300e-001	-141.296387	-49.149018
 884	8.8400e-001	-140.075684	-49.113251
 885	8.8500e-001	-139.060974	-49.082594
 886	8.8600e-001	-137.718201	-48.699375
 887	8.8700e-001	-136.398315	-48.959964
 888	8.8800e-001	-135.444641	-48.878211
 889	8.8900e-001	-134.216309	-48.837334
 890	8.9000e-001	-132.835388	-48.980402
 891	8.9100e-001	-131.858826	-48.244623
 892	8.9200e-001	-130.554199	-48.617622
 893	8.9300e-001	-129.188538	-48.786238
 894	8.9400e-001	-128.234863	-48.556307
 895	8.9500e-001	-126.556396	-48.515431
 896	8.9600e-001	-125.602722	-48.443896
 897	8.9700e-001	-125.198364	-48.101555
 898	8.9800e-001	-123.252869	-48.346815
 899	8.9900e-001	-122.077942	-48.311047
 900	9.0000e-001	-121.009827	-48.203746
 901	9.0100e-001	-119.750977	-48.162870
 902	9.0200e-001	-118.507385	-48.116884
 903	9.0300e-001	-117.362976	-47.922720
 904	9.0400e-001	-116.142273	-47.922720
 905	9.0500e-001	-114.921570	-48.050459
 906	9.0600e-001	-113.784790	-47.452639
 907	9.0700e-001	-112.609863	-47.733665
 908	9.0800e-001	-111.312866	-47.897172
 909	9.0900e-001	-110.160828	-47.570159
 910	9.1000e-001	-108.810425	-47.651912
 911	9.1100e-001	-107.582092	-47.549721
 912	9.1200e-001	-106.971741	-47.498625
 913	9.1300e-001	-105.171204	-47.457748
 914	9.1400e-001	-104.080200	-47.309570
 915	9.1500e-001	-103.019714	-47.202269
 916	9.1600e-001	-101.875305	-47.089859
 917	9.1700e-001	-100.570679	-47.222708
 918	9.1800e-001	-99.365234	-46.997886
 919	9.1900e-001	-98.381042	-47.151174
 920	9.2000e-001	-96.900940	-47.621255
 921	9.2100e-001	-95.924377	-46.568682
 922	9.2200e-001	-94.650269	-46.767955
 923	9.2300e-001	-93.566895	-46.921243
 924	9.2400e-001	-92.117310	-46.635106
 925	9.2500e-001	-91.072083	-46.614668
 926	9.2600e-001	-89.759827	-46.527805
 927	9.2700e-001	-88.874817	-46.548244
 928	9.2800e-001	-87.890625	-46.348970
 929	9.2900e-001	-85.952759	-46.364299
 930	9.3000e-001	-85.098267	-46.236559
 931	9.3100e-001	-83.625793	-46.016848
 932	9.3200e-001	-82.420349	-46.088382
 933	9.3300e-001	-81.428528	-46.057724
 934	9.3400e-001	-80.001831	-45.858451
 935	9.3500e-001	-78.971863	-45.935094
 936	9.3600e-001	-77.720642	-45.720492
 937	9.3700e-001	-76.530457	-45.638739
 938	9.3800e-001	-75.225830	-45.710273
 939	9.3900e-001	-74.111938	-45.587643
 940	9.4000e-001	-72.860718	-45.398589
 941	9.4100e-001	-71.739197	-45.439465
 942	9.4200e-001	-70.564270	-45.347493
 943	9.4300e-001	-69.366455	-45.214644
 944	9.4400e-001	-68.321228	-45.127781
 945	9.4500e-001	-66.940308	-45.143110
 946	9.4600e-001	-65.681458	-44.836535
 947	9.4700e-001	-64.636230	-45.025590
 948	9.4800e-001	-63.346863	-44.851864
 949	9.4900e-001	-61.874390	-44.708796
 950	9.5000e-001	-60.974121	-44.713906
 951	9.5100e-001	-59.806824	-44.473755
 952	9.5200e-001	-58.494568	-44.356235
 953	9.5300e-001	-57.456970	-44.335797
 954	9.5400e-001	-56.198120	-44.034332
 955	9.5500e-001	-54.946899	-44.177400
 956	9.5600e-001	-53.581238	-43.840168
 957	9.5700e-001	-52.604675	-44.049661
 958	9.5800e-001	-51.185608	-43.048184
 959	9.5900e-001	-50.193787	-43.845277
 960	9.6000e-001	-49.026489	-43.717538
 961	9.6100e-001	-47.683716	-43.462059
 962	9.6200e-001	-46.768188	-43.620456
 963	9.6300e-001	-45.188904	-43.334320
 964	9.6400e-001	-44.174194	-43.446730
 965	9.6500e-001	-43.128967	-43.707319
 966	9.6600e-001	-41.824341	-43.007307
 967	9.6700e-001	-40.115356	-43.037964
 968	9.6800e-001	-39.566040	-42.971540
 969	9.6900e-001	-38.192749	-42.956211
 970	9.7000e-001	-36.911011	-42.654746
 971	9.7100e-001	-35.972595	-42.736499
 972	9.7200e-001	-34.568787	-42.644527
 973	9.7300e-001	-34.721375	-43.262786
 974	9.7400e-001	-32.257080	-42.143788
 975	9.7500e-001	-31.059265	-42.128460
 976	9.7600e-001	-29.563904	-41.995611
 977	9.7700e-001	-28.846741	-41.985392
 978	9.7800e-001	-27.374268	-41.949625
 979	9.7900e-001	-26.031494	-41.229174
 980	9.8000e-001	-25.062561	-41.770789
 981	9.8100e-001	-23.826599	-41.459105
 982	9.8200e-001	-22.560120	-41.423338
 983	9.8300e-001	-21.553040	-41.285380
 984	9.8400e-001	-20.286560	-41.167859
 985	9.8500e-001	-18.356323	-40.621135
 986	9.8600e-001	-17.936707	-40.937928
 987	9.8700e-001	-16.593933	-40.871504
 988	9.8800e-001	-15.403748	-40.478066
 989	9.8900e-001	-14.625549	-40.478066
 990	9.9000e-001	-12.893677	-40.406532
 991	9.9100e-001	-11.756897	-40.212368
 992	9.9200e-001	-10.841370	-40.197040
 993	9.9300e-001	-9.704590	-40.222588
 994	9.9400e-001	-8.186340	-39.134248
 995	9.9500e-001	-7.110596	-39.798493
 996	9.9600e-001	-5.805969	-39.456151
 997	9.9700e-001	-4.539490	-39.251768
 998	9.9800e-001	-3.608704	-39.205782
 999	9.9900e-001	-2.136230	-39.113809
1000	1.0000e+000	-1.037598	-39.241549
1001	1.0010e+000	-0.053406	-38.766358
1002	1.0020e+000	1.327515	-38.362702
1003	1.0030e+000	3.097534	-38.056127
1004	1.0040e+000	3.608704	-38.853221
1005	1.0050e+000	4.722595	-38.122552
1006	1.0060e+000	6.050110	-37.810867
1007	1.0070e+000	7.240295	-37.667799
1008	1.0080e+000	8.575439	-37.494074
1009	1.0090e+000	9.643555	-36.988226
1010	1.0100e+000	10.856628	-37.172170
1011	1.0110e+000	12.451172	-36.605007
1012	1.0120e+000	13.374329	-36.579459
1013	1.0130e+000	14.335632	-36.313761
1014	1.0140e+000	15.731812	-36.175803
1015	1.0150e+000	17.730713	-35.266298
1016	1.0160e+000	18.066406	-35.746598
1017	1.0170e+000	19.432068	-35.480900
1018	1.0180e+000	20.614624	-35.153888
1019	1.0190e+000	21.553040	-34.888190
1020	1.0200e+000	23.185730	-34.791108
1021	1.0210e+000	24.398804	-34.111534
1022	1.0220e+000	25.131226	-34.167739
1023	1.0230e+000	26.542664	-34.137082
1024	1.0240e+000	27.587891	-33.651672
1025	1.0250e+000	28.793335	-33.309330
1026	1.0260e+000	30.120850	-33.125386
1027	1.0270e+000	31.257629	-32.680852
1028	1.0280e+000	32.470703	-32.364059
1029	1.0290e+000	33.653259	-32.047265
1030	1.0300e+000	34.942627	-31.587403
1031	1.0310e+000	36.216736	-31.362582
1032	1.0320e+000	37.322998	-30.994692
1033	1.0330e+000	38.368225	-30.631912
1034	1.0340e+000	39.665222	-29.947229
1035	1.0350e+000	41.236877	-29.548682
1036	1.0360e+000	41.984558	-29.216559
1037	1.0370e+000	43.266296	-28.802684
1038	1.0380e+000	44.464111	-27.826755
1039	1.0390e+000	45.402527	-27.745001
1040	1.0400e+000	46.890259	-27.208496
1041	1.0410e+000	47.973633	-26.820168
1042	1.0420e+000	49.140930	-25.895335
1043	1.0430e+000	50.430298	-25.266857
1044	1.0440e+000	51.567078	-24.715022
1045	1.0450e+000	52.627563	-23.969024
1046	1.0460e+000	53.924561	-23.028862
1047	1.0470e+000	55.015564	-22.446370
1048	1.0480e+000	56.274414	-21.526647
1049	1.0490e+000	57.823181	-20.688676
1050	1.0500e+000	59.814453	-19.007625
1051	1.0510e+000	59.936523	-19.017844
1052	1.0520e+000	61.309814	-17.760889
1053	1.0530e+000	62.438965	-16.457946
1054	1.0540e+000	63.499451	-15.609757
1055	1.0550e+000	64.735413	-14.424335
1056	1.0560e+000	65.895081	-13.213365
1057	1.0570e+000	66.535950	-11.706040
1058	1.0580e+000	68.168640	-10.321345
1059	1.0590e+000	69.335938	-8.900883
1060	1.0600e+000	70.556641	-7.347571
1061	1.0610e+000	71.830750	-5.722726
1062	1.0620e+000	72.967529	-4.021237
1063	1.0630e+000	74.089050	-2.467926
1064	1.0640e+000	75.531006	-0.572273
1065	1.0650e+000	76.583862	1.420462
1066	1.0660e+000	77.766418	3.576704
1067	1.0670e+000	78.475952	5.354836
1068	1.0680e+000	80.070496	7.592831
1069	1.0690e+000	81.382751	9.227895
1070	1.0700e+000	82.664490	11.476109
1071	1.0710e+000	83.778381	13.576145
1072	1.0720e+000	84.945679	15.722167
1073	1.0730e+000	86.265564	17.929505
1074	1.0740e+000	87.432861	19.978445
1075	1.0750e+000	87.699890	21.879207
1076	1.0760e+000	90.042114	23.810627
1077	1.0770e+000	90.843201	26.258115
1078	1.0780e+000	92.140198	28.112891
1079	1.0790e+000	93.482971	29.753065
1080	1.0800e+000	94.551086	31.485211
1081	1.0810e+000	95.268250	32.900564
1082	1.0820e+000	97.305298	34.014452
1083	1.0830e+000	98.335266	35.833461
1084	1.0840e+000	99.540710	36.829829
1085	1.0850e+000	100.746155	37.749553
1086	1.0860e+000	101.989746	38.725482
1087	1.0870e+000	103.157043	39.353960
1088	1.0880e+000	104.400635	40.166382
1089	1.0890e+000	105.606079	40.641573
1090	1.0900e+000	106.788635	41.004353
1091	1.0910e+000	108.161926	41.479543
1092	1.0920e+000	108.863831	41.576625
1093	1.0930e+000	109.527588	41.924077
1094	1.0940e+000	111.831665	42.404377
1095	1.0950e+000	112.739563	42.741609
1096	1.0960e+000	115.592957	43.702209
1097	1.0970e+000	115.180969	43.165704
1098	1.0980e+000	116.561890	44.412440
1099	1.0990e+000	117.744446	43.227019
1100	1.1000e+000	118.911743	43.518265
1101	1.1010e+000	120.048523	43.855497
1102	1.1020e+000	121.315002	43.743086
1103	1.1030e+000	122.558594	43.870825
1104	1.1040e+000	123.840332	43.870825
1105	1.1050e+000	124.916077	44.075208
1106	1.1060e+000	126.182556	44.259153
1107	1.1070e+000	127.250671	44.366454
1108	1.1080e+000	128.479004	44.233605
1109	1.1090e+000	129.783630	44.734344
1110	1.1100e+000	131.027222	45.020480
1111	1.1110e+000	131.340027	44.524851
1112	1.1120e+000	133.529663	44.708796
1113	1.1130e+000	134.323120	45.132891
1114	1.1140e+000	135.643005	44.673029
1115	1.1150e+000	136.901855	45.465013
1116	1.1160e+000	138.099670	45.470123
1117	1.1170e+000	139.396667	45.449685
1118	1.1180e+000	140.716553	45.546767
1119	1.1190e+000	141.815186	45.643848
1120	1.1200e+000	142.921448	45.766478
1121	1.1210e+000	143.936157	45.909546
1122	1.1220e+000	145.378113	45.935094
1123	1.1230e+000	146.324158	45.505890
1124	1.1240e+000	147.766113	46.277436
1125	1.1250e+000	148.986816	46.267217
1126	1.1260e+000	150.070190	46.134368
1127	1.1270e+000	151.496887	46.359189
1128	1.1280e+000	152.664185	46.532915
1129	1.1290e+000	153.083801	46.527805
1130	1.1300e+000	154.884338	46.875256
1131	1.1310e+000	156.158447	46.624887
1132	1.1320e+000	156.852722	46.548244
1133	1.1330e+000	158.515930	46.967229
1134	1.1340e+000	159.889221	46.987667
1135	1.1350e+000	161.010742	47.222708
1136	1.1360e+000	161.949158	47.105187
1137	1.1370e+000	163.429260	47.289132
1138	1.1380e+000	163.970947	47.534392
1139	1.1390e+000	165.733337	47.299351
1140	1.1400e+000	167.098999	47.667241
1141	1.1410e+000	167.594910	47.227817
1142	1.1420e+000	169.189453	47.687679
1143	1.1430e+000	170.661926	47.478186
1144	1.1440e+000	171.829224	47.861405
1145	1.1450e+000	172.813416	47.789871
1146	1.1460e+000	174.095154	48.270171
1147	1.1470e+000	174.720764	47.943158
1148	1.1480e+000	176.345825	48.086226
1149	1.1490e+000	177.688599	48.229294
1150	1.1500e+000	178.985596	48.234404
1151	1.1510e+000	179.870605	48.316157
1152	1.1520e+000	181.236267	48.443896
1153	1.1530e+000	182.571411	48.224185
1154	1.1540e+000	183.799744	48.377472
1155	1.1550e+000	184.799194	48.607403
1156	1.1560e+000	186.210632	48.638060
1157	1.1570e+000	187.080383	49.087703
1158	1.1580e+000	189.033508	49.210333
1159	1.1590e+000	189.720154	49.200114
1160	1.1600e+000	190.994263	48.959964
1161	1.1610e+000	191.947937	49.051936
1162	1.1620e+000	193.305969	48.862882
1163	1.1630e+000	194.480896	49.159237
1164	1.1640e+000	195.770264	49.189895
1165	1.1650e+000	196.098328	49.051936
1166	1.1660e+000	198.051453	49.440264
1167	1.1670e+000	199.234009	49.506688
1168	1.1680e+000	200.431824	49.424935
1169	1.1690e+000	201.072693	49.665085
1170	1.1700e+000	202.857971	49.598661
1171	1.1710e+000	204.162598	49.721291
1172	1.1720e+000	205.177307	49.869468
1173	1.1730e+000	205.192566	49.762167
1174	1.1740e+000	207.916260	49.808153
1175	1.1750e+000	208.717346	50.007427
1176	1.1760e+000	209.960938	50.017646
1177	1.1770e+000	211.364746	50.262906
1178	1.1780e+000	212.516785	50.436631
1179	1.1790e+000	213.981628	50.262906
1180	1.1800e+000	214.904785	50.359988
1181	1.1810e+000	215.957642	50.339549
1182	1.1820e+000	217.460632	50.395755
1183	1.1830e+000	218.078613	50.017646
1184	1.1840e+000	219.551086	50.457070
1185	1.1850e+000	220.787048	50.646124
1186	1.1860e+000	222.091675	50.656343
1187	1.1870e+000	223.297119	50.738096
1188	1.1880e+000	224.739075	50.870945
1189	1.1890e+000	225.273132	50.630795
1190	1.1900e+000	226.936340	50.881165
1191	1.1910e+000	228.141785	50.906712
1192	1.1920e+000	229.347229	50.901603
1193	1.1930e+000	230.392456	50.641014
1194	1.1940e+000	231.788635	51.157082
1195	1.1950e+000	232.879639	51.346136
1196	1.1960e+000	233.985901	51.341026
1197	1.1970e+000	234.794617	51.085548
1198	1.1980e+000	236.564636	51.264383
1199	1.1990e+000	237.800598	51.335917
1200	1.2000e+000	238.998413	51.770231
1201	1.2010e+000	240.882874	51.412561
1202	1.2020e+000	241.279602	51.642491
1203	1.2030e+000	242.469788	51.708916
1204	1.2040e+000	243.736267	51.381903
1205	1.2050e+000	244.888306	51.811108
1206	1.2060e+000	245.941162	51.366574
1207	1.2070e+000	247.261047	51.851984
1208	1.2080e+000	248.497009	51.969504
1209	1.2090e+000	249.671936	51.550519
1210	1.2100e+000	250.862122	52.025710
1211	1.2110e+000	252.090454	52.153449
1212	1.2120e+000	253.250122	52.255641
1213	1.2130e+000	254.371643	52.373161
1214	1.2140e+000	255.722046	52.224983
1215	1.2150e+000	256.523132	52.061477
1216	1.2160e+000	257.873535	52.383380
1217	1.2170e+000	259.307861	52.408928
1218	1.2180e+000	260.627747	52.449805
1219	1.2190e+000	261.894226	53.103830
1220	1.2200e+000	263.046265	52.930105
1221	1.2210e+000	264.106750	52.797256
1222	1.2220e+000	265.228271	52.771708
1223	1.2230e+000	266.586304	52.761489
1224	1.2240e+000	267.692566	52.674626
1225	1.2250e+000	268.585205	52.873899
1226	1.2260e+000	270.164490	52.868790
1227	1.2270e+000	271.347046	53.093611
1228	1.2280e+000	272.705078	53.114050
1229	1.2290e+000	273.727417	53.073173
1230	1.2300e+000	274.955750	53.098721
1231	1.2310e+000	276.046753	53.420624
1232	1.2320e+000	277.389526	53.282666
1233	1.2330e+000	278.434753	53.252008
1234	1.2340e+000	279.243469	53.068063
1235	1.2350e+000	281.349182	53.231570
1236	1.2360e+000	281.890869	53.481939
1237	1.2370e+000	283.065796	53.798733
1238	1.2380e+000	284.538269	53.604569
1239	1.2390e+000	285.636902	53.614788
1240	1.2400e+000	286.834717	53.686322
1241	1.2410e+000	287.948608	54.325019
1242	1.2420e+000	289.268494	53.757856
1243	1.2430e+000	290.367126	53.716980
1244	1.2440e+000	291.572571	53.824281
1245	1.2450e+000	292.587280	53.614788
1246	1.2460e+000	294.059753	54.079760
1247	1.2470e+000	295.402527	54.043993
1248	1.2480e+000	296.485901	54.089979
1249	1.2490e+000	297.767639	54.054212
1250	1.2500e+000	298.728943	54.595827
1251	1.2510e+000	299.987793	54.238156
1252	1.2520e+000	299.140930	53.635226
1253	1.2530e+000	298.004150	54.197280
1254	1.2540e+000	296.791077	54.248376
1255	1.2550e+000	294.586182	53.885596
1256	1.2560e+000	294.464111	54.284143
1257	1.2570e+000	293.182373	54.156403
1258	1.2580e+000	292.198181	54.411882
1259	1.2590e+000	290.855408	54.161513
1260	1.2600e+000	289.680481	54.273923
1261	1.2610e+000	288.436890	54.156403
1262	1.2620e+000	287.406921	54.033773
1263	1.2630e+000	285.926819	54.074650
1264	1.2640e+000	284.767151	54.176842
1265	1.2650e+000	283.843994	54.192170
1266	1.2660e+000	282.279968	54.100198
1267	1.2670e+000	281.158447	54.146184
1268	1.2680e+000	280.158997	53.798733
1269	1.2690e+000	278.709412	54.125746
1270	1.2700e+000	277.618408	54.049102
1271	1.2710e+000	276.405334	53.793623
1272	1.2720e+000	275.108337	53.941801
1273	1.2730e+000	273.818970	53.998006
1274	1.2740e+000	272.735596	54.120636
1275	1.2750e+000	271.492004	54.049102
1276	1.2760e+000	270.477295	53.941801
1277	1.2770e+000	269.317627	53.957130
1278	1.2780e+000	267.997742	53.941801
1279	1.2790e+000	268.119812	54.876854
1280	1.2800e+000	265.510559	53.665884
1281	1.2810e+000	264.198303	53.696541
1282	1.2820e+000	263.237000	53.849829
1283	1.2830e+000	261.985779	53.844719
1284	1.2840e+000	260.871887	54.304581
1285	1.2850e+000	259.635925	53.885596
1286	1.2860e+000	258.377075	53.768075
1287	1.2870e+000	257.202148	53.778295
1288	1.2880e+000	255.973816	54.539621
1289	1.2890e+000	254.737854	53.635226
1290	1.2900e+000	254.058838	54.003116
1291	1.2910e+000	253.166199	54.105307
1292	1.2920e+000	251.083374	53.706760
1293	1.2930e+000	249.870300	53.808952
1294	1.2940e+000	248.626709	53.742528
1295	1.2950e+000	247.703552	53.681213
1296	1.2960e+000	246.421814	53.553473
1297	1.2970e+000	245.132446	53.527925
1298	1.2980e+000	243.919373	53.563692
1299	1.2990e+000	242.958069	53.839609
1300	1.3000e+000	241.752625	53.395076
1301	1.3010e+000	240.280151	53.645446
1302	1.3020e+000	239.280701	53.538144
1303	1.3030e+000	238.044739	53.497268
1304	1.3040e+000	237.068176	53.946911
1305	1.3050e+000	235.618591	53.343981
1306	1.3060e+000	234.397888	53.395076
1307	1.3070e+000	233.139038	53.476830
1308	1.3080e+000	231.712341	53.231570
1309	1.3090e+000	230.682373	53.476830
1310	1.3100e+000	229.301453	53.338871
1311	1.3110e+000	228.538513	53.323542
1312	1.3120e+000	227.317810	53.379748
1313	1.3130e+000	225.845337	53.297994
1314	1.3140e+000	224.777222	53.139597
1315	1.3150e+000	223.625183	53.318433
1316	1.3160e+000	222.320557	53.160036
1317	1.3170e+000	221.153259	53.083392
1318	1.3180e+000	219.985962	53.287775
1319	1.3190e+000	218.803406	53.267337
1320	1.3200e+000	217.582703	52.465133
1321	1.3210e+000	216.278076	53.108940
1322	1.3220e+000	215.187073	53.037406
1323	1.3230e+000	213.951111	53.027187
1324	1.3240e+000	213.027954	52.705283
1325	1.3250e+000	211.494446	52.919886
1326	1.3260e+000	210.472107	52.884119
1327	1.3270e+000	208.992004	52.833023
1328	1.3280e+000	207.855225	52.838132
1329	1.3290e+000	206.733704	52.945434
1330	1.3300e+000	205.680847	52.858571
1331	1.3310e+000	204.154968	52.066586
1332	1.3320e+000	203.201294	52.873899
1333	1.3330e+000	202.400208	52.705283
1334	1.3340e+000	200.630188	52.873899
1335	1.3350e+000	199.577332	52.608201
1336	1.3360e+000	198.356628	52.654188
1337	1.3370e+000	197.227478	52.521339
1338	1.3380e+000	197.135925	53.584131
1339	1.3390e+000	194.831848	52.281189
1340	1.3400e+000	193.611145	52.424257
1341	1.3410e+000	192.413330	52.500900
1342	1.3420e+000	191.215515	52.362942
1343	1.3430e+000	189.926147	52.531558
1344	1.3440e+000	188.774109	52.495791
1345	1.3450e+000	187.599182	52.046148
1346	1.3460e+000	186.309814	52.373161
1347	1.3470e+000	185.096741	52.633749
1348	1.3480e+000	183.876038	52.398709
1349	1.3490e+000	182.754517	52.224983
1350	1.3500e+000	181.602478	52.322065
1351	1.3510e+000	180.404663	52.097244
1352	1.3520e+000	179.130554	52.214764
1353	1.3530e+000	177.474976	52.265860
1354	1.3540e+000	176.933289	52.010381
1355	1.3550e+000	175.697327	52.102353
1356	1.3560e+000	174.491882	51.892861
1357	1.3570e+000	173.217773	52.020600
1358	1.3580e+000	172.042847	52.005271
1359	1.3590e+000	170.951843	51.831546
1360	1.3600e+000	169.670105	51.897970
1361	1.3610e+000	168.418884	51.785560
1362	1.3620e+000	167.198181	51.897970
1363	1.3630e+000	165.565491	51.647601
1364	1.3640e+000	165.069580	51.407451
1365	1.3650e+000	163.688660	51.719135
1366	1.3660e+000	162.460327	51.642491
1367	1.3670e+000	161.201477	51.044671
1368	1.3680e+000	159.713745	51.785560
1369	1.3690e+000	158.729553	51.622053
1370	1.3700e+000	157.714844	51.514752
1371	1.3710e+000	156.501770	51.397232
1372	1.3720e+000	155.044556	51.407451
1373	1.3730e+000	154.479980	51.601615
1374	1.3740e+000	152.832031	51.448328
1375	1.3750e+000	151.596069	51.376794
1376	1.3760e+000	150.558472	51.208177
1377	1.3770e+000	149.307251	51.295040
1378	1.3780e+000	147.918701	51.412561
1379	1.3790e+000	146.858215	50.916932
1380	1.3800e+000	145.561218	51.070219
1381	1.3810e+000	144.439697	51.162191
1382	1.3820e+000	143.730164	51.581177
1383	1.3830e+000	141.960144	51.136643
1384	1.3840e+000	140.747070	50.911822
1385	1.3850e+000	139.671326	50.942479
1386	1.3860e+000	138.397217	50.865836
1387	1.3870e+000	137.168884	50.778973
1388	1.3880e+000	136.085510	50.896493
1389	1.3890e+000	134.735107	50.824959
1390	1.3900e+000	133.567810	50.656343
1391	1.3910e+000	132.492065	50.651234
1392	1.3920e+000	131.256104	50.610357
1393	1.3930e+000	129.920959	50.472398
1394	1.3940e+000	128.890991	50.748316
1395	1.3950e+000	127.540588	50.319111
1396	1.3960e+000	126.289368	50.559261
1397	1.3970e+000	124.649048	49.823482
1398	1.3980e+000	124.145508	50.385536
1399	1.3990e+000	122.802734	50.176043
1400	1.4000e+000	121.734619	50.380426
1401	1.4010e+000	120.330811	50.155605
1402	1.4020e+000	119.270325	50.084071
1403	1.4030e+000	118.118286	50.063632
1404	1.4040e+000	116.806030	50.078961
1405	1.4050e+000	115.608215	50.130057
1406	1.4060e+000	114.501953	49.833701
1407	1.4070e+000	113.090515	49.808153
1408	1.4080e+000	112.075806	49.777496
1409	1.4090e+000	110.969543	49.803044
1410	1.4100e+000	109.649658	49.736619
1411	1.4110e+000	108.215332	49.741729
1412	1.4120e+000	107.299805	49.312525
1413	1.4130e+000	106.010437	49.670195
1414	1.4140e+000	104.644775	49.154128
1415	1.4150e+000	103.698730	49.670195
1416	1.4160e+000	102.500916	49.603770
1417	1.4170e+000	101.242065	49.481141
1418	1.4180e+000	99.983215	49.491360
1419	1.4190e+000	98.915100	49.496469
1420	1.4200e+000	97.557068	49.358511
1421	1.4210e+000	96.458435	49.072374
1422	1.4220e+000	95.161438	49.159237
1423	1.4230e+000	94.032288	49.159237
1424	1.4240e+000	93.101501	48.827115
1425	1.4250e+000	91.682434	48.847553
1426	1.4260e+000	90.408325	49.067265
1427	1.4270e+000	89.309692	48.576745
1428	1.4280e+000	87.944031	48.852663
1429	1.4290e+000	86.692810	48.668718
1430	1.4300e+000	85.739136	48.684047
1431	1.4310e+000	84.465027	48.643170
1432	1.4320e+000	83.328247	48.658499
1433	1.4330e+000	82.038879	48.423458
1434	1.4340e+000	80.780029	48.494992
1435	1.4350e+000	79.605103	48.341705
1436	1.4360e+000	78.445435	48.290609
1437	1.4370e+000	77.415466	48.040240
1438	1.4380e+000	76.263428	48.167979
1439	1.4390e+000	74.844360	48.234404
1440	1.4400e+000	73.654175	48.147541
1441	1.4410e+000	71.334839	47.846076
1442	1.4420e+000	71.388245	47.830747
1443	1.4430e+000	70.014954	47.866514
1444	1.4440e+000	68.778992	47.861405
1445	1.4450e+000	67.649841	47.759213
1446	1.4460e+000	66.429138	47.754104
1447	1.4470e+000	65.452576	47.677460
1448	1.4480e+000	64.155579	47.544611
1449	1.4490e+000	62.690735	47.294242
1450	1.4500e+000	61.668396	47.386214
1451	1.4510e+000	60.356140	47.319790
1452	1.4520e+000	59.394836	46.900804
1453	1.4530e+000	58.029175	47.248256
1454	1.4540e+000	56.724548	47.258475
1455	1.4550e+000	55.717468	46.982558
1456	1.4560e+000	53.749084	46.584011
1457	1.4570e+000	53.253174	46.967229
1458	1.4580e+000	51.948547	46.798613
1459	1.4590e+000	50.811768	46.665764
1460	1.4600e+000	49.766541	46.507367
1461	1.4610e+000	48.271179	46.609558
1462	1.4620e+000	47.302246	46.686202
1463	1.4630e+000	46.081543	46.354080
1464	1.4640e+000	44.692993	46.205902
1465	1.4650e+000	43.678284	46.394956
1466	1.4660e+000	42.251587	46.241669
1467	1.4670e+000	41.221619	46.021957
1468	1.4680e+000	39.970398	46.093491
1469	1.4690e+000	38.734436	45.853341
1470	1.4700e+000	37.681580	45.919766
1471	1.4710e+000	36.743164	45.572314
1472	1.4720e+000	35.186768	45.674506
1473	1.4730e+000	33.996582	45.531438
1474	1.4740e+000	32.997131	45.470123
1475	1.4750e+000	31.845093	45.567205
1476	1.4760e+000	30.288696	45.183987
1477	1.4770e+000	29.228210	45.183987
1478	1.4780e+000	28.129578	44.913179
1479	1.4790e+000	26.786804	44.841645
1480	1.4800e+000	25.581360	44.882522
1481	1.4810e+000	24.330139	44.698577
1482	1.4820e+000	23.056030	44.570837
1483	1.4830e+000	21.995544	44.463536
1484	1.4840e+000	21.026611	44.739453
1485	1.4850e+000	19.569397	44.182510
1486	1.4860e+000	18.333435	43.743086
1487	1.4870e+000	17.005920	44.008784
1488	1.4880e+000	16.006470	43.727757
1489	1.4890e+000	14.816284	43.697100
1490	1.4900e+000	13.481140	43.681771
1491	1.4910e+000	12.275696	43.293443
1492	1.4920e+000	11.131287	43.441621
1493	1.4930e+000	9.979248	43.150375
1494	1.4940e+000	8.811951	42.787595
1495	1.4950e+000	7.675171	42.869348
1496	1.4960e+000	6.233215	42.307295
1497	1.4970e+000	5.065918	42.414596
1498	1.4980e+000	3.959656	42.225542
1499	1.4990e+000	2.700806	42.102912
1500	1.5000e+000	2.639771	42.593431
1501	1.5010e+000	0.518799	41.499982
1502	1.5020e+000	-0.823975	41.254722
1503	1.5030e+000	-2.059937	40.799970
1504	1.5040e+000	-3.021240	40.764203
1505	1.5050e+000	-4.371643	40.907271
1506	1.5060e+000	-5.447388	39.916013
1507	1.5070e+000	-6.767273	39.783164
1508	1.5080e+000	-7.919312	39.210891
1509	1.5090e+000	-9.094238	38.674386
1510	1.5100e+000	-10.330200	38.352483
1511	1.5110e+000	-11.848450	37.524731
1512	1.5120e+000	-12.268066	37.335677
1513	1.5130e+000	-13.885498	36.461939
1514	1.5140e+000	-15.205383	35.695503
1515	1.5150e+000	-16.792297	34.990381
1516	1.5160e+000	-17.234802	34.111534
1517	1.5170e+000	-18.699646	33.135605
1518	1.5180e+000	-19.783020	32.277196
1519	1.5190e+000	-20.950317	31.142870
1520	1.5200e+000	-22.193909	29.293203
1521	1.5210e+000	-23.399353	29.042834
1522	1.5220e+000	-24.566650	27.586604
1523	1.5230e+000	-25.718689	26.155923
1524	1.5240e+000	-26.794434	24.592393
1525	1.5250e+000	-28.099060	23.044191
1526	1.5260e+000	-29.457092	21.439784
1527	1.5270e+000	-30.319214	19.641213
1528	1.5280e+000	-31.524658	17.878409
1529	1.5290e+000	-32.867432	15.839688
1530	1.5300e+000	-33.714294	13.918487
1531	1.5310e+000	-35.163879	12.007505
1532	1.5320e+000	-36.437988	9.841045
1533	1.5330e+000	-37.628174	7.797214
1534	1.5340e+000	-38.734436	5.722726
1535	1.5350e+000	-39.878845	4.527085
1536	1.5360e+000	-41.244507	1.302942
1537	1.5370e+000	-42.510986	-0.659135
1538	1.5380e+000	-43.556213	-2.575227
1539	1.5390e+000	-44.761658	-4.736578
1540	1.5400e+000	-46.493530	-6.657778
1541	1.5410e+000	-47.187805	-8.425692
1542	1.5420e+000	-48.492432	-10.249811
1543	1.5430e+000	-49.667358	-11.843999
1544	1.5440e+000	-50.857544	-13.586364
1545	1.5450e+000	-52.139282	-14.955731
1546	1.5460e+000	-53.680420	-16.974014
1547	1.5470e+000	-54.382324	-17.607601
1548	1.5480e+000	-55.702209	-18.772585
1549	1.5490e+000	-57.174683	-19.871144
1550	1.5500e+000	-58.105469	-21.051456
1551	1.5510e+000	-59.425354	-22.088700
1552	1.5520e+000	-60.836792	-23.028862
1553	1.5530e+000	-61.782837	-23.790189
1554	1.5540e+000	-62.881470	-24.720132
1555	1.5550e+000	-64.277649	-25.501897
1556	1.5560e+000	-65.307617	-26.186580
1557	1.5570e+000	-66.688538	-26.620894
1558	1.5580e+000	-67.932129	-27.474194
1559	1.5590e+000	-69.038391	-28.266178
1560	1.5600e+000	-70.388794	-28.823122
1561	1.5610e+000	-71.472168	-29.231888
1562	1.5620e+000	-72.731018	-29.952338
1563	1.5630e+000	-73.966980	-30.437748
1564	1.5640e+000	-75.187683	-30.958925
1565	1.5650e+000	-76.293945	-31.439225
1566	1.5660e+000	-77.713013	-31.878649
1567	1.5670e+000	-78.750610	-32.502017
1568	1.5680e+000	-79.788208	-32.558223
1569	1.5690e+000	-81.192017	-33.181591
1570	1.5700e+000	-82.168579	-33.539261
1571	1.5710e+000	-83.412170	-33.963356
1572	1.5720e+000	-84.724426	-34.336355
1573	1.5730e+000	-86.395264	-34.576505
1574	1.5740e+000	-87.051392	-35.113011
1575	1.5750e+000	-88.455200	-35.363380
1576	1.5760e+000	-89.500427	-35.286737
1577	1.5770e+000	-90.621948	-36.129817
1578	1.5780e+000	-91.987610	-36.543692
1579	1.5790e+000	-92.994690	-36.518145
1580	1.5800e+000	-94.284058	-36.855377
1581	1.5810e+000	-95.542908	-37.637142
1582	1.5820e+000	-96.733093	-37.560498
1583	1.5830e+000	-97.930908	-37.483855
1584	1.5840e+000	-99.189758	-37.943716
1585	1.5850e+000	-100.395203	-38.178757
1586	1.5860e+000	-101.753235	-38.301387
1587	1.5870e+000	-102.645874	-38.572194
1588	1.5880e+000	-103.942871	-38.837892
1589	1.5890e+000	-105.003357	-38.766358
1590	1.5900e+000	-106.239319	-39.149577
1591	1.5910e+000	-107.551575	-39.328412
1592	1.5920e+000	-108.718872	-39.543014
1593	1.5930e+000	-111.045837	-40.616025
1594	1.5940e+000	-111.404419	-39.875136
1595	1.5950e+000	-112.220764	-39.916013
1596	1.5960e+000	-113.624573	-40.171492
1597	1.5970e+000	-114.784241	-40.406532
1598	1.5980e+000	-115.905762	-40.329889
1599	1.5990e+000	-117.279053	-40.575148
1600	1.6000e+000	-118.316650	-40.759093
1601	1.6010e+000	-119.583130	-40.912380
1602	1.6020e+000	-120.704651	-41.035010
1603	1.6030e+000	-121.994019	-40.999243
1604	1.6040e+000	-123.092651	-41.249613
1605	1.6050e+000	-124.130249	-41.663488
1606	1.6060e+000	-125.610352	-41.515311
1607	1.6070e+000	-126.731873	-41.459105
1608	1.6080e+000	-127.967834	-41.852543
1609	1.6090e+000	-128.799438	-41.673707
1610	1.6100e+000	-130.249023	-42.102912
1611	1.6110e+000	-131.462097	-41.709474
1612	1.6120e+000	-132.614136	-42.373719
1613	1.6130e+000	-133.964539	-42.394158
1614	1.6140e+000	-134.727478	-42.506568
1615	1.6150e+000	-136.398315	-42.685404
1616	1.6160e+000	-137.535095	-42.654746
1617	1.6170e+000	-138.671875	-42.930663
1618	1.6180e+000	-139.839172	-42.935773
1619	1.6190e+000	-141.151428	-43.027745
1620	1.6200e+000	-142.265320	-43.201471
1621	1.6210e+000	-143.554688	-43.119718
1622	1.6220e+000	-144.729614	-43.467169
1623	1.6230e+000	-145.889282	-43.518265
1624	1.6240e+000	-147.216797	-43.600018
1625	1.6250e+000	-148.513794	-43.840168
1626	1.6260e+000	-149.429321	-43.707319
1627	1.6270e+000	-150.611877	-44.039441
1628	1.6280e+000	-152.038574	-44.003674
1629	1.6290e+000	-153.076172	-44.167181
1630	1.6300e+000	-154.243469	-44.197838
1631	1.6310e+000	-155.563354	-44.427769
1632	1.6320e+000	-156.723022	-44.463536
1633	1.6330e+000	-158.210754	-44.657700
1634	1.6340e+000	-159.042358	-44.560618
1635	1.6350e+000	-160.263062	-44.739453
1636	1.6360e+000	-161.392212	-44.892741
1637	1.6370e+000	-162.818909	-44.892741
1638	1.6380e+000	-163.917542	-44.984713
1639	1.6390e+000	-165.039063	-45.092014
1640	1.6400e+000	-166.381836	-45.035809
1641	1.6410e+000	-166.809082	-44.218277
1642	1.6420e+000	-168.395996	-45.347493
1643	1.6430e+000	-169.998169	-45.505890
1644	1.6440e+000	-171.104431	-45.536547
1645	1.6450e+000	-172.332764	-45.674506
1646	1.6460e+000	-173.439026	-45.730711
1647	1.6470e+000	-174.713135	-45.899327
1648	1.6480e+000	-175.941467	-45.981081
1649	1.6490e+000	-177.230835	-45.986190
1650	1.6500e+000	-178.398132	-46.108820
1651	1.6510e+000	-179.420471	-46.134368
1652	1.6520e+000	-180.519104	-45.991300
1653	1.6530e+000	-181.968689	-46.364299
1654	1.6540e+000	-183.059692	-46.558463
1655	1.6550e+000	-184.410095	-46.573791
1656	1.6560e+000	-185.325623	-45.342383
1657	1.6570e+000	-186.569214	-46.721969
1658	1.6580e+000	-188.056946	-46.788394
1659	1.6590e+000	-189.186096	-46.824161
1660	1.6600e+000	-190.330505	-47.002996
1661	1.6610e+000	-191.467285	-46.957010
1662	1.6620e+000	-192.703247	-47.273803
1663	1.6630e+000	-193.916321	-47.365776
1664	1.6640e+000	-195.053101	-47.386214
1665	1.6650e+000	-196.365356	-47.406652
1666	1.6660e+000	-197.441101	-47.519063
1667	1.6670e+000	-198.760986	-48.351924
1668	1.6680e+000	-200.408936	-47.968706
1669	1.6690e+000	-201.110840	-47.636583
1670	1.6700e+000	-202.499390	-48.086226
1671	1.6710e+000	-203.773499	-47.748994
1672	1.6720e+000	-204.711914	-48.116884
1673	1.6730e+000	-206.115723	-48.403020
1674	1.6740e+000	-207.000732	-48.254842
1675	1.6750e+000	-208.358765	-48.208856
1676	1.6760e+000	-209.548950	-48.362143
1677	1.6770e+000	-210.556030	-48.474554
1678	1.6780e+000	-211.860657	-48.433677
1679	1.6790e+000	-212.516785	-48.489883
1680	1.6800e+000	-214.324951	-48.632951
1681	1.6810e+000	-215.576172	-48.530759
1682	1.6820e+000	-216.712952	-48.939525
1683	1.6830e+000	-217.880249	-48.837334
1684	1.6840e+000	-218.627930	-48.627841
1685	1.6850e+000	-220.382690	-49.118361
1686	1.6860e+000	-221.717834	-49.118361
1687	1.6870e+000	-222.633362	-49.118361
1688	1.6880e+000	-222.694397	-49.435154
1689	1.6890e+000	-225.334167	-49.363620
1690	1.6900e+000	-226.364136	-49.537346
1691	1.6910e+000	-227.539063	-49.568003
1692	1.6920e+000	-228.584290	-49.593551
1693	1.6930e+000	-229.858398	-49.685524
1694	1.6940e+000	-231.063843	-49.838811
1695	1.6950e+000	-232.177734	-49.828592
1696	1.6960e+000	-233.627319	-50.068742
1697	1.6970e+000	-234.619141	-49.946112
1698	1.6980e+000	-235.717773	-49.889907
1699	1.6990e+000	-237.075806	-50.472398
1700	1.7000e+000	-238.327026	-50.119838
1701	1.7010e+000	-239.952087	-50.191372
1702	1.7020e+000	-240.722656	-50.314002
1703	1.7030e+000	-241.905212	-50.380426
1704	1.7040e+000	-243.003845	-50.227139
1705	1.7050e+000	-244.338989	-50.804521
1706	1.7060e+000	-245.452881	-50.687001
1707	1.7070e+000	-246.887207	-50.835178
1708	1.7080e+000	-247.795105	-50.830069
1709	1.7090e+000	-249.107361	-51.105986
1710	1.7100e+000	-250.274658	-51.162191
1711	1.7110e+000	-251.586914	-51.044671
1712	1.7120e+000	-252.799988	-51.167301
1713	1.7130e+000	-253.898621	-50.998685
1714	1.7140e+000	-255.218506	-51.484095
1715	1.7150e+000	-256.278992	-51.371684
1716	1.7160e+000	-257.492065	-51.427889
1717	1.7170e+000	-258.590698	-51.141753
1718	1.7180e+000	-259.880066	-51.785560
1719	1.7190e+000	-261.085510	-51.683368
1720	1.7200e+000	-262.573242	-52.051258
1721	1.7210e+000	-263.542175	-51.872422
1722	1.7220e+000	-264.755249	-52.025710
1723	1.7230e+000	-265.914917	-51.984833
1724	1.7240e+000	-267.044067	-52.209655
1725	1.7250e+000	-268.341064	-52.194326
1726	1.7260e+000	-269.836426	-52.296517
1727	1.7270e+000	-270.545959	-52.337394
1728	1.7280e+000	-271.949768	-52.465133
1729	1.7290e+000	-273.246765	-52.449805
1730	1.7300e+000	-274.467468	-52.516229
1731	1.7310e+000	-275.482178	-52.725722
1732	1.7320e+000	-276.870728	-52.567325
1733	1.7330e+000	-277.915955	-53.343981
1734	1.7340e+000	-279.273987	-52.746160
1735	1.7350e+000	-280.570984	-53.252008
1736	1.7360e+000	-281.883240	-53.645446
1737	1.7370e+000	-282.806396	-53.068063
1738	1.7380e+000	-283.988953	-53.103830
1739	1.7390e+000	-285.118103	-53.190693
1740	1.7400e+000	-286.308289	-53.221351
1741	1.7410e+000	-287.673950	-53.369528
1742	1.7420e+000	-288.955688	-53.456391
1743	1.7430e+000	-289.947510	-53.584131
1744	1.7440e+000	-291.511536	-53.481939
1745	1.7450e+000	-292.358398	-53.686322
1746	1.7460e+000	-293.441772	-53.768075
1747	1.7470e+000	-293.563843	-53.369528
1748	1.7480e+000	-295.806885	-53.778295
1749	1.7490e+000	-297.119141	-54.003116
1750	1.7500e+000	-298.294067	-54.079760
1751	1.7510e+000	-299.530029	-53.987787
1752	1.7520e+000	-298.759460	-53.752747
1753	1.7530e+000	-297.592163	-54.013335
1754	1.7540e+000	-296.226501	-54.253485
1755	1.7550e+000	-295.005798	-54.217718
1756	1.7560e+000	-293.807983	-54.381225
1757	1.7570e+000	-292.602539	-54.130855
1758	1.7580e+000	-291.419983	-54.151294
1759	1.7590e+000	-290.267944	-54.089979
1760	1.7600e+000	-288.764954	-54.084869
1761	1.7610e+000	-287.925720	-54.146184
1762	1.7620e+000	-286.529541	-54.135965
1763	1.7630e+000	-285.400391	-53.957130
1764	1.7640e+000	-284.271240	-54.876854
1765	1.7650e+000	-283.103943	-54.151294
1766	1.7660e+000	-281.738281	-54.079760
1767	1.7670e+000	-280.807495	-54.197280
1768	1.7680e+000	-279.396057	-53.957130
1769	1.7690e+000	-278.198242	-53.987787
1770	1.7700e+000	-277.023315	-54.054212
1771	1.7710e+000	-275.878906	-54.192170
1772	1.7720e+000	-274.879456	-54.064431
1773	1.7730e+000	-273.498535	-53.977568
1774	1.7740e+000	-272.308350	-53.890705
1775	1.7750e+000	-270.889282	-53.614788
1776	1.7760e+000	-269.805908	-53.916253
1777	1.7770e+000	-268.737793	-53.849829
1778	1.7780e+000	-267.288208	-53.696541
1779	1.7790e+000	-266.372681	-54.279033
1780	1.7800e+000	-264.991760	-53.711870
1781	1.7810e+000	-263.870239	-53.982678
1782	1.7820e+000	-262.626648	-53.814062
1783	1.7830e+000	-263.214111	-54.698018
1784	1.7840e+000	-260.177612	-53.681213
1785	1.7850e+000	-258.949280	-53.890705
1786	1.7860e+000	-257.812500	-53.803842
1787	1.7870e+000	-256.546021	-53.844719
1788	1.7880e+000	-255.348206	-53.558583
1789	1.7890e+000	-254.379272	-53.681213
1790	1.7900e+000	-253.013611	-53.696541
1791	1.7910e+000	-251.731873	-53.686322
1792	1.7920e+000	-250.602722	-53.517706
1793	1.7930e+000	-249.610901	-53.681213
1794	1.7940e+000	-248.298645	-53.635226
1795	1.7950e+000	-247.085571	-53.221351
1796	1.7960e+000	-246.398926	-53.686322
1797	1.7970e+000	-244.834900	-53.359309
1798	1.7980e+000	-243.408203	-53.579021
1799	1.7990e+000	-243.133545	-54.003116
1800	1.8000e+000	-240.730286	-53.389967
1801	1.8010e+000	-239.753723	-53.435953
1802	1.8020e+000	-238.815308	-53.369528
1803	1.8030e+000	-237.442017	-53.318433
1804	1.8040e+000	-236.244202	-53.338871
1805	1.8050e+000	-235.191345	-53.108940
1806	1.8060e+000	-233.825684	-54.110417
1807	1.8070e+000	-232.429504	-53.313323
1808	1.8080e+000	-231.452942	-53.226460
1809	1.8090e+000	-230.194092	-53.313323
1810	1.8100e+000	-229.042053	-53.236679
1811	1.8110e+000	-227.828979	-52.914776
1812	1.8120e+000	-226.623535	-53.139597
1813	1.8130e+000	-225.440979	-53.083392
1814	1.8140e+000	-223.686218	-52.955653
1815	1.8150e+000	-222.450256	-52.240312
1816	1.8160e+000	-221.717834	-53.236679
1817	1.8170e+000	-220.718384	-52.919886
1818	1.8180e+000	-219.360352	-52.955653
1819	1.8190e+000	-218.170166	-52.904557
1820	1.8200e+000	-217.079163	-52.894338
1821	1.8210e+000	-215.896606	-52.879009
1822	1.8220e+000	-214.645386	-52.879009
1823	1.8230e+000	-213.363647	-52.807475
1824	1.8240e+000	-212.158203	-52.843242
1825	1.8250e+000	-210.990906	-52.802365
1826	1.8260e+000	-209.259033	-51.611834
1827	1.8270e+000	-208.557129	-52.741050
1828	1.8280e+000	-207.206726	-52.557106
1829	1.8290e+000	-206.222534	-52.623530
1830	1.8300e+000	-205.009460	-52.454914
1831	1.8310e+000	-203.857422	-52.485572
1832	1.8320e+000	-202.697754	-52.322065
1833	1.8330e+000	-201.286316	-52.439585
1834	1.8340e+000	-200.195313	-52.153449
1835	1.8350e+000	-199.020386	-52.577544
1836	1.8360e+000	-197.837830	-52.301627
1837	1.8370e+000	-196.716309	-52.771708
1838	1.8380e+000	-195.419312	-52.194326
1839	1.8390e+000	-194.175720	-52.311846
1840	1.8400e+000	-193.023682	-52.224983
1841	1.8410e+000	-191.879272	-52.148340
1842	1.8420e+000	-190.345764	-51.627163
1843	1.8430e+000	-189.331055	-51.831546
1844	1.8440e+000	-188.224792	-52.000162
1845	1.8450e+000	-187.042236	-52.005271
1846	1.8460e+000	-185.691833	-51.979724
1847	1.8470e+000	-184.806824	-52.122792
1848	1.8480e+000	-183.280945	-51.811108
1849	1.8490e+000	-182.197571	-51.831546
1850	1.8500e+000	-181.312561	-52.204545
1851	1.8510e+000	-179.870605	-51.729354
1852	1.8520e+000	-178.558350	-51.729354
1853	1.8530e+000	-177.597046	-51.913299
1854	1.8540e+000	-176.071167	-51.683368
1855	1.8550e+000	-174.957275	-51.678259
1856	1.8560e+000	-173.851013	-51.484095
1857	1.8570e+000	-172.866821	-51.622053
1858	1.8580e+000	-171.424866	-51.560738
1859	1.8590e+000	-170.257568	-51.335917
1860	1.8600e+000	-168.975830	-51.346136
1861	1.8610e+000	-167.877197	-51.484095
1862	1.8620e+000	-166.450500	-51.269492
1863	1.8630e+000	-165.420532	-51.341026
1864	1.8640e+000	-164.207458	-51.172410
1865	1.8650e+000	-163.238525	-51.024233
1866	1.8660e+000	-161.849976	-51.157082
1867	1.8670e+000	-160.652161	-50.988466
1868	1.8680e+000	-158.424377	-51.387013
1869	1.8690e+000	-158.142090	-50.922041
1870	1.8700e+000	-157.035828	-50.947589
1871	1.8710e+000	-155.921936	-50.692110
1872	1.8720e+000	-154.441833	-50.927151
1873	1.8730e+000	-153.358459	-51.039561
1874	1.8740e+000	-152.259827	-50.641014
1875	1.8750e+000	-151.077271	-50.615467
1876	1.8760e+000	-149.848938	-50.625686
1877	1.8770e+000	-148.635864	-49.925674
1878	1.8780e+000	-147.468567	-50.595028
1879	1.8790e+000	-146.278381	-50.569480
1880	1.8800e+000	-145.050049	-50.170933
1881	1.8810e+000	-143.890381	-50.354878
1882	1.8820e+000	-142.639160	-50.538823
1883	1.8830e+000	-141.418457	-50.298673
1884	1.8840e+000	-140.274048	-50.293563
1885	1.8850e+000	-139.091492	-50.242467
1886	1.8860e+000	-138.061523	-49.823482
1887	1.8870e+000	-136.665344	-50.078961
1888	1.8880e+000	-135.284424	-50.084071
1889	1.8890e+000	-134.216309	-50.308892
1890	1.8900e+000	-133.186340	-49.961441
1891	1.8910e+000	-131.881714	-49.864359
1892	1.8920e+000	-130.752563	-49.925674
1893	1.8930e+000	-129.501343	-49.634428
1894	1.8940e+000	-128.250122	-49.670195
1895	1.8950e+000	-126.968384	-49.603770
1896	1.8960e+000	-125.785828	-49.419826
1897	1.8970e+000	-124.801636	-49.593551
1898	1.8980e+000	-123.352051	-49.394278
1899	1.8990e+000	-122.283936	-48.939525
1900	1.9000e+000	-120.887756	-49.230771
1901	1.9010e+000	-119.865417	-49.235881
1902	1.9020e+000	-118.568420	-49.205223
1903	1.9030e+000	-117.485046	-49.097922
1904	1.9040e+000	-117.195129	-49.491360
1905	1.9050e+000	-115.127563	-48.959964
1906	1.9060e+000	-114.006042	-49.026388
1907	1.9070e+000	-111.534119	-48.065788
1908	1.9080e+000	-111.518860	-49.159237
1909	1.9090e+000	-110.313416	-48.597184
1910	1.9100e+000	-109.054565	-48.632951
1911	1.9110e+000	-107.810974	-48.627841
1912	1.9120e+000	-106.575012	-48.479664
1913	1.9130e+000	-105.438232	-48.433677
1914	1.9140e+000	-104.240417	-48.494992
1915	1.9150e+000	-102.905273	-48.484773
1916	1.9160e+000	-101.730347	-48.265061
1917	1.9170e+000	-100.563049	-48.474554
1918	1.9180e+000	-99.304199	-48.014692
1919	1.9190e+000	-98.060608	-48.443896
1920	1.9200e+000	-96.908569	-48.091336
1921	1.9210e+000	-95.840454	-47.846076
1922	1.9220e+000	-94.459534	-47.544611
1923	1.9230e+000	-93.414307	-47.779652
1924	1.9240e+000	-92.155457	-47.713227
1925	1.9250e+000	-90.904236	-47.723446
1926	1.9260e+000	-89.843750	-47.892062
1927	1.9270e+000	-88.752747	-47.764323
1928	1.9280e+000	-87.265015	-47.493515
1929	1.9290e+000	-86.242676	-47.340228
1930	1.9300e+000	-84.999084	-46.640216
1931	1.9310e+000	-83.641052	-47.161393
1932	1.9320e+000	-82.504272	-47.094968
1933	1.9330e+000	-81.336975	-46.808832
1934	1.9340e+000	-80.017090	-46.972338
1935	1.9350e+000	-78.926086	-46.977448
1936	1.9360e+000	-77.857971	-46.737298
1937	1.9370e+000	-76.614380	-46.849709
1938	1.9380e+000	-75.408936	-46.905914
1939	1.9390e+000	-74.226379	-46.778174
1940	1.9400e+000	-72.540283	-46.650435
1941	1.9410e+000	-71.662903	-46.476709
1942	1.9420e+000	-70.472717	-46.328532
1943	1.9430e+000	-69.396973	-46.374518
1944	1.9440e+000	-68.206787	-46.185464
1945	1.9450e+000	-66.993713	-46.354080
1946	1.9460e+000	-65.559387	-45.848232
1947	1.9470e+000	-64.605713	-45.981081
1948	1.9480e+000	-63.133240	-45.940204
1949	1.9490e+000	-62.583923	-45.889108
1950	1.9500e+000	-61.035156	-46.451162
1951	1.9510e+000	-59.951782	-45.439465
1952	1.9520e+000	-58.456421	-45.536547
1953	1.9530e+000	-57.601929	-45.168658
1954	1.9540e+000	-56.022644	-45.291288
1955	1.9550e+000	-54.946899	-45.321945
1956	1.9560e+000	-53.848267	-45.219754
1957	1.9570e+000	-52.497864	-44.948946
1958	1.9580e+000	-50.689697	-44.611714
1959	1.9590e+000	-50.186157	-44.959165
1960	1.9600e+000	-49.026489	-44.928508
1961	1.9610e+000	-47.866821	-44.795659
1962	1.9620e+000	-46.638489	-44.581057
1963	1.9630e+000	-45.478821	-44.402221
1964	1.9640e+000	-44.433594	-44.514632
1965	1.9650e+000	-42.976379	-44.417550
1966	1.9660e+000	-41.778564	-44.146743
1967	1.9670e+000	-40.679932	-44.070099
1968	1.9680e+000	-38.993835	-44.136523
1969	1.9690e+000	-38.444519	-44.013894
1970	1.9700e+000	-37.010193	-43.824839
1971	1.9710e+000	-35.736084	-43.722648
1972	1.9720e+000	-34.400940	-43.395635
1973	1.9730e+000	-33.370972	-43.548922
1974	1.9740e+000	-32.279968	-43.370087
1975	1.9750e+000	-30.990601	-43.262786
1976	1.9760e+000	-30.357361	-43.513155
1977	1.9770e+000	-28.564453	-42.864239
1978	1.9780e+000	-27.420044	-43.094170
1979	1.9790e+000	-26.817322	-42.848910
1980	1.9800e+000	-24.940491	-42.664965
1981	1.9810e+000	-23.803711	-43.758415
1982	1.9820e+000	-22.735596	-42.511678
1983	1.9830e+000	-21.919250	-43.037964
1984	1.9840e+000	-20.103455	-42.240870
1985	1.9850e+000	-19.180298	-42.194884
1986	1.9860e+000	-17.807007	-42.026268
1987	1.9870e+000	-16.647339	-41.837214
1988	1.9880e+000	-15.457153	-41.806556
1989	1.9890e+000	-14.320374	-41.612392
1990	1.9900e+000	-13.008118	-41.218955
1991	1.9910e+000	-11.848450	-41.387571
1992	1.9920e+000	-10.475159	-40.902161
1993	1.9930e+000	-9.292603	-41.024791
1994	1.9940e+000	-8.346558	-41.239393
1995	1.9950e+000	-6.996155	-40.866394
1996	1.9960e+000	-5.821228	-40.641573
1997	1.9970e+000	-4.661560	-40.309450
1998	1.9980e+000	-3.120422	-39.558343
1999	1.9990e+000	-2.151489	-40.329889
2000	2.0000e+000	-1.060486	-39.967109
2001	2.0010e+000	0.114441	-39.900684

Center data before PMax,±Pr and ±Vc Calc.

PMax (µC/cm2):	5.42e+001
Pr (µC/cm2):	4.14e+001
-Pr (µC/cm2):	-3.99e+001
Ec:	7.58e-003
-Ec:	-4.21e-003
C (Max-Eff) (nF):	1.42e+000
K (Eff):	2.04e+003
Vert. (±Pr) Shift (µC/cm2):	7.52e-001
Horiz. Shift (±Ec):	1.69e-003
Offset (µC/cm2):	3.50e+001

A (Loop Area - µC/cm2·Volts):	1.22e+004



Hysteresis Version: 5.16.2 - Radiant Technologies, Inc., 1999 - 3/20/18

