»»»»»»»»»»»»»»»»»»»»»»»»»»»»»»»»»»»» Hysteresis ««««««««««««««««««««««««««««««««««««
»»»  Executed Version:	5.16.2
»»»  Vision Version:	5.16.10 (R)
»»»  Vision Compiled:	4/26/18
»»»  Driver Version:	5.16.6
»»»  Windows Version:	Windows 8
»»»  Processor Information:	x86 (AMD or Intel) - 8 Processors
»»»  Tester Name:	PPM21016-863
»»»  Tester S/N:	PPM21016-863
»»»  Internal Amp Type:	 RTI ML200V    
»»»  Internal Amp S/N:	 iAB2-0000     
»»»  Execution Count:	1
»»»»»»»»»»»»»»»»»»»»»»»»»»»»»»»»»»»»»»»»»»««««««««««««««««««««««««««««««««««««««««««

Stored:	8/1/2018 - 10:9:55
Configured:	08/01/18 09:14:22 AM
Executed:	08/01/18 10:09:15 AM

»»»»»»»»»»»»»»»»»»»»»»»»»»»»»»»»»»» Sample Info ««««««««««««««««««««««««««««««««««««
Sample Name:	Internal Reference Cap.
Lot Name:	N/A
Wafer Name:	N/A
Die Row/Column:	0/0
Capacitor Number:	0
Sample Area (cm2):	6.20e-005
Sample Thickness (µm):	1.00e-001

Mux Loop Adjustment:	Disabled

Amplifier:	Internal

»»»»»»»»»»»»»»»»»»»»»»»»»»»»»»»»»»» Tester Info «««««««««««««««««««««««««««««««««««
Tester Name:	PPM21016-863
Tester Serial Number:	PPM21016-863
Return Signal Amp. Level:	1.79 [Index: 2]

»»»»»»»»»»»»»»»»»»»»»»»»»»»»»»»» Hysteresis Info ««««««««««««««««««««««««««««««««««
Task Name:	Hyst-1
Volts:	3.00
Field:	300.00 (kV/cm)
Hysteresis Period (ms):	2.00e+000
Preset:	Enabled
Preset Delay (ms):	1.00e+003
Profile:	Double Bipolar

»»»»»»»»»»»»»»»»»»»»»»»»»»»»»»»»»»»»»» Data «««««««««««««««««««««««««««««««««««««««
Points:	2001

Valid Data

Point	Time (ms)	Field (kV/cm)	Measured Polarization
   1	1.0000e-003	-0.053406	-31.422843
   2	2.0000e-003	0.984192	-31.390632
   3	3.0000e-003	2.189636	-31.325526
   4	4.0000e-003	3.692627	-31.289204
   5	5.0000e-003	4.722595	-31.229581
   6	6.0000e-003	5.889893	-31.171328
   7	7.0000e-003	7.041931	-31.113076
   8	8.0000e-003	8.186340	-31.058250
   9	9.0000e-003	9.498596	-30.994514
  10	1.0000e-002	10.757446	-30.926667
  11	1.1000e-002	11.993408	-30.842372
  12	1.2000e-002	12.870789	-30.762874
  13	1.3000e-002	14.152527	-30.672412
  14	1.4000e-002	15.747070	-30.560018
  15	1.5000e-002	16.632080	-30.436660
  16	1.6000e-002	17.936707	-30.300280
  17	1.7000e-002	19.142151	-30.153620
  18	1.8000e-002	20.294189	-29.982289
  19	1.9000e-002	21.530151	-29.806161
  20	2.0000e-002	22.758484	-29.602619
  21	2.1000e-002	23.857117	-29.373035
  22	2.2000e-002	25.291443	-29.135227
  23	2.3000e-002	26.351929	-28.873433
  24	2.4000e-002	27.656555	-28.582855
  25	2.5000e-002	28.755188	-28.287480
  26	2.6000e-002	29.937744	-27.955097
  27	2.7000e-002	31.051636	-27.585022
  28	2.8000e-002	32.287598	-27.184107
  29	2.9000e-002	33.226013	-26.761261
  30	3.0000e-002	34.568787	-26.306890
  31	3.1000e-002	35.667419	-25.823736
  32	3.2000e-002	36.956787	-25.314540
  33	3.3000e-002	38.307190	-24.773133
  34	3.4000e-002	39.703369	-24.193348
  35	3.5000e-002	40.802002	-23.602597
  36	3.6000e-002	41.786194	-22.948797
  37	3.7000e-002	43.075562	-22.283347
  38	3.8000e-002	44.471741	-21.569238
  39	3.9000e-002	45.478821	-20.842793
  40	4.0000e-002	46.791077	-20.067005
  41	4.1000e-002	47.607422	-19.275455
  42	4.2000e-002	49.057007	-18.457176
  43	4.3000e-002	50.376892	-17.597779
  44	4.4000e-002	51.582336	-16.726730
  45	4.5000e-002	52.558899	-15.820045
  46	4.6000e-002	53.977966	-14.888688
  47	4.7000e-002	54.702759	-13.936772
  48	4.8000e-002	56.007385	-12.971834
  49	4.9000e-002	57.540894	-11.974686
  50	5.0000e-002	58.601379	-10.967943
  51	5.1000e-002	59.761047	-9.963942
  52	5.2000e-002	61.073303	-8.948290
  53	5.3000e-002	62.156677	-7.935380
  54	5.4000e-002	63.591003	-6.918357
  55	5.5000e-002	64.552307	-5.915041
  56	5.6000e-002	65.620422	-4.918578
  57	5.7000e-002	67.161560	-3.972830
  58	5.8000e-002	68.191528	-3.031193
  59	5.9000e-002	69.396973	-2.095039
  60	6.0000e-002	70.785522	-1.211655
  61	6.1000e-002	71.762085	-0.331012
  62	6.2000e-002	72.837830	0.495490
  63	6.3000e-002	74.279785	1.298691
  64	6.4000e-002	75.294495	2.063514
  65	6.5000e-002	76.438904	2.829707
  66	6.6000e-002	77.751160	3.515718
  67	6.7000e-002	79.109192	4.207896
  68	6.8000e-002	80.406189	4.852102
  69	6.9000e-002	81.542969	5.494937
  70	7.0000e-002	82.702637	6.067869
  71	7.1000e-002	83.816528	6.641486
  72	7.2000e-002	85.113525	7.176039
  73	7.3000e-002	86.181641	7.702369
  74	7.4000e-002	87.577820	8.212936
  75	7.5000e-002	88.531494	8.717336
  76	7.6000e-002	89.874268	9.203917
  77	7.7000e-002	91.072083	9.673364
  78	7.8000e-002	92.292786	10.129105
  79	7.9000e-002	93.399048	10.618428
  80	8.0000e-002	94.635010	11.112547
  81	8.1000e-002	95.924377	11.584736
  82	8.2000e-002	97.305298	12.052813
  83	8.3000e-002	98.388672	12.553786
  84	8.4000e-002	99.433899	13.043793
  85	8.5000e-002	100.883484	13.548193
  86	8.6000e-002	102.035522	14.054648
  87	8.7000e-002	103.073120	14.578236
  88	8.8000e-002	104.240417	15.100454
  89	8.9000e-002	105.506897	15.658309
  90	9.0000e-002	106.529236	16.203142
  91	9.1000e-002	107.849121	16.774018
  92	9.2000e-002	108.840942	17.328446
  93	9.3000e-002	110.252380	17.941127
  94	9.4000e-002	111.495972	18.523653
  95	9.5000e-002	112.602234	19.134278
  96	9.6000e-002	113.769531	19.759294
  97	9.7000e-002	114.929199	20.374716
  98	9.8000e-002	115.829468	21.006586
  99	9.9000e-002	117.744446	21.654903
 100	1.0000e-001	118.621826	22.316242
 101	1.0100e-001	119.857788	22.976210
 102	1.0200e-001	121.002197	23.634122
 103	1.0300e-001	122.489929	24.307797
 104	1.0400e-001	123.283386	25.000661
 105	1.0500e-001	124.610901	25.681874
 106	1.0600e-001	126.083374	26.369255
 107	1.0700e-001	127.098083	27.084049
 108	1.0800e-001	128.166199	27.771430
 109	1.0900e-001	129.257202	28.479371
 110	1.1000e-001	130.554199	29.181144
 111	1.1100e-001	131.668091	29.882232
 112	1.1200e-001	133.026123	30.571669
 113	1.1300e-001	134.429932	31.291260
 114	1.1400e-001	135.444641	31.976585
 115	1.1500e-001	136.886597	32.660540
 116	1.1600e-001	137.886047	33.354089
 117	1.1700e-001	139.129639	34.055176
 118	1.1800e-001	140.525818	34.698011
 119	1.1900e-001	141.433716	35.397043
 120	1.2000e-001	142.814636	36.054270
 121	1.2100e-001	143.928528	36.697105
 122	1.2200e-001	145.080566	37.346793
 123	1.2300e-001	146.255493	38.001964
 124	1.2400e-001	147.583008	38.602309
 125	1.2500e-001	148.887634	39.196486
 126	1.2600e-001	149.887085	39.792033
 127	1.2700e-001	151.008606	40.336867
 128	1.2800e-001	152.328491	40.931043
 129	1.2900e-001	153.564453	41.463541
 130	1.3000e-001	154.846191	41.990556
 131	1.3100e-001	155.769348	42.503179
 132	1.3200e-001	156.997681	42.991131
 133	1.3300e-001	158.111572	43.464690
 134	1.3400e-001	159.744263	43.918376
 135	1.3500e-001	160.499573	44.346704
 136	1.3600e-001	162.078857	44.757899
 137	1.3700e-001	163.291931	45.159499
 138	1.3800e-001	164.253235	45.515183
 139	1.3900e-001	165.519714	45.904448
 140	1.4000e-001	166.748047	46.250537
 141	1.4100e-001	167.938232	46.575381
 142	1.4200e-001	169.189453	46.894743
 143	1.4300e-001	170.761108	47.209307
 144	1.4400e-001	171.463013	47.471101
 145	1.4500e-001	172.714233	47.728098
 146	1.4600e-001	173.965454	47.985095
 147	1.4700e-001	174.797058	48.219476
 148	1.4800e-001	176.185608	48.418906
 149	1.4900e-001	177.482605	48.656028
 150	1.5000e-001	178.627014	48.874647
 151	1.5100e-001	180.046082	49.059685
 152	1.5200e-001	181.106567	49.239925
 153	1.5300e-001	182.235718	49.438670
 154	1.5400e-001	184.143066	49.608630
 155	1.5500e-001	184.883118	49.744325
 156	1.5600e-001	186.027527	49.888243
 157	1.5700e-001	187.187195	50.035588
 158	1.5800e-001	188.247681	50.195269
 159	1.5900e-001	189.476013	50.298753
 160	1.6000e-001	190.788269	50.433076
 161	1.6100e-001	192.031860	50.553008
 162	1.6200e-001	193.046570	50.655807
 163	1.6300e-001	194.496155	50.760662
 164	1.6400e-001	195.449829	50.877167
 165	1.6500e-001	196.777344	50.986819
 166	1.6600e-001	197.860718	51.071114
 167	1.6700e-001	199.104309	51.182822
 168	1.6800e-001	200.347900	51.274656
 169	1.6900e-001	201.416016	51.347300
 170	1.7000e-001	202.796936	51.461064
 171	1.7100e-001	203.941345	51.530967
 172	1.7200e-001	205.146790	51.619374
 173	1.7300e-001	206.291199	51.681053
 174	1.7400e-001	207.237244	51.759866
 175	1.7500e-001	208.709717	51.837308
 176	1.7600e-001	209.587097	51.905840
 177	1.7700e-001	211.166382	51.985338
 178	1.7800e-001	212.471008	52.051129
 179	1.7900e-001	213.478088	52.131997
 180	1.8000e-001	214.683533	52.179970
 181	1.8100e-001	215.721130	52.267006
 182	1.8200e-001	217.193604	52.316350
 183	1.8300e-001	218.162537	52.383512
 184	1.8400e-001	219.802856	52.444506
 185	1.8500e-001	220.832825	52.502073
 186	1.8600e-001	222.007751	52.552787
 187	1.8700e-001	223.381042	52.635711
 188	1.8800e-001	224.571228	52.714524
 189	1.8900e-001	225.646973	52.763182
 190	1.9000e-001	226.676941	52.807043
 191	1.9100e-001	228.141785	52.874890
 192	1.9200e-001	229.087830	52.915324
 193	1.9300e-001	230.506897	52.968779
 194	1.9400e-001	231.559753	53.028403
 195	1.9500e-001	232.734680	53.101732
 196	1.9600e-001	233.978271	53.133257
 197	1.9700e-001	235.176086	53.227832
 198	1.9800e-001	236.282349	53.238797
 199	1.9900e-001	237.854004	53.293623
 200	2.0000e-001	238.517761	53.348449
 201	2.0100e-001	239.761353	53.405331
 202	2.0200e-001	241.157532	53.445766
 203	2.0300e-001	242.576599	53.523893
 204	2.0400e-001	243.560791	53.547879
 205	2.0500e-001	244.552612	53.599964
 206	2.0600e-001	245.994568	53.646566
 207	2.0700e-001	247.253418	53.683573
 208	2.0800e-001	248.603821	53.747309
 209	2.0900e-001	249.618530	53.800764
 210	2.1000e-001	250.778198	53.832289
 211	2.1100e-001	252.006531	53.874094
 212	2.1200e-001	253.120422	53.926179
 213	2.1300e-001	254.501343	53.978949
 214	2.1400e-001	255.424500	54.037887
 215	2.1500e-001	256.614685	54.077635
 216	2.1600e-001	257.820129	54.109160
 217	2.1700e-001	258.903503	54.156448
 218	2.1800e-001	260.429382	54.221554
 219	2.1900e-001	261.528015	54.261303
 220	2.2000e-001	263.000488	54.294198
 221	2.2100e-001	263.847351	54.342856
 222	2.2200e-001	265.159607	54.388088
 223	2.2300e-001	266.204834	54.444970
 224	2.2400e-001	267.723083	54.480607
 225	2.2500e-001	268.554688	54.545027
 226	2.2600e-001	270.156860	54.573811
 227	2.2700e-001	271.217346	54.596427
 228	2.2800e-001	272.247314	54.654679
 229	2.2900e-001	273.353577	54.700596
 230	2.3000e-001	274.848938	54.743086
 231	2.3100e-001	275.695801	54.787632
 232	2.3200e-001	277.526855	54.823269
 233	2.3300e-001	278.427124	54.858906
 234	2.3400e-001	279.624939	54.904823
 235	2.3500e-001	280.807495	54.961705
 236	2.3600e-001	282.310486	55.022013
 237	2.3700e-001	283.081055	55.039832
 238	2.3800e-001	284.240723	55.076839
 239	2.3900e-001	285.713196	55.133721
 240	2.4000e-001	286.743164	55.179638
 241	2.4100e-001	287.864685	55.204995
 242	2.4200e-001	289.360046	55.263933
 243	2.4300e-001	290.306091	55.283808
 244	2.4400e-001	291.503906	55.328354
 245	2.4500e-001	292.335510	55.359193
 246	2.4600e-001	293.983459	55.397572
 247	2.4700e-001	295.272827	55.453083
 248	2.4800e-001	296.424866	55.483237
 249	2.4900e-001	297.721863	55.516133
 250	2.5000e-001	298.873901	55.566847
 251	2.5100e-001	299.957275	55.602484
 252	2.5200e-001	298.751831	55.582609
 253	2.5300e-001	297.256470	55.574385
 254	2.5400e-001	296.432495	55.553140
 255	2.5500e-001	295.097351	55.526413
 256	2.5600e-001	294.036865	55.504482
 257	2.5700e-001	292.839050	55.467475
 258	2.5800e-001	291.496277	55.441432
 259	2.5900e-001	290.359497	55.409907
 260	2.6000e-001	289.390564	55.388662
 261	2.6100e-001	287.963867	55.347543
 262	2.6200e-001	286.689758	55.330410
 263	2.6300e-001	285.667419	55.299570
 264	2.6400e-001	284.385681	55.274898
 265	2.6500e-001	283.042908	55.238576
 266	2.6600e-001	281.806946	55.224870
 267	2.6700e-001	280.815125	55.221443
 268	2.6800e-001	279.586792	55.170044
 269	2.6900e-001	278.282166	55.144687
 270	2.7000e-001	277.091980	55.113162
 271	2.7100e-001	275.886536	55.093287
 272	2.7200e-001	274.818420	55.054224
 273	2.7300e-001	273.612976	55.028181
 274	2.7400e-001	272.338867	54.994600
 275	2.7500e-001	271.087646	54.956222
 276	2.7600e-001	270.095825	54.912361
 277	2.7700e-001	268.714905	54.903452
 278	2.7800e-001	267.715454	54.862333
 279	2.7900e-001	266.563416	54.838346
 280	2.8000e-001	265.151978	54.808877
 281	2.8100e-001	263.755798	54.791059
 282	2.8200e-001	262.664795	54.742401
 283	2.8300e-001	261.383057	54.728694
 284	2.8400e-001	260.444641	54.691687
 285	2.8500e-001	258.911133	54.650567
 286	2.8600e-001	258.186340	54.636861
 287	2.8700e-001	256.889343	54.584776
 288	2.8800e-001	255.363464	54.566272
 289	2.8900e-001	254.371643	54.529950
 290	2.9000e-001	253.173828	54.491572
 291	2.9100e-001	251.991272	54.459361
 292	2.9200e-001	250.846863	54.436746
 293	2.9300e-001	249.633789	54.399738
 294	2.9400e-001	248.458862	54.368213
 295	2.9500e-001	247.116089	54.340800
 296	2.9600e-001	246.070862	54.314758
 297	2.9700e-001	244.659424	54.282548
 298	2.9800e-001	243.637085	54.229092
 299	2.9900e-001	242.301941	54.211274
 300	3.0000e-001	241.264343	54.166728
 301	3.0100e-001	240.013123	54.121496
 302	3.0200e-001	238.990784	54.105734
 303	3.0300e-001	237.678528	54.068041
 304	3.0400e-001	236.534119	54.033089
 305	3.0500e-001	235.115051	53.998138
 306	3.0600e-001	234.046936	53.970725
 307	3.0700e-001	232.543945	53.924808
 308	3.0800e-001	231.864929	53.901507
 309	3.0900e-001	230.522156	53.878206
 310	3.1000e-001	229.118347	53.822009
 311	3.1100e-001	228.073120	53.782260
 312	3.1200e-001	226.982117	53.761700
 313	3.1300e-001	225.868225	53.697965
 314	3.1400e-001	224.342346	53.689741
 315	3.1500e-001	223.182678	53.657531
 316	3.1600e-001	221.961975	53.619838
 317	3.1700e-001	220.581055	53.571180
 318	3.1800e-001	219.505310	53.537599
 319	3.1900e-001	218.269348	53.506074
 320	3.2000e-001	216.926575	53.463584
 321	3.2100e-001	215.988159	53.436856
 322	3.2200e-001	214.721680	53.405331
 323	3.2300e-001	213.706970	53.365583
 324	3.2400e-001	212.318420	53.327204
 325	3.2500e-001	211.288452	53.281288
 326	3.2600e-001	209.770203	53.249763
 327	3.2700e-001	208.755493	53.199049
 328	3.2800e-001	207.763672	53.140796
 329	3.2900e-001	206.169128	53.142167
 330	3.3000e-001	205.146790	53.105844
 331	3.3100e-001	204.101563	53.061984
 332	3.3200e-001	202.781677	53.006472
 333	3.3300e-001	201.438904	52.987968
 334	3.3400e-001	200.141907	52.944793
 335	3.3500e-001	199.203491	52.907100
 336	3.3600e-001	197.959900	52.875575
 337	3.3700e-001	196.861267	52.813896
 338	3.3800e-001	195.693970	52.781000
 339	3.3900e-001	194.190979	52.741251
 340	3.4000e-001	193.374634	52.710412
 341	3.4100e-001	191.993713	52.661068
 342	3.4200e-001	190.666199	52.635026
 343	3.4300e-001	189.498901	52.580200
 344	3.4400e-001	188.369751	52.534969
 345	3.4500e-001	186.988831	52.508926
 346	3.4600e-001	185.844421	52.482198
 347	3.4700e-001	184.738159	52.415037
 348	3.4800e-001	183.479309	52.367064
 349	3.4900e-001	182.334900	52.337595
 350	3.5000e-001	181.365967	52.314979
 351	3.5100e-001	180.145264	52.251244
 352	3.5200e-001	178.794861	52.206698
 353	3.5300e-001	177.848816	52.175173
 354	3.5400e-001	176.445007	52.136109
 355	3.5500e-001	175.613403	52.097046
 356	3.5600e-001	173.866272	52.042220
 357	3.5700e-001	172.843933	52.010695
 358	3.5800e-001	171.333313	51.949016
 359	3.5900e-001	170.333862	51.910637
 360	3.6000e-001	168.922424	51.859923
 361	3.6100e-001	167.907715	51.827713
 362	3.6200e-001	166.984558	51.781111
 363	3.6300e-001	165.550232	51.781796
 364	3.6400e-001	164.161682	51.698187
 365	3.6500e-001	163.208008	51.652270
 366	3.6600e-001	161.773682	51.596758
 367	3.6700e-001	161.033630	51.572772
 368	3.6800e-001	159.721375	51.513834
 369	3.6900e-001	158.508301	51.470659
 370	3.7000e-001	157.165527	51.412406
 371	3.7100e-001	156.036377	51.379510
 372	3.7200e-001	154.357910	51.326740
 373	3.7300e-001	153.465271	51.276712
 374	3.7400e-001	152.496338	51.234907
 375	3.7500e-001	150.894165	51.188990
 376	3.7600e-001	150.138855	51.147185
 377	3.7700e-001	148.803711	51.117031
 378	3.7800e-001	147.445679	51.058093
 379	3.7900e-001	146.347046	51.003952
 380	3.8000e-001	145.004272	50.953923
 381	3.8100e-001	144.149780	50.908692
 382	3.8200e-001	142.875671	50.857978
 383	3.8300e-001	141.471863	50.798355
 384	3.8400e-001	140.365601	50.759976
 385	3.8500e-001	139.213562	50.710633
 386	3.8600e-001	138.000488	50.651695
 387	3.8700e-001	137.023926	50.614002
 388	3.8800e-001	135.696411	50.546155
 389	3.8900e-001	134.071350	50.506406
 390	3.9000e-001	133.277893	50.481049
 391	3.9100e-001	131.797791	50.417999
 392	3.9200e-001	130.928040	50.353579
 393	3.9300e-001	129.592896	50.300123
 394	3.9400e-001	128.379822	50.254892
 395	3.9500e-001	126.983643	50.190471
 396	3.9600e-001	126.205444	50.145925
 397	3.9700e-001	124.649048	50.100008
 398	3.9800e-001	123.558044	50.039700
 399	3.9900e-001	122.581482	49.980762
 400	4.0000e-001	121.116638	49.934160
 401	4.0100e-001	120.048523	49.880704
 402	4.0200e-001	118.705750	49.823137
 403	4.0300e-001	117.858887	49.764884
 404	4.0400e-001	116.432190	49.745695
 405	4.0500e-001	115.043640	49.657288
 406	4.0600e-001	113.929749	49.613427
 407	4.0700e-001	112.663269	49.542839
 408	4.0800e-001	111.541748	49.486642
 409	4.0900e-001	110.282898	49.418795
 410	4.1000e-001	109.390259	49.398235
 411	4.1100e-001	107.978821	49.307087
 412	4.1200e-001	106.788635	49.261170
 413	4.1300e-001	105.522156	49.197435
 414	4.1400e-001	104.331970	49.133015
 415	4.1500e-001	103.034973	49.067223
 416	4.1600e-001	102.012634	48.999376
 417	4.1700e-001	100.654602	48.939753
 418	4.1800e-001	99.830627	48.888353
 419	4.1900e-001	98.510742	48.823933
 420	4.2000e-001	97.175598	48.761568
 421	4.2100e-001	96.054077	48.692351
 422	4.2200e-001	94.779968	48.627930
 423	4.2300e-001	93.574524	48.566936
 424	4.2400e-001	92.262268	48.481956
 425	4.2500e-001	91.270447	48.425759
 426	4.2600e-001	90.171814	48.355856
 427	4.2700e-001	88.806152	48.298974
 428	4.2800e-001	87.364197	48.229071
 429	4.2900e-001	86.296082	48.151629
 430	4.3000e-001	85.174561	48.081040
 431	4.3100e-001	84.022522	48.011137
 432	4.3200e-001	82.771301	47.937122
 433	4.3300e-001	81.642151	47.865163
 434	4.3400e-001	80.596924	47.789777
 435	4.3500e-001	79.261780	47.715077
 436	4.3600e-001	78.018188	47.643803
 437	4.3700e-001	76.911926	47.538948
 438	4.3800e-001	75.584412	47.458765
 439	4.3900e-001	74.234009	47.396401
 440	4.4000e-001	72.952271	47.314162
 441	4.4100e-001	71.884155	47.223013
 442	4.4200e-001	70.816040	47.146942
 443	4.4300e-001	69.549561	47.050997
 444	4.4400e-001	68.511963	46.976982
 445	4.4500e-001	67.054749	46.881036
 446	4.4600e-001	65.711975	46.786461
 447	4.4700e-001	64.765930	46.698740
 448	4.4800e-001	63.545227	46.591144
 449	4.4900e-001	62.225342	46.490401
 450	4.5000e-001	61.309814	46.404050
 451	4.5100e-001	59.951782	46.303992
 452	4.5200e-001	58.708191	46.186117
 453	4.5300e-001	57.662964	46.070982
 454	4.5400e-001	56.350708	45.959274
 455	4.5500e-001	55.015564	45.855104
 456	4.5600e-001	54.130554	45.731746
 457	4.5700e-001	52.780151	45.627577
 458	4.5800e-001	51.567078	45.485029
 459	4.5900e-001	50.292969	45.351391
 460	4.6000e-001	49.209595	45.232829
 461	4.6100e-001	48.103333	45.077946
 462	4.6200e-001	47.142029	44.935398
 463	4.6300e-001	45.791626	44.775717
 464	4.6400e-001	44.265747	44.613981
 465	4.6500e-001	43.029785	44.467321
 466	4.6600e-001	42.114258	44.276801
 467	4.6700e-001	40.512085	44.109581
 468	4.6800e-001	39.588928	43.931397
 469	4.6900e-001	38.497925	43.729226
 470	4.7000e-001	36.933899	43.538706
 471	4.7100e-001	36.048889	43.329681
 472	4.7200e-001	34.561157	43.106951
 473	4.7300e-001	33.599854	42.882849
 474	4.7400e-001	32.707214	42.649839
 475	4.7500e-001	31.158447	42.399010
 476	4.7600e-001	29.861450	42.142013
 477	4.7700e-001	28.694153	41.873365
 478	4.7800e-001	27.717590	41.567710
 479	4.7900e-001	26.496887	41.292210
 480	4.8000e-001	25.238037	40.986555
 481	4.8100e-001	23.994446	40.692550
 482	4.8200e-001	23.086548	40.339608
 483	4.8300e-001	21.659851	39.994889
 484	4.8400e-001	20.423889	39.644688
 485	4.8500e-001	19.119263	39.245829
 486	4.8600e-001	17.868042	38.865473
 487	4.8700e-001	16.998291	38.446740
 488	4.8800e-001	15.617371	38.034859
 489	4.8900e-001	14.442444	37.603790
 490	4.9000e-001	13.244629	37.140510
 491	4.9100e-001	12.001038	36.669006
 492	4.9200e-001	10.879517	36.159810
 493	4.9300e-001	9.796143	35.660893
 494	4.9400e-001	8.583069	35.126340
 495	4.9500e-001	7.110596	34.563688
 496	4.9600e-001	6.034851	33.961972
 497	4.9700e-001	4.989624	33.391096
 498	4.9800e-001	3.417969	32.765394
 499	4.9900e-001	2.166748	32.117762
 500	5.0000e-001	1.464844	31.449570
 501	5.0100e-001	-0.068665	30.758077
 502	5.0200e-001	-0.831604	30.041912
 503	5.0300e-001	-2.281189	29.305873
 504	5.0400e-001	-3.555298	28.525973
 505	5.0500e-001	-4.928589	27.750871
 506	5.0600e-001	-6.195068	26.944243
 507	5.0700e-001	-7.087708	26.082104
 508	5.0800e-001	-8.354187	25.204888
 509	5.0900e-001	-9.567261	24.316021
 510	5.1000e-001	-10.566711	23.409336
 511	5.1100e-001	-12.001038	22.462902
 512	5.1200e-001	-13.061523	21.486999
 513	5.1300e-001	-14.266968	20.501501
 514	5.1400e-001	-15.373230	19.489276
 515	5.1500e-001	-17.005920	18.444841
 516	5.1600e-001	-17.807007	17.406573
 517	5.1700e-001	-19.065857	16.330613
 518	5.1800e-001	-20.454407	15.241631
 519	5.1900e-001	-21.522522	14.165670
 520	5.2000e-001	-22.468567	13.067780
 521	5.2100e-001	-23.880005	11.970574
 522	5.2200e-001	-24.986267	10.871313
 523	5.2300e-001	-26.115417	9.737785
 524	5.2400e-001	-27.236938	8.656342
 525	5.2500e-001	-28.343201	7.583123
 526	5.2600e-001	-29.998779	6.507162
 527	5.2700e-001	-30.860901	5.451076
 528	5.2800e-001	-32.157898	4.440907
 529	5.2900e-001	-33.699036	3.458836
 530	5.3000e-001	-34.729004	2.513087
 531	5.3100e-001	-35.713196	1.578304
 532	5.3200e-001	-37.117004	0.736725
 533	5.3300e-001	-38.192749	-0.089778
 534	5.3400e-001	-39.443970	-0.867622
 535	5.3500e-001	-40.611267	-1.589954
 536	5.3600e-001	-42.106628	-2.280077
 537	5.3700e-001	-43.144226	-2.933192
 538	5.3800e-001	-44.105530	-3.571915
 539	5.3900e-001	-45.501709	-4.146217
 540	5.4000e-001	-46.493530	-4.708869
 541	5.4100e-001	-47.973633	-5.272206
 542	5.4200e-001	-49.339294	-5.798536
 543	5.4300e-001	-50.239563	-6.326922
 544	5.4400e-001	-51.620483	-6.834748
 545	5.4500e-001	-52.803040	-7.350112
 546	5.4600e-001	-53.794861	-7.840119
 547	5.4700e-001	-55.091858	-8.355484
 548	5.4800e-001	-56.304932	-8.886611
 549	5.4900e-001	-57.594299	-9.381416
 550	5.5000e-001	-58.700562	-9.909801
 551	5.5100e-001	-59.692383	-10.432704
 552	5.5200e-001	-60.722351	-10.987132
 553	5.5300e-001	-62.324524	-11.540875
 554	5.5400e-001	-63.301086	-12.102156
 555	5.5500e-001	-64.834595	-12.680571
 556	5.5600e-001	-66.101074	-13.273377
 557	5.5700e-001	-67.108154	-13.868925
 558	5.5800e-001	-68.389893	-14.503536
 559	5.5900e-001	-69.610596	-15.145000
 560	5.6000e-001	-70.732117	-15.787835
 561	5.6100e-001	-71.701050	-16.473845
 562	5.6200e-001	-73.303223	-17.163968
 563	5.6300e-001	-74.378967	-17.867797
 564	5.6400e-001	-75.408936	-18.623025
 565	5.6500e-001	-76.721191	-19.359750
 566	5.6600e-001	-77.949524	-20.134852
 567	5.6700e-001	-78.811646	-20.908584
 568	5.6800e-001	-80.085754	-21.707674
 569	5.6900e-001	-81.581116	-22.528693
 570	5.7000e-001	-82.481384	-23.362734
 571	5.7100e-001	-83.885193	-24.218705
 572	5.7200e-001	-85.174561	-25.074676
 573	5.7300e-001	-86.288452	-25.946409
 574	5.7400e-001	-87.432861	-26.807863
 575	5.7500e-001	-88.432312	-27.693303
 576	5.7600e-001	-89.828491	-28.572575
 577	5.7700e-001	-91.087341	-29.445680
 578	5.7800e-001	-92.300415	-30.315357
 579	5.7900e-001	-93.490601	-31.166531
 580	5.8000e-001	-94.627380	-32.023187
 581	5.8100e-001	-96.000671	-32.872991
 582	5.8200e-001	-97.137451	-33.699493
 583	5.8300e-001	-98.312378	-34.484875
 584	5.8400e-001	-99.487305	-35.283279
 585	5.8500e-001	-100.898743	-36.035766
 586	5.8600e-001	-101.997375	-36.751245
 587	5.8700e-001	-103.179932	-37.435200
 588	5.8800e-001	-104.446411	-38.075979
 589	5.8900e-001	-105.560303	-38.681121
 590	5.9000e-001	-106.781006	-39.241032
 591	5.9100e-001	-107.650757	-39.759823
 592	5.9200e-001	-109.100342	-40.255998
 593	5.9300e-001	-110.519409	-40.674046
 594	5.9400e-001	-111.511230	-41.074962
 595	5.9500e-001	-112.731934	-41.464226
 596	5.9600e-001	-113.586426	-41.821966
 597	5.9700e-001	-114.784241	-42.105005
 598	5.9800e-001	-116.210938	-42.445612
 599	5.9900e-001	-117.584229	-42.750582
 600	6.0000e-001	-118.476868	-43.032936
 601	6.0100e-001	-120.101929	-43.323513
 602	6.0200e-001	-121.276855	-43.588734
 603	6.0300e-001	-122.444153	-43.838193
 604	6.0400e-001	-123.603821	-44.099301
 605	6.0500e-001	-124.885559	-44.350816
 606	6.0600e-001	-125.801086	-44.607813
 607	6.0700e-001	-127.151489	-44.836026
 608	6.0800e-001	-128.669739	-45.053274
 609	6.0900e-001	-129.684448	-45.296564
 610	6.1000e-001	-130.661011	-45.506959
 611	6.1100e-001	-132.110596	-45.721466
 612	6.1200e-001	-133.537292	-45.951735
 613	6.1300e-001	-134.368896	-46.142941
 614	6.1400e-001	-135.475159	-46.336888
 615	6.1500e-001	-136.894226	-46.534262
 616	6.1600e-001	-137.748718	-46.733006
 617	6.1700e-001	-139.442444	-46.901596
 618	6.1800e-001	-140.510559	-47.083892
 619	6.1900e-001	-141.601563	-47.275098
 620	6.2000e-001	-142.555237	-47.441632
 621	6.2100e-001	-143.989563	-47.610222
 622	6.2200e-001	-145.248413	-47.780868
 623	6.2300e-001	-146.041870	-47.888464
 624	6.2400e-001	-147.735596	-48.089264
 625	6.2500e-001	-148.941040	-48.238665
 626	6.2600e-001	-149.971008	-48.393549
 627	6.2700e-001	-151.359558	-48.529928
 628	6.2800e-001	-152.359009	-48.664252
 629	6.2900e-001	-153.518677	-48.795835
 630	6.3000e-001	-154.655457	-48.917822
 631	6.3100e-001	-156.341553	-49.035013
 632	6.3200e-001	-157.234192	-49.154260
 633	6.3300e-001	-158.508301	-49.263912
 634	6.3400e-001	-159.652710	-49.376990
 635	6.3500e-001	-161.048889	-49.451691
 636	6.3600e-001	-162.185669	-49.578476
 637	6.3700e-001	-163.497925	-49.684016
 638	6.3800e-001	-164.527893	-49.769682
 639	6.3900e-001	-165.695190	-49.858089
 640	6.4000e-001	-166.763306	-49.955405
 641	6.4100e-001	-168.273926	-50.036273
 642	6.4200e-001	-169.097900	-50.139757
 643	6.4300e-001	-170.608521	-50.206234
 644	6.4400e-001	-171.524048	-50.287102
 645	6.4500e-001	-172.851563	-50.362488
 646	6.4600e-001	-174.255371	-50.447468
 647	6.4700e-001	-175.483704	-50.505721
 648	6.4800e-001	-176.597595	-50.598240
 649	6.4900e-001	-177.703857	-50.673625
 650	6.5000e-001	-179.023743	-50.733934
 651	6.5100e-001	-179.801941	-50.798355
 652	6.5200e-001	-181.182861	-50.875111
 653	6.5300e-001	-182.342529	-50.941588
 654	6.5400e-001	-183.738708	-50.998470
 655	6.5500e-001	-184.921265	-51.060149
 656	6.5600e-001	-186.088562	-51.141017
 657	6.5700e-001	-187.324524	-51.201326
 658	6.5800e-001	-188.095093	-51.245872
 659	6.5900e-001	-189.872742	-51.328111
 660	6.6000e-001	-190.933228	-51.378825
 661	6.6100e-001	-191.894531	-51.441875
 662	6.6200e-001	-193.237305	-51.505610
 663	6.6300e-001	-194.305420	-51.567289
 664	6.6400e-001	-195.419312	-51.627598
 665	6.6500e-001	-196.899414	-51.666662
 666	6.6600e-001	-197.929382	-51.741362
 667	6.6700e-001	-199.325562	-51.790020
 668	6.6800e-001	-200.401306	-51.852385
 669	6.6900e-001	-201.553345	-51.920917
 670	6.7000e-001	-202.896118	-51.951757
 671	6.7100e-001	-203.926086	-52.017548
 672	6.7200e-001	-205.390930	-52.089507
 673	6.7300e-001	-206.161499	-52.141592
 674	6.7400e-001	-207.466125	-52.189565
 675	6.7500e-001	-208.717346	-52.258782
 676	6.7600e-001	-209.823608	-52.306755
 677	6.7700e-001	-211.151123	-52.358840
 678	6.7800e-001	-212.547302	-52.399959
 679	6.7900e-001	-213.455200	-52.465751
 680	6.8000e-001	-215.019226	-52.504129
 681	6.8100e-001	-215.919495	-52.553472
 682	6.8200e-001	-217.262268	-52.623375
 683	6.8300e-001	-218.338013	-52.676145
 684	6.8400e-001	-219.551086	-52.710412
 685	6.8500e-001	-220.581055	-52.748790
 686	6.8600e-001	-222.000122	-52.822805
 687	6.8700e-001	-222.923279	-52.871463
 688	6.8800e-001	-224.334717	-52.915324
 689	6.8900e-001	-225.799561	-52.963297
 690	6.9000e-001	-226.951599	-53.013325
 691	6.9100e-001	-227.958679	-53.070207
 692	6.9200e-001	-229.072571	-53.125719
 693	6.9300e-001	-230.201721	-53.170950
 694	6.9400e-001	-231.582642	-53.222350
 695	6.9500e-001	-232.757568	-53.247021
 696	6.9600e-001	-233.932495	-53.315554
 697	6.9700e-001	-235.084534	-53.371065
 698	6.9800e-001	-236.404419	-53.414926
 699	6.9900e-001	-237.556458	-53.443024
 700	7.0000e-001	-238.761902	-53.511557
 701	7.0100e-001	-239.944458	-53.543082
 702	7.0200e-001	-241.165161	-53.596537
 703	7.0300e-001	-242.492676	-53.641083
 704	7.0400e-001	-243.644714	-53.699336
 705	7.0500e-001	-244.911194	-53.728120
 706	7.0600e-001	-245.758057	-53.780204
 707	7.0700e-001	-246.994019	-53.845310
 708	7.0800e-001	-248.222351	-53.862443
 709	7.0900e-001	-249.534607	-53.923437
 710	7.1000e-001	-250.724792	-53.987858
 711	7.1100e-001	-252.098083	-54.009788
 712	7.1200e-001	-253.128052	-54.052964
 713	7.1300e-001	-254.180908	-54.111216
 714	7.1400e-001	-255.638123	-54.152336
 715	7.1500e-001	-257.011414	-54.187973
 716	7.1600e-001	-257.858276	-54.223610
 717	7.1700e-001	-259.178162	-54.284604
 718	7.1800e-001	-260.528564	-54.314758
 719	7.1900e-001	-261.497498	-54.369584
 720	7.2000e-001	-263.053894	-54.409333
 721	7.2100e-001	-264.099121	-54.442914
 722	7.2200e-001	-265.243530	-54.497740
 723	7.2300e-001	-266.418457	-54.547768
 724	7.2400e-001	-267.684937	-54.588888
 725	7.2500e-001	-268.699646	-54.616986
 726	7.2600e-001	-270.202637	-54.660847
 727	7.2700e-001	-271.133423	-54.721156
 728	7.2800e-001	-272.476196	-54.744457
 729	7.2900e-001	-273.895264	-54.765702
 730	7.3000e-001	-274.833679	-54.837661
 731	7.3100e-001	-276.199341	-54.874669
 732	7.3200e-001	-277.099609	-54.907564
 733	7.3300e-001	-278.182983	-54.965131
 734	7.3400e-001	-279.663086	-55.003510
 735	7.3500e-001	-281.005859	-55.051482
 736	7.3600e-001	-282.272339	-55.083007
 737	7.3700e-001	-283.081055	-55.132351
 738	7.3800e-001	-284.210205	-55.162505
 739	7.3900e-001	-285.758972	-55.196086
 740	7.4000e-001	-287.078857	-55.240632
 741	7.4100e-001	-288.154602	-55.270786
 742	7.4200e-001	-289.024353	-55.329039
 743	7.4300e-001	-290.618896	-55.364676
 744	7.4400e-001	-291.618347	-55.413334
 745	7.4500e-001	-292.854309	-55.441432
 746	7.4600e-001	-294.281006	-55.480496
 747	7.4700e-001	-295.341492	-55.530525
 748	7.4800e-001	-296.020508	-55.571644
 749	7.4900e-001	-297.637939	-55.590833
 750	7.5000e-001	-298.553467	-55.668275
 751	7.5100e-001	-300.041199	-55.699115
 752	7.5200e-001	-298.912048	-55.664848
 753	7.5300e-001	-297.698975	-55.631267
 754	7.5400e-001	-296.310425	-55.611393
 755	7.5500e-001	-295.326233	-55.595631
 756	7.5600e-001	-294.067383	-55.547658
 757	7.5700e-001	-292.953491	-55.539434
 758	7.5800e-001	-291.625977	-55.493517
 759	7.5900e-001	-290.458679	-55.459936
 760	7.6000e-001	-289.169312	-55.448286
 761	7.6100e-001	-288.192749	-55.411278
 762	7.6200e-001	-286.827087	-55.390718
 763	7.6300e-001	-285.720825	-55.346858
 764	7.6400e-001	-284.492493	-55.333836
 765	7.6500e-001	-283.172607	-55.315333
 766	7.6600e-001	-282.173157	-55.261192
 767	7.6700e-001	-281.028748	-55.234464
 768	7.6800e-001	-279.479980	-55.210478
 769	7.6900e-001	-278.381348	-55.167988
 770	7.7000e-001	-277.328491	-55.128239
 771	7.7100e-001	-276.084900	-55.114532
 772	7.7200e-001	-274.848938	-55.079581
 773	7.7300e-001	-273.689270	-55.048741
 774	7.7400e-001	-272.239685	-55.004195
 775	7.7500e-001	-271.194458	-54.991174
 776	7.7600e-001	-270.072937	-54.938404
 777	7.7700e-001	-268.867493	-54.915788
 778	7.7800e-001	-267.570496	-54.896599
 779	7.7900e-001	-266.479492	-54.859591
 780	7.8000e-001	-265.296936	-54.823954
 781	7.8100e-001	-263.977051	-54.787632
 782	7.8200e-001	-262.786865	-54.759534
 783	7.8300e-001	-261.695862	-54.719100
 784	7.8400e-001	-260.383606	-54.690316
 785	7.8500e-001	-259.094238	-54.647826
 786	7.8600e-001	-258.026123	-54.631378
 787	7.8700e-001	-256.942749	-54.589573
 788	7.8800e-001	-255.493164	-54.560104
 789	7.8900e-001	-254.188538	-54.534062
 790	7.9000e-001	-253.097534	-54.494313
 791	7.9100e-001	-252.075195	-54.466215
 792	7.9200e-001	-250.999451	-54.424410
 793	7.9300e-001	-249.458313	-54.380549
 794	7.9400e-001	-248.397827	-54.364787
 795	7.9500e-001	-247.306824	-54.336003
 796	7.9600e-001	-245.803833	-54.287345
 797	7.9700e-001	-244.750977	-54.258561
 798	7.9800e-001	-243.743896	-54.216756
 799	7.9900e-001	-242.462158	-54.183861
 800	8.0000e-001	-240.989685	-54.138629
 801	8.0100e-001	-240.219116	-54.111216
 802	8.0200e-001	-238.784790	-54.076265
 803	8.0300e-001	-237.510681	-54.021439
 804	8.0400e-001	-236.450195	-53.997452
 805	8.0500e-001	-235.321045	-53.983061
 806	8.0600e-001	-233.894348	-53.930976
 807	8.0700e-001	-232.810974	-53.879576
 808	8.0800e-001	-231.483459	-53.856275
 809	8.0900e-001	-230.300903	-53.828862
 810	8.1000e-001	-229.393005	-53.772666
 811	8.1100e-001	-227.996826	-53.746623
 812	8.1200e-001	-226.715088	-53.716469
 813	8.1300e-001	-225.585938	-53.678776
 814	8.1400e-001	-224.502563	-53.636971
 815	8.1500e-001	-223.175049	-53.606817
 816	8.1600e-001	-222.030640	-53.557474
 817	8.1700e-001	-220.619202	-53.514298
 818	8.1800e-001	-219.657898	-53.481403
 819	8.1900e-001	-218.376160	-53.443024
 820	8.2000e-001	-217.033386	-53.403275
 821	8.2100e-001	-216.003418	-53.366268
 822	8.2200e-001	-214.492798	-53.323092
 823	8.2300e-001	-213.371277	-53.291567
 824	8.2400e-001	-212.448120	-53.246336
 825	8.2500e-001	-211.242676	-53.205216
 826	8.2600e-001	-210.060120	-53.173692
 827	8.2700e-001	-208.877563	-53.126404
 828	8.2800e-001	-207.687378	-53.107215
 829	8.2900e-001	-206.443787	-53.052389
 830	8.3000e-001	-205.505371	-53.024291
 831	8.3100e-001	-204.338074	-52.985227
 832	8.3200e-001	-202.743530	-52.938625
 833	8.3300e-001	-201.416016	-52.893394
 834	8.3400e-001	-200.584412	-52.853645
 835	8.3500e-001	-199.150085	-52.820064
 836	8.3600e-001	-198.020935	-52.767979
 837	8.3700e-001	-196.777344	-52.727545
 838	8.3800e-001	-195.724487	-52.695335
 839	8.3900e-001	-194.351196	-52.659698
 840	8.4000e-001	-193.092346	-52.612410
 841	8.4100e-001	-192.291260	-52.571976
 842	8.4200e-001	-190.658569	-52.530857
 843	8.4300e-001	-189.712524	-52.473975
 844	8.4400e-001	-188.461304	-52.442450
 845	8.4500e-001	-187.240601	-52.414351
 846	8.4600e-001	-186.195374	-52.372546
 847	8.4700e-001	-184.936523	-52.310182
 848	8.4800e-001	-183.441162	-52.264265
 849	8.4900e-001	-182.373047	-52.225202
 850	8.5000e-001	-181.159973	-52.175173
 851	8.5100e-001	-180.007935	-52.157354
 852	8.5200e-001	-178.939819	-52.086081
 853	8.5300e-001	-177.650452	-52.036052
 854	8.5400e-001	-176.391602	-52.012065
 855	8.5500e-001	-175.094604	-51.976429
 856	8.5600e-001	-174.308777	-51.922973
 857	8.5700e-001	-172.790527	-51.872259
 858	8.5800e-001	-171.752930	-51.840734
 859	8.5900e-001	-170.387268	-51.806468
 860	8.6000e-001	-169.227600	-51.736565
 861	8.6100e-001	-168.060303	-51.687907
 862	8.6200e-001	-166.511536	-51.671459
 863	8.6300e-001	-165.420532	-51.611150
 864	8.6400e-001	-164.405823	-51.561122
 865	8.6500e-001	-163.284302	-51.515890
 866	8.6600e-001	-162.178040	-51.471344
 867	8.6700e-001	-161.056519	-51.416518
 868	8.6800e-001	-159.599304	-51.379510
 869	8.6900e-001	-158.470154	-51.341817
 870	8.7000e-001	-157.432556	-51.266432
 871	8.7100e-001	-156.257629	-51.225998
 872	8.7200e-001	-154.747009	-51.195843
 873	8.7300e-001	-153.610229	-51.102639
 874	8.7400e-001	-152.587891	-51.084135
 875	8.7500e-001	-151.199341	-51.025197
 876	8.7600e-001	-150.253296	-51.002582
 877	8.7700e-001	-148.941040	-50.955979
 878	8.7800e-001	-147.750854	-50.905951
 879	8.7900e-001	-146.362305	-50.852495
 880	8.8000e-001	-145.080566	-50.796299
 881	8.8100e-001	-144.104004	-50.747641
 882	8.8200e-001	-142.822266	-50.704465
 883	8.8300e-001	-141.578674	-50.638674
 884	8.8400e-001	-140.403748	-50.598925
 885	8.8500e-001	-139.213562	-50.539302
 886	8.8600e-001	-138.122559	-50.499553
 887	8.8700e-001	-136.886597	-50.445412
 888	8.8800e-001	-135.826111	-50.386474
 889	8.8900e-001	-134.231567	-50.341243
 890	8.9000e-001	-133.323669	-50.273396
 891	8.9100e-001	-132.019043	-50.235703
 892	8.9200e-001	-130.706787	-50.184303
 893	8.9300e-001	-129.653931	-50.143184
 894	8.9400e-001	-128.540039	-50.080819
 895	8.9500e-001	-126.998901	-50.024623
 896	8.9600e-001	-126.121521	-49.973909
 897	8.9700e-001	-124.839783	-49.917027
 898	8.9800e-001	-123.603821	-49.852606
 899	8.9900e-001	-122.352600	-49.812857
 900	9.0000e-001	-121.192932	-49.740213
 901	9.0100e-001	-120.002747	-49.676477
 902	9.0200e-001	-118.804932	-49.643582
 903	9.0300e-001	-117.538452	-49.599036
 904	9.0400e-001	-116.424561	-49.520909
 905	9.0500e-001	-115.432739	-49.462656
 906	9.0600e-001	-114.128113	-49.422222
 907	9.0700e-001	-112.930298	-49.360543
 908	9.0800e-001	-111.419678	-49.296807
 909	9.0900e-001	-110.115051	-49.244037
 910	9.1000e-001	-109.237671	-49.184414
 911	9.1100e-001	-107.925415	-49.114511
 912	9.1200e-001	-106.544495	-49.063797
 913	9.1300e-001	-105.773926	-49.012397
 914	9.1400e-001	-104.240417	-48.945235
 915	9.1500e-001	-103.233337	-48.872591
 916	9.1600e-001	-101.814270	-48.826674
 917	9.1700e-001	-100.952148	-48.764995
 918	9.1800e-001	-99.571228	-48.704001
 919	9.1900e-001	-98.503113	-48.645063
 920	9.2000e-001	-97.496033	-48.603258
 921	9.2100e-001	-96.138000	-48.526502
 922	9.2200e-001	-94.902039	-48.458655
 923	9.2300e-001	-93.765259	-48.390807
 924	9.2400e-001	-92.239380	-48.316792
 925	9.2500e-001	-91.171265	-48.259910
 926	9.2600e-001	-89.965820	-48.200287
 927	9.2700e-001	-88.775635	-48.132440
 928	9.2800e-001	-87.562561	-48.053627
 929	9.2900e-001	-86.761475	-48.002228
 930	9.3000e-001	-85.029602	-47.914506
 931	9.3100e-001	-84.175110	-47.848030
 932	9.3200e-001	-82.931519	-47.771959
 933	9.3300e-001	-81.588745	-47.708224
 934	9.3400e-001	-80.497742	-47.643803
 935	9.3500e-001	-79.162598	-47.572529
 936	9.3600e-001	-78.308105	-47.501255
 937	9.3700e-001	-76.637268	-47.437520
 938	9.3800e-001	-75.416565	-47.359393
 939	9.3900e-001	-74.333191	-47.290175
 940	9.4000e-001	-72.807312	-47.208622
 941	9.4100e-001	-72.052002	-47.152425
 942	9.4200e-001	-71.006775	-47.056479
 943	9.4300e-001	-69.488525	-46.979723
 944	9.4400e-001	-68.634033	-46.903652
 945	9.4500e-001	-67.077637	-46.818672
 946	9.4600e-001	-65.979004	-46.747398
 947	9.4700e-001	-64.674377	-46.653508
 948	9.4800e-001	-63.728333	-46.569213
 949	9.4900e-001	-62.500000	-46.492457
 950	9.5000e-001	-61.058044	-46.404735
 951	9.5100e-001	-59.646606	-46.311531
 952	9.5200e-001	-58.708191	-46.230663
 953	9.5300e-001	-57.632446	-46.156648
 954	9.5400e-001	-56.388855	-46.051107
 955	9.5500e-001	-55.068970	-45.956533
 956	9.5600e-001	-54.168701	-45.892112
 957	9.5700e-001	-52.825928	-45.779719
 958	9.5800e-001	-51.689148	-45.683088
 959	9.5900e-001	-50.521851	-45.584401
 960	9.6000e-001	-49.079895	-45.470637
 961	9.6100e-001	-47.950745	-45.391139
 962	9.6200e-001	-46.981812	-45.269151
 963	9.6300e-001	-45.776367	-45.169779
 964	9.6400e-001	-44.242859	-45.062869
 965	9.6500e-001	-43.319702	-44.937454
 966	9.6600e-001	-41.831970	-44.840823
 967	9.6700e-001	-41.000366	-44.710612
 968	9.6800e-001	-39.627075	-44.585197
 969	9.6900e-001	-38.543701	-44.469377
 970	9.7000e-001	-37.132263	-44.343277
 971	9.7100e-001	-36.178589	-44.217863
 972	9.7200e-001	-34.820557	-44.060923
 973	9.7300e-001	-33.454895	-43.944418
 974	9.7400e-001	-32.531738	-43.787479
 975	9.7500e-001	-31.074524	-43.625056
 976	9.7600e-001	-30.006409	-43.476341
 977	9.7700e-001	-28.678894	-43.311178
 978	9.7800e-001	-27.488708	-43.136420
 979	9.7900e-001	-26.229858	-42.961662
 980	9.8000e-001	-25.238037	-42.782792
 981	9.8100e-001	-24.192810	-42.586789
 982	9.8200e-001	-22.987366	-42.380506
 983	9.8300e-001	-21.644592	-42.179020
 984	9.8400e-001	-20.736694	-41.973423
 985	9.8500e-001	-19.447327	-41.735615
 986	9.8600e-001	-17.974854	-41.507402
 987	9.8700e-001	-16.998291	-41.244922
 988	9.8800e-001	-15.846252	-40.991352
 989	9.8900e-001	-14.328003	-40.718593
 990	9.9000e-001	-13.145447	-40.438295
 991	9.9100e-001	-11.756897	-40.153199
 992	9.9200e-001	-10.627747	-39.824243
 993	9.9300e-001	-9.475708	-39.519274
 994	9.9400e-001	-8.110046	-39.184835
 995	9.9500e-001	-7.156372	-38.833263
 996	9.9600e-001	-6.126404	-38.478950
 997	9.9700e-001	-4.981995	-38.108189
 998	9.9800e-001	-3.326416	-37.729890
 999	9.9900e-001	-2.326965	-37.337198
1000	1.0000e+000	-1.243591	-36.933542
1001	1.0010e+000	0.007629	-36.518235
1002	1.0020e+000	0.907898	-36.116634
1003	1.0030e+000	2.365112	-35.724628
1004	1.0040e+000	3.463745	-35.303153
1005	1.0050e+000	4.631042	-34.883049
1006	1.0060e+000	6.004333	-34.476651
1007	1.0070e+000	7.087708	-34.078477
1008	1.0080e+000	8.148193	-33.687157
1009	1.0090e+000	9.452820	-33.312284
1010	1.0100e+000	10.711670	-32.959341
1011	1.0110e+000	12.001038	-32.602287
1012	1.0120e+000	13.015747	-32.251401
1013	1.0130e+000	14.297485	-31.921759
1014	1.0140e+000	15.579224	-31.590062
1015	1.0150e+000	16.990662	-31.281666
1016	1.0160e+000	17.959595	-30.950654
1017	1.0170e+000	18.981934	-30.667614
1018	1.0180e+000	20.278931	-30.350309
1019	1.0190e+000	21.591187	-30.089200
1020	1.0200e+000	22.789001	-29.789713
1021	1.0210e+000	24.009705	-29.508044
1022	1.0220e+000	25.108337	-29.177717
1023	1.0230e+000	26.290894	-28.851503
1024	1.0240e+000	27.671814	-28.480742
1025	1.0250e+000	28.709412	-28.092848
1026	1.0260e+000	29.571533	-27.656981
1027	1.0270e+000	31.021118	-27.205352
1028	1.0280e+000	32.348633	-26.718086
1029	1.0290e+000	33.538818	-26.197924
1030	1.0300e+000	34.645081	-25.655832
1031	1.0310e+000	36.071777	-25.066452
1032	1.0320e+000	37.033081	-24.436638
1033	1.0330e+000	38.291931	-23.781467
1034	1.0340e+000	39.497375	-23.096828
1035	1.0350e+000	40.565491	-22.366271
1036	1.0360e+000	41.915894	-21.598021
1037	1.0370e+000	42.922974	-20.798247
1038	1.0380e+000	44.197083	-19.969689
1039	1.0390e+000	45.516968	-19.104809
1040	1.0400e+000	46.798706	-18.220739
1041	1.0410e+000	48.057556	-17.303089
1042	1.0420e+000	49.018860	-16.340892
1043	1.0430e+000	50.483704	-15.354710
1044	1.0440e+000	51.452637	-14.380177
1045	1.0450e+000	52.726746	-13.350819
1046	1.0460e+000	54.214478	-12.315293
1047	1.0470e+000	54.931641	-11.270857
1048	1.0480e+000	55.984497	-10.221624
1049	1.0490e+000	57.174683	-9.147720
1050	1.0500e+000	58.723450	-8.064906
1051	1.0510e+000	59.814453	-7.025953
1052	1.0520e+000	61.050415	-5.995910
1053	1.0530e+000	62.156677	-4.950789
1054	1.0540e+000	63.621521	-3.956382
1055	1.0550e+000	64.483643	-2.983220
1056	1.0560e+000	65.780640	-2.040213
1057	1.0570e+000	67.192078	-1.119821
1058	1.0580e+000	68.382263	-0.231640
1059	1.0590e+000	69.511414	0.617478
1060	1.0600e+000	70.541382	1.428903
1061	1.0610e+000	72.013855	2.204691
1062	1.0620e+000	72.853088	2.932506
1063	1.0630e+000	74.356079	3.643188
1064	1.0640e+000	75.790405	4.264778
1065	1.0650e+000	76.408386	4.948047
1066	1.0660e+000	78.125000	5.544966
1067	1.0670e+000	79.078674	6.108303
1068	1.0680e+000	80.345154	6.668214
1069	1.0690e+000	81.459045	7.191117
1070	1.0700e+000	82.939148	7.707166
1071	1.0710e+000	84.030151	8.189635
1072	1.0720e+000	85.197449	8.678957
1073	1.0730e+000	86.425781	9.153202
1074	1.0740e+000	87.509155	9.614426
1075	1.0750e+000	88.768005	10.078391
1076	1.0760e+000	89.950562	10.541671
1077	1.0770e+000	91.033936	11.002895
1078	1.0780e+000	92.338562	11.471657
1079	1.0790e+000	93.521118	11.936993
1080	1.0800e+000	94.696045	12.430427
1081	1.0810e+000	95.970154	12.921805
1082	1.0820e+000	97.000122	13.404274
1083	1.0830e+000	98.236084	13.919639
1084	1.0840e+000	99.464417	14.424038
1085	1.0850e+000	100.906372	14.960648
1086	1.0860e+000	102.073669	15.509593
1087	1.0870e+000	103.073120	16.051000
1088	1.0880e+000	104.217529	16.611596
1089	1.0890e+000	105.468750	17.179045
1090	1.0900e+000	106.727600	17.782816
1091	1.0910e+000	107.711792	18.370825
1092	1.0920e+000	109.176636	18.979394
1093	1.0930e+000	110.435486	19.602355
1094	1.0940e+000	111.808777	20.226686
1095	1.0950e+000	112.640381	20.863353
1096	1.0960e+000	113.670349	21.522636
1097	1.0970e+000	115.188599	22.172324
1098	1.0980e+000	116.157532	22.823383
1099	1.0990e+000	117.347717	23.495001
1100	1.1000e+000	118.820190	24.187865
1101	1.1010e+000	119.621277	24.847148
1102	1.1020e+000	120.895386	25.557830
1103	1.1030e+000	122.367859	26.238358
1104	1.1040e+000	123.779297	26.929851
1105	1.1050e+000	124.626160	27.648072
1106	1.1060e+000	125.907898	28.342306
1107	1.1070e+000	126.960754	29.061897
1108	1.1080e+000	128.105164	29.753391
1109	1.1090e+000	129.447937	30.453793
1110	1.1100e+000	130.790710	31.155566
1111	1.1110e+000	131.988525	31.847744
1112	1.1120e+000	132.972717	32.538552
1113	1.1130e+000	134.208679	33.224562
1114	1.1140e+000	135.276794	33.915370
1115	1.1150e+000	136.772156	34.594527
1116	1.1160e+000	137.962341	35.246271
1117	1.1170e+000	138.984680	35.918575
1118	1.1180e+000	140.373230	36.565522
1119	1.1190e+000	141.273499	37.200819
1120	1.1200e+000	142.791748	37.847080
1121	1.1210e+000	143.714905	38.458390
1122	1.1220e+000	145.141602	39.069015
1123	1.1230e+000	146.354675	39.667304
1124	1.1240e+000	147.499084	40.234753
1125	1.1250e+000	148.536682	40.799461
1126	1.1260e+000	149.826050	41.348406
1127	1.1270e+000	151.069641	41.875421
1128	1.1280e+000	152.320862	42.374338
1129	1.1290e+000	153.472900	42.860234
1130	1.1300e+000	154.800415	43.347500
1131	1.1310e+000	155.883789	43.808038
1132	1.1320e+000	157.051086	44.231569
1133	1.1330e+000	158.317566	44.664009
1134	1.1340e+000	159.484863	45.067666
1135	1.1350e+000	160.804749	45.459672
1136	1.1360e+000	162.094116	45.833859
1137	1.1370e+000	163.070679	46.182690
1138	1.1380e+000	164.161682	46.498625
1139	1.1390e+000	165.428162	46.804965
1140	1.1400e+000	166.618347	47.122956
1141	1.1410e+000	167.823792	47.405310
1142	1.1420e+000	169.242859	47.667789
1143	1.1430e+000	170.341492	47.915877
1144	1.1440e+000	171.707153	48.162594
1145	1.1450e+000	172.698975	48.390807
1146	1.1460e+000	174.110413	48.593664
1147	1.1470e+000	174.995422	48.807485
1148	1.1480e+000	176.498413	49.008971
1149	1.1490e+000	177.757263	49.181673
1150	1.1500e+000	178.878784	49.362598
1151	1.1510e+000	180.320740	49.557231
1152	1.1520e+000	181.068420	49.689499
1153	1.1530e+000	182.350159	49.838899
1154	1.1540e+000	183.380127	49.988986
1155	1.1550e+000	184.600830	50.127421
1156	1.1560e+000	185.989380	50.250095
1157	1.1570e+000	187.080383	50.374824
1158	1.1580e+000	188.514709	50.502980
1159	1.1590e+000	189.552307	50.620170
1160	1.1600e+000	190.666199	50.704465
1161	1.1610e+000	191.978455	50.840845
1162	1.1620e+000	193.061829	50.931308
1163	1.1630e+000	194.175720	51.029309
1164	1.1640e+000	195.701599	51.122513
1165	1.1650e+000	196.807861	51.215718
1166	1.1660e+000	198.272705	51.317146
1167	1.1670e+000	199.462891	51.397329
1168	1.1680e+000	200.271606	51.476141
1169	1.1690e+000	201.629639	51.553583
1170	1.1700e+000	202.941895	51.633081
1171	1.1710e+000	203.933716	51.718061
1172	1.1720e+000	205.078125	51.794817
1173	1.1730e+000	206.291199	51.862665
1174	1.1740e+000	207.542419	51.942848
1175	1.1750e+000	208.518982	52.014807
1176	1.1760e+000	210.182190	52.071003
1177	1.1770e+000	210.876465	52.143648
1178	1.1780e+000	212.379456	52.199159
1179	1.1790e+000	213.668823	52.273860
1180	1.1800e+000	214.874268	52.339651
1181	1.1810e+000	215.835571	52.414351
1182	1.1820e+000	217.193604	52.464380
1183	1.1830e+000	218.467712	52.518521
1184	1.1840e+000	219.551086	52.584312
1185	1.1850e+000	220.672607	52.645991
1186	1.1860e+000	222.007751	52.707670
1187	1.1870e+000	223.220825	52.755643
1188	1.1880e+000	224.418640	52.820064
1189	1.1890e+000	225.624084	52.870093
1190	1.1900e+000	226.837158	52.916009
1191	1.1910e+000	228.096008	52.987283
1192	1.1920e+000	229.118347	53.027032
1193	1.1930e+000	230.255127	53.088026
1194	1.1940e+000	231.475830	53.144908
1195	1.1950e+000	232.467651	53.190825
1196	1.1960e+000	233.924866	53.250448
1197	1.1970e+000	235.000610	53.294309
1198	1.1980e+000	236.396790	53.342282
1199	1.1990e+000	237.625122	53.410814
1200	1.2000e+000	238.914490	53.454675
1201	1.2010e+000	239.990234	53.497850
1202	1.2020e+000	241.172791	53.551306
1203	1.2030e+000	242.469788	53.601334
1204	1.2040e+000	243.492126	53.643139
1205	1.2050e+000	244.560242	53.690427
1206	1.2060e+000	245.735168	53.744567
1207	1.2070e+000	247.154236	53.811044
1208	1.2080e+000	248.435974	53.835030
1209	1.2090e+000	249.702454	53.887800
1210	1.2100e+000	250.724792	53.937829
1211	1.2110e+000	252.349854	53.971410
1212	1.2120e+000	253.265381	54.022124
1213	1.2130e+000	254.280090	54.059132
1214	1.2140e+000	255.546570	54.116014
1215	1.2150e+000	256.835938	54.173581
1216	1.2160e+000	258.026123	54.214700
1217	1.2170e+000	259.101868	54.261303
1218	1.2180e+000	260.437012	54.299681
1219	1.2190e+000	261.665344	54.331891
1220	1.2200e+000	262.741089	54.383290
1221	1.2210e+000	263.908386	54.419613
1222	1.2220e+000	265.403748	54.488145
1223	1.2230e+000	266.387939	54.509390
1224	1.2240e+000	267.524719	54.560104
1225	1.2250e+000	268.363953	54.590259
1226	1.2260e+000	270.004272	54.627266
1227	1.2270e+000	271.049500	54.681407
1228	1.2280e+000	272.270203	54.719785
1229	1.2290e+000	273.376465	54.759534
1230	1.2300e+000	274.993896	54.809563
1231	1.2310e+000	275.840759	54.860277
1232	1.2320e+000	277.191162	54.894543
1233	1.2330e+000	278.404236	54.936348
1234	1.2340e+000	279.823303	54.980894
1235	1.2350e+000	280.639648	55.014475
1236	1.2360e+000	281.883240	55.063818
1237	1.2370e+000	283.447266	55.090546
1238	1.2380e+000	284.370422	55.128239
1239	1.2390e+000	285.247803	55.186491
1240	1.2400e+000	286.720276	55.217331
1241	1.2410e+000	287.872314	55.259136
1242	1.2420e+000	289.016724	55.306423
1243	1.2430e+000	290.321350	55.335892
1244	1.2440e+000	291.435242	55.370159
1245	1.2450e+000	292.800903	55.407166
1246	1.2460e+000	294.250488	55.448286
1247	1.2470e+000	295.005798	55.502426
1248	1.2480e+000	296.249390	55.531210
1249	1.2490e+000	297.767639	55.570274
1250	1.2500e+000	298.828125	55.614820
1251	1.2510e+000	300.003052	55.652513
1252	1.2520e+000	298.721313	55.625785
1253	1.2530e+000	297.569275	55.616190
1254	1.2540e+000	296.493530	55.599057
1255	1.2550e+000	295.066833	55.571644
1256	1.2560e+000	294.204712	55.544916
1257	1.2570e+000	292.694092	55.522986
1258	1.2580e+000	291.542053	55.485979
1259	1.2590e+000	290.351868	55.455139
1260	1.2600e+000	289.009094	55.444174
1261	1.2610e+000	288.002014	55.405795
1262	1.2620e+000	286.468506	55.387977
1263	1.2630e+000	285.720825	55.351655
1264	1.2640e+000	284.362793	55.325612
1265	1.2650e+000	283.226013	55.283808
1266	1.2660e+000	281.883240	55.267360
1267	1.2670e+000	280.860901	55.239261
1268	1.2680e+000	279.342651	55.203625
1269	1.2690e+000	278.312683	55.186491
1270	1.2700e+000	276.969910	55.148113
1271	1.2710e+000	275.871277	55.135092
1272	1.2720e+000	274.772644	55.102882
1273	1.2730e+000	273.590088	55.076154
1274	1.2740e+000	272.384644	55.037776
1275	1.2750e+000	271.232605	54.998027
1276	1.2760e+000	270.072937	54.989803
1277	1.2770e+000	268.760681	54.959649
1278	1.2780e+000	267.517090	54.924012
1279	1.2790e+000	266.242981	54.899340
1280	1.2800e+000	265.197754	54.863703
1281	1.2810e+000	263.908386	54.831493
1282	1.2820e+000	262.969971	54.764331
1283	1.2830e+000	261.390686	54.778723
1284	1.2840e+000	260.307312	54.745827
1285	1.2850e+000	259.178162	54.692372
1286	1.2860e+000	257.888794	54.689631
1287	1.2870e+000	256.645203	54.640973
1288	1.2880e+000	255.302429	54.605336
1289	1.2890e+000	254.409790	54.577923
1290	1.2900e+000	253.204346	54.562846
1291	1.2910e+000	252.136230	54.521041
1292	1.2920e+000	250.923157	54.490201
1293	1.2930e+000	249.450684	54.462103
1294	1.2940e+000	248.466492	54.418927
1295	1.2950e+000	247.039795	54.368899
1296	1.2960e+000	245.986938	54.348339
1297	1.2970e+000	244.728088	54.307219
1298	1.2980e+000	243.217468	54.270897
1299	1.2990e+000	242.416382	54.264729
1300	1.3000e+000	241.172791	54.209903
1301	1.3010e+000	239.944458	54.190029
1302	1.3020e+000	238.777161	54.141371
1303	1.3030e+000	237.503052	54.126979
1304	1.3040e+000	236.267090	54.100251
1305	1.3050e+000	235.145569	54.060502
1306	1.3060e+000	233.818054	54.023495
1307	1.3070e+000	232.925415	53.984431
1308	1.3080e+000	231.498718	53.943997
1309	1.3090e+000	230.537415	53.905619
1310	1.3100e+000	229.278564	53.884374
1311	1.3110e+000	227.981567	53.840513
1312	1.3120e+000	226.737976	53.811044
1313	1.3130e+000	225.585938	53.766498
1314	1.3140e+000	224.449158	53.759645
1315	1.3150e+000	223.358154	53.692483
1316	1.3160e+000	222.076416	53.660958
1317	1.3170e+000	220.809937	53.630803
1318	1.3180e+000	219.795227	53.602020
1319	1.3190e+000	218.727112	53.558159
1320	1.3200e+000	217.407227	53.515669
1321	1.3210e+000	216.087341	53.493053
1322	1.3220e+000	214.782715	53.436856
1323	1.3230e+000	213.645935	53.394366
1324	1.3240e+000	212.249756	53.364212
1325	1.3250e+000	211.441040	53.329260
1326	1.3260e+000	210.136414	53.319666
1327	1.3270e+000	208.801270	53.253875
1328	1.3280e+000	207.389832	53.221664
1329	1.3290e+000	206.008911	53.185342
1330	1.3300e+000	205.169678	53.165468
1331	1.3310e+000	203.865051	53.116124
1332	1.3320e+000	202.690125	53.074319
1333	1.3330e+000	201.873779	53.044850
1334	1.3340e+000	200.370789	53.003046
1335	1.3350e+000	199.310303	52.958499
1336	1.3360e+000	198.028564	52.913268
1337	1.3370e+000	196.632385	52.879687
1338	1.3380e+000	195.426941	52.827602
1339	1.3390e+000	194.419861	52.796077
1340	1.3400e+000	193.069458	52.748790
1341	1.3410e+000	191.864014	52.734398
1342	1.3420e+000	190.643311	52.685740
1343	1.3430e+000	189.773560	52.619949
1344	1.3440e+000	188.446045	52.591851
1345	1.3450e+000	187.232971	52.569920
1346	1.3460e+000	186.126709	52.510297
1347	1.3470e+000	184.944153	52.473975
1348	1.3480e+000	183.494568	52.435596
1349	1.3490e+000	182.388306	52.395162
1350	1.3500e+000	181.213379	52.342392
1351	1.3510e+000	179.779053	52.298531
1352	1.3520e+000	178.916931	52.264950
1353	1.3530e+000	177.589417	52.222460
1354	1.3540e+000	176.071167	52.182711
1355	1.3550e+000	175.064087	52.125829
1356	1.3560e+000	173.896790	52.083339
1357	1.3570e+000	172.584534	52.049073
1358	1.3580e+000	171.775818	52.003842
1359	1.3590e+000	170.082092	51.957925
1360	1.3600e+000	168.846130	51.929141
1361	1.3610e+000	168.060303	51.857182
1362	1.3620e+000	166.557312	51.832510
1363	1.3630e+000	165.718079	51.790705
1364	1.3640e+000	164.192200	51.739991
1365	1.3650e+000	163.215637	51.694760
1366	1.3660e+000	161.735535	51.633081
1367	1.3670e+000	160.636902	51.600185
1368	1.3680e+000	159.713745	51.557695
1369	1.3690e+000	158.332825	51.517946
1370	1.3700e+000	157.157898	51.464491
1371	1.3710e+000	155.899048	51.410350
1372	1.3720e+000	154.739380	51.360321
1373	1.3730e+000	153.610229	51.336335
1374	1.3740e+000	152.420044	51.277397
1375	1.3750e+000	151.451111	51.240389
1376	1.3760e+000	149.955750	51.195158
1377	1.3770e+000	148.857117	51.131423
1378	1.3780e+000	147.651672	51.086877
1379	1.3790e+000	146.484375	51.057408
1380	1.3800e+000	145.118713	51.003952
1381	1.3810e+000	143.836975	50.953238
1382	1.3820e+000	142.578125	50.889503
1383	1.3830e+000	141.647339	50.842901
1384	1.3840e+000	140.266418	50.796984
1385	1.3850e+000	138.847351	50.783963
1386	1.3860e+000	137.931824	50.688703
1387	1.3870e+000	136.741638	50.646212
1388	1.3880e+000	135.429382	50.597554
1389	1.3890e+000	134.414673	50.553694
1390	1.3900e+000	133.338928	50.502294
1391	1.3910e+000	131.767273	50.455007
1392	1.3920e+000	130.653381	50.395383
1393	1.3930e+000	129.417419	50.365229
1394	1.3940e+000	128.402710	50.302865
1395	1.3950e+000	127.281189	50.261060
1396	1.3960e+000	126.007080	50.198010
1397	1.3970e+000	124.877930	50.146610
1398	1.3980e+000	123.512268	50.100694
1399	1.3990e+000	122.390747	50.031476
1400	1.4000e+000	121.139526	49.975279
1401	1.4010e+000	120.018005	49.928677
1402	1.4020e+000	118.743896	49.851921
1403	1.4030e+000	117.652893	49.810116
1404	1.4040e+000	116.508484	49.768996
1405	1.4050e+000	115.142822	49.705261
1406	1.4060e+000	113.883972	49.639470
1407	1.4070e+000	112.625122	49.588756
1408	1.4080e+000	111.488342	49.548322
1409	1.4090e+000	110.229492	49.470880
1410	1.4100e+000	109.390259	49.403718
1411	1.4110e+000	107.856750	49.367396
1412	1.4120e+000	106.788635	49.302975
1413	1.4130e+000	105.812073	49.244037
1414	1.4140e+000	104.309082	49.184414
1415	1.4150e+000	102.935791	49.138497
1416	1.4160e+000	102.325439	49.052832
1417	1.4170e+000	100.830078	48.989782
1418	1.4180e+000	99.456787	48.952774
1419	1.4190e+000	98.510742	48.889039
1420	1.4200e+000	97.053528	48.795149
1421	1.4210e+000	95.817566	48.737582
1422	1.4220e+000	94.673157	48.690980
1423	1.4230e+000	93.482971	48.613538
1424	1.4240e+000	92.262268	48.549803
1425	1.4250e+000	91.148376	48.475102
1426	1.4260e+000	89.767456	48.405199
1427	1.4270e+000	88.821411	48.357912
1428	1.4280e+000	87.715149	48.301715
1429	1.4290e+000	86.219788	48.218791
1430	1.4300e+000	85.205078	48.140664
1431	1.4310e+000	83.938599	48.065278
1432	1.4320e+000	82.672119	47.994690
1433	1.4330e+000	81.626892	47.909709
1434	1.4340e+000	80.459595	47.840491
1435	1.4350e+000	78.933716	47.761679
1436	1.4360e+000	77.934265	47.702056
1437	1.4370e+000	76.759338	47.610222
1438	1.4380e+000	75.370789	47.549914
1439	1.4390e+000	74.279785	47.472472
1440	1.4400e+000	73.135376	47.371729
1441	1.4410e+000	72.265625	47.301826
1442	1.4420e+000	70.899963	47.210678
1443	1.4430e+000	69.480896	47.134606
1444	1.4440e+000	68.443298	47.013989
1445	1.4450e+000	67.260742	46.954366
1446	1.4460e+000	65.925598	46.878295
1447	1.4470e+000	64.666748	46.763846
1448	1.4480e+000	63.591003	46.665159
1449	1.4490e+000	62.271118	46.572640
1450	1.4500e+000	61.286926	46.468470
1451	1.4510e+000	59.860229	46.373210
1452	1.4520e+000	58.822632	46.277265
1453	1.4530e+000	57.540894	46.160074
1454	1.4540e+000	56.518555	46.046310
1455	1.4550e+000	55.191040	45.939399
1456	1.4560e+000	53.771973	45.835230
1457	1.4570e+000	52.650452	45.696794
1458	1.4580e+000	51.429749	45.578918
1459	1.4590e+000	50.193787	45.435685
1460	1.4600e+000	49.201965	45.311642
1461	1.4610e+000	47.897339	45.167038
1462	1.4620e+000	46.760559	45.035456
1463	1.4630e+000	45.684814	44.874404
1464	1.4640e+000	44.265747	44.729115
1465	1.4650e+000	42.854309	44.562581
1466	1.4660e+000	42.068481	44.407012
1467	1.4670e+000	40.611267	44.217863
1468	1.4680e+000	39.642334	44.052014
1469	1.4690e+000	38.337708	43.859438
1470	1.4700e+000	37.170410	43.657952
1471	1.4710e+000	35.850525	43.449613
1472	1.4720e+000	34.690857	43.257722
1473	1.4730e+000	33.622742	43.042530
1474	1.4740e+000	32.226563	42.781421
1475	1.4750e+000	31.127930	42.537446
1476	1.4760e+000	30.105591	42.292784
1477	1.4770e+000	28.518677	42.022766
1478	1.4780e+000	27.549744	41.743154
1479	1.4790e+000	26.496887	41.470394
1480	1.4800e+000	25.238037	41.167481
1481	1.4810e+000	23.941040	40.833042
1482	1.4820e+000	22.956848	40.524646
1483	1.4830e+000	21.690369	40.182668
1484	1.4840e+000	20.530701	39.813278
1485	1.4850e+000	19.020081	39.467874
1486	1.4860e+000	17.898560	39.070386
1487	1.4870e+000	16.845703	38.661932
1488	1.4880e+000	15.586853	38.274038
1489	1.4890e+000	14.442444	37.814185
1490	1.4900e+000	13.092041	37.379003
1491	1.4910e+000	11.932373	36.915038
1492	1.4920e+000	10.749817	36.427087
1493	1.4930e+000	9.765625	35.907610
1494	1.4940e+000	8.155823	35.391560
1495	1.4950e+000	7.202148	34.859748
1496	1.4960e+000	6.210327	34.286131
1497	1.4970e+000	4.814148	33.704975
1498	1.4980e+000	3.845215	33.130673
1499	1.4990e+000	2.426147	32.452886
1500	1.5000e+000	1.243591	31.790862
1501	1.5010e+000	0.106812	31.110334
1502	1.5020e+000	-0.991821	30.396911
1503	1.5030e+000	-2.235413	29.697879
1504	1.5040e+000	-3.402710	28.938539
1505	1.5050e+000	-4.501343	28.143562
1506	1.5060e+000	-5.851746	27.351326
1507	1.5070e+000	-6.942749	26.515915
1508	1.5080e+000	-8.346558	25.666111
1509	1.5090e+000	-9.658813	24.800546
1510	1.5100e+000	-10.704041	23.887007
1511	1.5110e+000	-11.940002	22.956336
1512	1.5120e+000	-13.061523	21.996195
1513	1.5130e+000	-14.366150	21.028516
1514	1.5140e+000	-15.289307	20.006697
1515	1.5150e+000	-16.891479	18.977338
1516	1.5160e+000	-17.898560	17.965113
1517	1.5170e+000	-18.997192	16.891208
1518	1.5180e+000	-20.492554	15.790576
1519	1.5190e+000	-21.659851	14.719413
1520	1.5200e+000	-22.850037	13.627005
1521	1.5210e+000	-23.841858	12.537338
1522	1.5220e+000	-25.161743	11.409978
1523	1.5230e+000	-26.237488	10.311402
1524	1.5240e+000	-27.572632	9.208714
1525	1.5250e+000	-28.495789	8.119732
1526	1.5260e+000	-30.029297	7.032121
1527	1.5270e+000	-31.013489	5.980147
1528	1.5280e+000	-32.394409	4.944621
1529	1.5290e+000	-33.340454	3.955697
1530	1.5300e+000	-34.530640	2.981164
1531	1.5310e+000	-36.003113	2.031989
1532	1.5320e+000	-37.139893	1.138325
1533	1.5330e+000	-38.246155	0.312508
1534	1.5340e+000	-39.619446	-0.498917
1535	1.5350e+000	-40.542603	-1.277446
1536	1.5360e+000	-41.938782	-1.975107
1537	1.5370e+000	-43.266296	-2.643984
1538	1.5380e+000	-44.464111	-3.290931
1539	1.5390e+000	-45.623779	-3.896073
1540	1.5400e+000	-46.920776	-4.469691
1541	1.5410e+000	-47.935486	-5.022063
1542	1.5420e+000	-48.904419	-5.567581
1543	1.5430e+000	-50.407410	-6.099394
1544	1.5440e+000	-51.475525	-6.619555
1545	1.5450e+000	-52.719116	-7.117787
1546	1.5460e+000	-53.871155	-7.634522
1547	1.5470e+000	-55.183411	-8.136865
1548	1.5480e+000	-56.167603	-8.639894
1549	1.5490e+000	-57.502747	-9.170336
1550	1.5500e+000	-58.906555	-9.688441
1551	1.5510e+000	-59.928894	-10.218198
1552	1.5520e+000	-60.844421	-10.748639
1553	1.5530e+000	-62.263489	-11.291417
1554	1.5540e+000	-63.713074	-11.860922
1555	1.5550e+000	-64.659119	-12.446190
1556	1.5560e+000	-65.818787	-13.010898
1557	1.5570e+000	-66.917419	-13.614669
1558	1.5580e+000	-68.367004	-14.238315
1559	1.5590e+000	-69.618225	-14.866073
1560	1.5600e+000	-70.663452	-15.515076
1561	1.5610e+000	-71.762085	-16.189436
1562	1.5620e+000	-73.059082	-16.875446
1563	1.5630e+000	-74.417114	-17.570366
1564	1.5640e+000	-75.515747	-18.292698
1565	1.5650e+000	-76.911926	-19.059577
1566	1.5660e+000	-77.735901	-19.808638
1567	1.5670e+000	-79.116821	-20.566607
1568	1.5680e+000	-80.375671	-21.373920
1569	1.5690e+000	-81.451416	-22.189457
1570	1.5700e+000	-82.527161	-22.999511
1571	1.5710e+000	-84.007263	-23.847944
1572	1.5720e+000	-85.426331	-24.709398
1573	1.5730e+000	-86.189270	-25.579760
1574	1.5740e+000	-87.608337	-26.445326
1575	1.5750e+000	-88.752747	-27.329396
1576	1.5760e+000	-89.698792	-28.199073
1577	1.5770e+000	-90.972900	-29.091366
1578	1.5780e+000	-92.231750	-29.969268
1579	1.5790e+000	-93.299866	-30.836204
1580	1.5800e+000	-94.650269	-31.684637
1581	1.5810e+000	-95.726013	-32.563224
1582	1.5820e+000	-96.916199	-33.393152
1583	1.5830e+000	-98.556519	-34.214857
1584	1.5840e+000	-99.670410	-35.009834
1585	1.5850e+000	-100.784302	-35.787678
1586	1.5860e+000	-101.936340	-36.537424
1587	1.5870e+000	-103.134155	-37.251533
1588	1.5880e+000	-104.118347	-37.926578
1589	1.5890e+000	-105.407715	-38.566672
1590	1.5900e+000	-106.521606	-39.157422
1591	1.5910e+000	-107.849121	-39.709794
1592	1.5920e+000	-109.321594	-40.206655
1593	1.5930e+000	-110.427856	-40.704886
1594	1.5940e+000	-111.724854	-41.125676
1595	1.5950e+000	-112.831116	-41.539612
1596	1.5960e+000	-113.922119	-41.924765
1597	1.5970e+000	-115.364075	-42.256462
1598	1.5980e+000	-116.577148	-42.579250
1599	1.5990e+000	-117.813110	-42.908206
1600	1.6000e+000	-118.873596	-43.200840
1601	1.6010e+000	-120.033264	-43.474285
1602	1.6020e+000	-121.185303	-43.743618
1603	1.6030e+000	-122.222900	-44.023916
1604	1.6040e+000	-123.527527	-44.282969
1605	1.6050e+000	-124.534607	-44.531742
1606	1.6060e+000	-126.091003	-44.777773
1607	1.6070e+000	-127.128601	-45.016267
1608	1.6080e+000	-128.379822	-45.204731
1609	1.6090e+000	-129.508972	-45.464469
1610	1.6100e+000	-130.722046	-45.687885
1611	1.6110e+000	-131.896973	-45.886629
1612	1.6120e+000	-133.186340	-46.085374
1613	1.6130e+000	-134.376526	-46.282062
1614	1.6140e+000	-135.711670	-46.499995
1615	1.6150e+000	-136.817932	-46.682292
1616	1.6160e+000	-137.901306	-46.869386
1617	1.6170e+000	-139.038086	-47.048941
1618	1.6180e+000	-140.586853	-47.231237
1619	1.6190e+000	-141.479492	-47.402569
1620	1.6200e+000	-142.646790	-47.568417
1621	1.6210e+000	-143.730164	-47.729469
1622	1.6220e+000	-145.141602	-47.882982
1623	1.6230e+000	-146.263123	-48.051572
1624	1.6240e+000	-147.567749	-48.200287
1625	1.6250e+000	-148.979187	-48.332555
1626	1.6260e+000	-149.993896	-48.485382
1627	1.6270e+000	-151.237488	-48.613538
1628	1.6280e+000	-152.404785	-48.740323
1629	1.6290e+000	-153.633118	-48.872591
1630	1.6300e+000	-154.869080	-48.990467
1631	1.6310e+000	-156.181335	-49.104916
1632	1.6320e+000	-157.295227	-49.209771
1633	1.6330e+000	-158.203125	-49.332444
1634	1.6340e+000	-159.461975	-49.432502
1635	1.6350e+000	-160.591125	-49.531874
1636	1.6360e+000	-162.010193	-49.623707
1637	1.6370e+000	-163.368225	-49.726506
1638	1.6380e+000	-164.390564	-49.806689
1639	1.6390e+000	-165.344238	-49.884131
1640	1.6400e+000	-166.786194	-49.973909
1641	1.6410e+000	-168.014526	-50.057518
1642	1.6420e+000	-169.242859	-50.120568
1643	1.6430e+000	-170.608521	-50.232276
1644	1.6440e+000	-171.470642	-50.306977
1645	1.6450e+000	-172.660828	-50.366600
1646	1.6460e+000	-173.980713	-50.448839
1647	1.6470e+000	-175.048828	-50.533819
1648	1.6480e+000	-176.544189	-50.608520
1649	1.6490e+000	-177.734375	-50.664716
1650	1.6500e+000	-178.901672	-50.733249
1651	1.6510e+000	-180.046082	-50.822341
1652	1.6520e+000	-181.190491	-50.862775
1653	1.6530e+000	-182.487488	-50.936105
1654	1.6540e+000	-183.494568	-51.009435
1655	1.6550e+000	-184.738159	-51.078653
1656	1.6560e+000	-186.111450	-51.126625
1657	1.6570e+000	-187.210083	-51.195158
1658	1.6580e+000	-188.560486	-51.257522
1659	1.6590e+000	-189.796448	-51.317146
1660	1.6600e+000	-190.795898	-51.389105
1661	1.6610e+000	-191.802979	-51.440504
1662	1.6620e+000	-193.161011	-51.501498
1663	1.6630e+000	-194.488525	-51.576199
1664	1.6640e+000	-195.358276	-51.627598
1665	1.6650e+000	-196.823120	-51.676941
1666	1.6660e+000	-198.051453	-51.711208
1667	1.6670e+000	-199.195862	-51.771516
1668	1.6680e+000	-200.271606	-51.841419
1669	1.6690e+000	-201.667786	-51.894875
1670	1.6700e+000	-202.438354	-51.962037
1671	1.6710e+000	-204.277039	-52.010695
1672	1.6720e+000	-205.352783	-52.066206
1673	1.6730e+000	-206.405640	-52.115550
1674	1.6740e+000	-207.763672	-52.190935
1675	1.6750e+000	-208.862305	-52.244391
1676	1.6760e+000	-210.037231	-52.288937
1677	1.6770e+000	-211.204529	-52.352672
1678	1.6780e+000	-212.402344	-52.405442
1679	1.6790e+000	-213.386536	-52.458897
1680	1.6800e+000	-214.965820	-52.502758
1681	1.6810e+000	-216.018677	-52.552102
1682	1.6820e+000	-217.224121	-52.608984
1683	1.6830e+000	-218.315125	-52.632970
1684	1.6840e+000	-219.505310	-52.711097
1685	1.6850e+000	-220.642090	-52.771406
1686	1.6860e+000	-222.023010	-52.802931
1687	1.6870e+000	-223.136902	-52.850903
1688	1.6880e+000	-224.472046	-52.903673
1689	1.6890e+000	-225.692749	-52.950961
1690	1.6900e+000	-226.593018	-52.993451
1691	1.6910e+000	-227.928162	-53.045536
1692	1.6920e+000	-229.431152	-53.101732
1693	1.6930e+000	-230.453491	-53.152446
1694	1.6940e+000	-231.597900	-53.203161
1695	1.6950e+000	-232.887268	-53.253189
1696	1.6960e+000	-233.917236	-53.292253
1697	1.6970e+000	-235.343933	-53.343652
1698	1.6980e+000	-236.381531	-53.377918
1699	1.6990e+000	-237.693787	-53.430003
1700	1.7000e+000	-238.761902	-53.482773
1701	1.7010e+000	-240.005493	-53.534173
1702	1.7020e+000	-241.203308	-53.574607
1703	1.7030e+000	-242.538452	-53.619838
1704	1.7040e+000	-243.606567	-53.663014
1705	1.7050e+000	-244.705200	-53.719210
1706	1.7060e+000	-245.948792	-53.753477
1707	1.7070e+000	-247.406006	-53.815156
1708	1.7080e+000	-248.382568	-53.861758
1709	1.7090e+000	-249.725342	-53.904933
1710	1.7100e+000	-250.923157	-53.942626
1711	1.7110e+000	-252.044678	-53.997452
1712	1.7120e+000	-252.937317	-54.023495
1713	1.7130e+000	-254.379272	-54.074894
1714	1.7140e+000	-255.821228	-54.118755
1715	1.7150e+000	-256.713867	-54.181805
1716	1.7160e+000	-257.995605	-54.206477
1717	1.7170e+000	-259.223938	-54.244169
1718	1.7180e+000	-260.604858	-54.288716
1719	1.7190e+000	-261.535645	-54.328464
1720	1.7200e+000	-262.786865	-54.385346
1721	1.7210e+000	-263.931274	-54.420298
1722	1.7220e+000	-265.327454	-54.495684
1723	1.7230e+000	-266.456604	-54.516929
1724	1.7240e+000	-267.555237	-54.562846
1725	1.7250e+000	-268.722534	-54.598482
1726	1.7260e+000	-270.072937	-54.647826
1727	1.7270e+000	-271.629333	-54.686889
1728	1.7280e+000	-272.453308	-54.730750
1729	1.7290e+000	-273.727417	-54.769814
1730	1.7300e+000	-274.871826	-54.826010
1731	1.7310e+000	-275.978088	-54.845200
1732	1.7320e+000	-277.328491	-54.885634
1733	1.7330e+000	-278.594971	-54.926753
1734	1.7340e+000	-279.708862	-54.976782
1735	1.7350e+000	-280.616760	-55.017901
1736	1.7360e+000	-282.089233	-55.039832
1737	1.7370e+000	-283.599854	-55.084378
1738	1.7380e+000	-284.408569	-55.130295
1739	1.7390e+000	-285.690308	-55.185121
1740	1.7400e+000	-286.918640	-55.216646
1741	1.7410e+000	-287.918091	-55.263933
1742	1.7420e+000	-289.222717	-55.300941
1743	1.7430e+000	-290.420532	-55.341375
1744	1.7440e+000	-291.633606	-55.370159
1745	1.7450e+000	-292.831421	-55.435950
1746	1.7460e+000	-294.242859	-55.453083
1747	1.7470e+000	-295.295715	-55.488035
1748	1.7480e+000	-296.676636	-55.549028
1749	1.7490e+000	-297.492981	-55.567532
1750	1.7500e+000	-299.011230	-55.652513
1751	1.7510e+000	-299.964905	-55.642233
1752	1.7520e+000	-298.782349	-55.636750
1753	1.7530e+000	-297.943115	-55.590148
1754	1.7540e+000	-296.516418	-55.578497
1755	1.7550e+000	-295.234680	-55.556567
1756	1.7560e+000	-294.120789	-55.518189
1757	1.7570e+000	-292.892456	-55.483237
1758	1.7580e+000	-291.374207	-55.444174
1759	1.7590e+000	-290.382385	-55.440747
1760	1.7600e+000	-289.459229	-55.415390
1761	1.7610e+000	-288.223267	-55.387292
1762	1.7620e+000	-286.979675	-55.355767
1763	1.7630e+000	-285.614014	-55.309165
1764	1.7640e+000	-284.286499	-55.285864
1765	1.7650e+000	-283.050537	-55.267360
1766	1.7660e+000	-282.066345	-55.237891
1767	1.7670e+000	-280.586243	-55.195401
1768	1.7680e+000	-279.663086	-55.167988
1769	1.7690e+000	-278.251648	-55.137148
1770	1.7700e+000	-277.511597	-55.100826
1771	1.7710e+000	-276.031494	-55.076839
1772	1.7720e+000	-274.749756	-55.047370
1773	1.7730e+000	-273.864746	-55.019957
1774	1.7740e+000	-272.438049	-54.980209
1775	1.7750e+000	-271.240234	-54.982265
1776	1.7760e+000	-270.133972	-54.913732
1777	1.7770e+000	-268.974304	-54.891116
1778	1.7780e+000	-267.646790	-54.851367
1779	1.7790e+000	-266.319275	-54.821898
1780	1.7800e+000	-265.235901	-54.800653
1781	1.7810e+000	-264.404297	-54.767072
1782	1.7820e+000	-262.817383	-54.719100
1783	1.7830e+000	-261.535645	-54.701967
1784	1.7840e+000	-260.421753	-54.639602
1785	1.7850e+000	-259.063721	-54.618357
1786	1.7860e+000	-257.850647	-54.577237
1787	1.7870e+000	-256.805420	-54.554622
1788	1.7880e+000	-255.836487	-54.534062
1789	1.7890e+000	-254.508972	-54.497054
1790	1.7900e+000	-253.257751	-54.475809
1791	1.7910e+000	-251.922607	-54.420298
1792	1.7920e+000	-250.732422	-54.397682
1793	1.7930e+000	-249.694824	-54.355877
1794	1.7940e+000	-248.626709	-54.302422
1795	1.7950e+000	-247.207642	-54.297625
1796	1.7960e+000	-246.017456	-54.246225
1797	1.7970e+000	-244.834900	-54.213330
1798	1.7980e+000	-243.583679	-54.187287
1799	1.7990e+000	-242.485046	-54.144112
1800	1.8000e+000	-241.447449	-54.120811
1801	1.8010e+000	-240.074158	-54.071467
1802	1.8020e+000	-238.830566	-54.042684
1803	1.8030e+000	-237.411499	-54.000879
1804	1.8040e+000	-236.450195	-53.961130
1805	1.8050e+000	-235.153198	-53.938514
1806	1.8060e+000	-233.978271	-53.889856
1807	1.8070e+000	-232.955933	-53.853534
1808	1.8080e+000	-231.590271	-53.829548
1809	1.8090e+000	-230.400085	-53.796652
1810	1.8100e+000	-229.187012	-53.744567
1811	1.8110e+000	-228.240967	-53.713728
1812	1.8120e+000	-226.982117	-53.679461
1813	1.8130e+000	-225.578308	-53.637657
1814	1.8140e+000	-224.189758	-53.601334
1815	1.8150e+000	-223.289490	-53.556103
1816	1.8160e+000	-221.969604	-53.525949
1817	1.8170e+000	-221.092224	-53.482088
1818	1.8180e+000	-219.711304	-53.419723
1819	1.8190e+000	-218.345642	-53.410129
1820	1.8200e+000	-217.117310	-53.373121
1821	1.8210e+000	-215.995789	-53.337484
1822	1.8220e+000	-214.752197	-53.292938
1823	1.8230e+000	-213.600159	-53.273064
1824	1.8240e+000	-212.432861	-53.216867
1825	1.8250e+000	-211.059570	-53.188769
1826	1.8260e+000	-209.838867	-53.136684
1827	1.8270e+000	-208.602905	-53.103788
1828	1.8280e+000	-207.633972	-53.064725
1829	1.8290e+000	-206.329346	-53.078431
1830	1.8300e+000	-205.322266	-52.987968
1831	1.8310e+000	-203.987122	-52.933142
1832	1.8320e+000	-202.743530	-52.891338
1833	1.8330e+000	-201.820374	-52.865295
1834	1.8340e+000	-200.294495	-52.818693
1835	1.8350e+000	-199.348450	-52.775518
1836	1.8360e+000	-197.929382	-52.743307
1837	1.8370e+000	-196.868896	-52.704244
1838	1.8380e+000	-195.724487	-52.648047
1839	1.8390e+000	-194.381714	-52.624061
1840	1.8400e+000	-193.145752	-52.604872
1841	1.8410e+000	-191.894531	-52.527430
1842	1.8420e+000	-190.834045	-52.487681
1843	1.8430e+000	-189.575195	-52.459583
1844	1.8440e+000	-188.385010	-52.392421
1845	1.8450e+000	-187.118530	-52.341707
1846	1.8460e+000	-186.035156	-52.330056
1847	1.8470e+000	-184.715271	-52.280713
1848	1.8480e+000	-183.631897	-52.213551
1849	1.8490e+000	-182.518005	-52.221090
1850	1.8500e+000	-181.213379	-52.153242
1851	1.8510e+000	-180.007935	-52.098416
1852	1.8520e+000	-178.634644	-52.060724
1853	1.8530e+000	-177.490234	-52.027828
1854	1.8540e+000	-176.284790	-51.979170
1855	1.8550e+000	-175.148010	-51.920232
1856	1.8560e+000	-174.064636	-51.885280
1857	1.8570e+000	-172.592163	-51.853755
1858	1.8580e+000	-171.508789	-51.805097
1859	1.8590e+000	-170.288086	-51.747530
1860	1.8600e+000	-169.364929	-51.714634
1861	1.8610e+000	-168.014526	-51.667347
1862	1.8620e+000	-166.877747	-51.609780
1863	1.8630e+000	-165.802002	-51.562492
1864	1.8640e+000	-164.421082	-51.530282
1865	1.8650e+000	-163.040161	-51.456952
1866	1.8660e+000	-162.109375	-51.443931
1867	1.8670e+000	-160.835266	-51.389790
1868	1.8680e+000	-159.538269	-51.334964
1869	1.8690e+000	-158.706665	-51.300698
1870	1.8700e+000	-157.234192	-51.250669
1871	1.8710e+000	-156.112671	-51.202696
1872	1.8720e+000	-154.876709	-51.147870
1873	1.8730e+000	-153.656006	-51.117031
1874	1.8740e+000	-152.526855	-51.051925
1875	1.8750e+000	-151.100159	-50.994358
1876	1.8760e+000	-150.032043	-50.958721
1877	1.8770e+000	-148.864746	-50.915545
1878	1.8780e+000	-147.476196	-50.868258
1879	1.8790e+000	-146.415710	-50.803152
1880	1.8800e+000	-145.240784	-50.766830
1881	1.8810e+000	-144.142151	-50.707892
1882	1.8820e+000	-143.035889	-50.657178
1883	1.8830e+000	-141.708374	-50.614688
1884	1.8840e+000	-140.258789	-50.572197
1885	1.8850e+000	-139.190674	-50.503665
1886	1.8860e+000	-137.924194	-50.463916
1887	1.8870e+000	-136.642456	-50.424167
1888	1.8880e+000	-135.505676	-50.372082
1889	1.8890e+000	-134.323120	-50.309718
1890	1.8900e+000	-133.193970	-50.260374
1891	1.8910e+000	-131.637573	-50.195954
1892	1.8920e+000	-130.928040	-50.141813
1893	1.8930e+000	-129.623413	-50.076707
1894	1.8940e+000	-128.425598	-50.039700
1895	1.8950e+000	-127.250671	-49.975964
1896	1.8960e+000	-125.968933	-49.935530
1897	1.8970e+000	-124.824524	-49.874536
1898	1.8980e+000	-123.672485	-49.822452
1899	1.8990e+000	-122.634888	-49.765570
1900	1.9000e+000	-121.269226	-49.721709
1901	1.9010e+000	-119.941711	-49.665512
1902	1.9020e+000	-118.598938	-49.599721
1903	1.9030e+000	-117.660522	-49.568196
1904	1.9040e+000	-116.195679	-49.507887
1905	1.9050e+000	-115.165710	-49.441411
1906	1.9060e+000	-114.067078	-49.390697
1907	1.9070e+000	-112.686157	-49.331074
1908	1.9080e+000	-111.366272	-49.252946
1909	1.9090e+000	-110.481262	-49.202232
1910	1.9100e+000	-109.039307	-49.144665
1911	1.9110e+000	-108.154297	-49.093266
1912	1.9120e+000	-106.719971	-49.028845
1913	1.9130e+000	-105.659485	-48.970593
1914	1.9140e+000	-104.476929	-48.908913
1915	1.9150e+000	-102.996826	-48.839010
1916	1.9160e+000	-101.913452	-48.794464
1917	1.9170e+000	-100.975037	-48.738953
1918	1.9180e+000	-99.830627	-48.678644
1919	1.9190e+000	-98.602295	-48.599832
1920	1.9200e+000	-97.190857	-48.555971
1921	1.9210e+000	-95.596313	-48.497033
1922	1.9220e+000	-94.856262	-48.414794
1923	1.9230e+000	-93.444824	-48.342149
1924	1.9240e+000	-92.224121	-48.291435
1925	1.9250e+000	-91.178894	-48.209196
1926	1.9260e+000	-90.011597	-48.155056
1927	1.9270e+000	-88.829041	-48.083096
1928	1.9280e+000	-87.387085	-48.017305
1929	1.9290e+000	-86.563110	-47.952885
1930	1.9300e+000	-85.289001	-47.891205
1931	1.9310e+000	-84.136963	-47.816505
1932	1.9320e+000	-82.756042	-47.752770
1933	1.9330e+000	-81.947327	-47.680811
1934	1.9340e+000	-80.413818	-47.607481
1935	1.9350e+000	-79.231262	-47.543746
1936	1.9360e+000	-77.949524	-47.470416
1937	1.9370e+000	-77.018738	-47.410107
1938	1.9380e+000	-75.576782	-47.298399
1939	1.9390e+000	-74.195862	-47.249056
1940	1.9400e+000	-73.226929	-47.164075
1941	1.9410e+000	-72.044373	-47.094858
1942	1.9420e+000	-71.075439	-47.024269
1943	1.9430e+000	-69.625854	-46.937233
1944	1.9440e+000	-68.382263	-46.863218
1945	1.9450e+000	-67.054749	-46.787147
1946	1.9460e+000	-65.963745	-46.710390
1947	1.9470e+000	-64.765930	-46.622669
1948	1.9480e+000	-63.468933	-46.548654
1949	1.9490e+000	-62.179565	-46.465044
1950	1.9500e+000	-61.241150	-46.367042
1951	1.9510e+000	-60.195923	-46.280006
1952	1.9520e+000	-58.792114	-46.209418
1953	1.9530e+000	-57.876587	-46.114157
1954	1.9540e+000	-56.282043	-46.021638
1955	1.9550e+000	-54.985046	-45.905133
1956	1.9560e+000	-53.878784	-45.842769
1957	1.9570e+000	-52.726746	-45.731061
1958	1.9580e+000	-51.544189	-45.643339
1959	1.9590e+000	-50.308228	-45.558359
1960	1.9600e+000	-49.316406	-45.458301
1961	1.9610e+000	-48.042297	-45.340425
1962	1.9620e+000	-46.821594	-45.247906
1963	1.9630e+000	-45.677185	-45.123863
1964	1.9640e+000	-44.319153	-45.053959
1965	1.9650e+000	-43.159485	-44.921692
1966	1.9660e+000	-42.053223	-44.799018
1967	1.9670e+000	-40.679932	-44.678401
1968	1.9680e+000	-39.474487	-44.575602
1969	1.9690e+000	-38.047791	-44.448817
1970	1.9700e+000	-37.254333	-44.319976
1971	1.9710e+000	-35.812378	-44.185652
1972	1.9720e+000	-34.515381	-44.047902
1973	1.9730e+000	-33.668518	-43.913578
1974	1.9740e+000	-32.394409	-43.764177
1975	1.9750e+000	-31.158447	-43.622315
1976	1.9760e+000	-30.075073	-43.435221
1977	1.9770e+000	-28.686523	-43.293359
1978	1.9780e+000	-27.847290	-43.117231
1979	1.9790e+000	-26.428223	-42.953438
1980	1.9800e+000	-25.077820	-42.768400
1981	1.9810e+000	-23.765564	-42.591586
1982	1.9820e+000	-22.773743	-42.380506
1983	1.9830e+000	-21.614075	-42.163258
1984	1.9840e+000	-20.187378	-41.965884
1985	1.9850e+000	-19.424438	-41.727391
1986	1.9860e+000	-18.096924	-41.486842
1987	1.9870e+000	-16.838074	-41.258629
1988	1.9880e+000	-15.640259	-40.986555
1989	1.9890e+000	-14.358521	-40.704886
1990	1.9900e+000	-13.015747	-40.444463
1991	1.9910e+000	-12.123108	-40.141549
1992	1.9920e+000	-10.902405	-39.835209
1993	1.9930e+000	-9.651184	-39.500085
1994	1.9940e+000	-8.529663	-39.189632
1995	1.9950e+000	-7.438660	-38.848340
1996	1.9960e+000	-6.034851	-38.483062
1997	1.9970e+000	-4.608154	-38.115728
1998	1.9980e+000	-3.593445	-37.737428
1999	1.9990e+000	-2.349854	-37.355702
2000	2.0000e+000	-1.388550	-36.956158
2001	2.0010e+000	0.183105	-36.546333

Center data before PMax,±Pr and ±Vc Calc.

PMax (µC/cm2):	5.57e+001
Pr (µC/cm2):	3.10e+001
-Pr (µC/cm2):	-3.65e+001
Vc:	6.87e-001
-Vc:	-3.88e-001
C (Max-Eff) (nF):	1.15e+000
K (Eff):	2.10e+003
Vert. (±Pr) Shift (µC/cm2):	-2.75e+000
Horiz. Shift (±Vc):	1.50e-001
Offset (µC/cm2):	3.14e+001

A (Loop Area - µC/cm2·Volts):	1.16e+002



Hysteresis Version: 5.16.2 - Radiant Technologies, Inc., 1999 - 3/20/18

