»»»»»»»»»»»»»»»»»»»»»»»»»»»»»»»»»»»» Hysteresis ««««««««««««««««««««««««««««««««««««
»»»  Executed Version:	5.16.2
»»»  Vision Version:	5.16.10 (R)
»»»  Vision Compiled:	4/26/18
»»»  Driver Version:	5.16.6
»»»  Windows Version:	Windows 8
»»»  Processor Information:	x86 (AMD or Intel) - 8 Processors
»»»  Tester Name:	PPM21016-863
»»»  Tester S/N:	PPM21016-863
»»»  Internal Amp Type:	 RTI ML200V    
»»»  Internal Amp S/N:	 iAB2-0000     
»»»  Execution Count:	1
»»»»»»»»»»»»»»»»»»»»»»»»»»»»»»»»»»»»»»»»»»««««««««««««««««««««««««««««««««««««««««««

Stored:	7/23/2018 - 17:30:52
Configured:	07/23/18 05:27:40 PM
Executed:	07/23/18 05:30:35 PM

»»»»»»»»»»»»»»»»»»»»»»»»»»»»»»»»»»» Sample Info ««««««««««««««««««««««««««««««««««««
Sample Name:	Internal Reference Cap.
Lot Name:	N/A
Wafer Name:	N/A
Die Row/Column:	0/0
Capacitor Number:	0
Sample Area (cm2):	6.20e-005
Sample Thickness (µm):	1.00e-001

Mux Loop Adjustment:	Disabled

Amplifier:	Internal

»»»»»»»»»»»»»»»»»»»»»»»»»»»»»»»»»»» Tester Info «««««««««««««««««««««««««««««««««««
Tester Name:	PPM21016-863
Tester Serial Number:	PPM21016-863
Return Signal Amp. Level:	1.79 [Index: 2]

»»»»»»»»»»»»»»»»»»»»»»»»»»»»»»»» Hysteresis Info ««««««««««««««««««««««««««««««««««
Task Name:	Hyst-1
Volts:	3.00
Field:	300.00 (kV/cm)
Hysteresis Period (ms):	2.00e+000
Preset:	Enabled
Preset Delay (ms):	1.00e+003
Profile:	Double Bipolar

»»»»»»»»»»»»»»»»»»»»»»»»»»»»»»»»»»»»»» Data «««««««««««««««««««««««««««««««««««««««
Points:	2001

Valid Data

Point	Time (ms)	Field (kV/cm)	Measured Polarization
   1	1.0000e-003	-0.068665	-22.291913
   2	2.0000e-003	1.213074	-22.249423
   3	3.0000e-003	2.410889	-22.204192
   4	4.0000e-003	3.509521	-22.143198
   5	5.0000e-003	4.814148	-22.087001
   6	6.0000e-003	6.034851	-22.023266
   7	7.0000e-003	7.156372	-21.956104
   8	8.0000e-003	8.285522	-21.910872
   9	9.0000e-003	9.391785	-21.853990
  10	1.0000e-002	10.963440	-21.766269
  11	1.1000e-002	12.161255	-21.692939
  12	1.2000e-002	13.168335	-21.597679
  13	1.3000e-002	14.381409	-21.482544
  14	1.4000e-002	15.663147	-21.356444
  15	1.5000e-002	16.815186	-21.227603
  16	1.6000e-002	18.089294	-21.075461
  17	1.7000e-002	19.012451	-20.910983
  18	1.8000e-002	20.439148	-20.747190
  19	1.9000e-002	21.461487	-20.522404
  20	2.0000e-002	22.804260	-20.278428
  21	2.1000e-002	23.826599	-20.044047
  22	2.2000e-002	25.115967	-19.769231
  23	2.3000e-002	26.283264	-19.461520
  24	2.4000e-002	27.328491	-19.121599
  25	2.5000e-002	28.724670	-18.766601
  26	2.6000e-002	29.960632	-18.365686
  27	2.7000e-002	31.326294	-17.933245
  28	2.8000e-002	32.241821	-17.481616
  29	2.9000e-002	33.645630	-16.953230
  30	3.0000e-002	34.530640	-16.389893
  31	3.1000e-002	35.972595	-15.792975
  32	3.2000e-002	37.315369	-15.160420
  33	3.3000e-002	37.956238	-14.510732
  34	3.4000e-002	39.260864	-13.788399
  35	3.5000e-002	40.550232	-13.040024
  36	3.6000e-002	41.580200	-12.267662
  37	3.7000e-002	42.823792	-11.441846
  38	3.8000e-002	44.219971	-10.598210
  39	3.9000e-002	45.234680	-9.711400
  40	4.0000e-002	46.539307	-8.804029
  41	4.1000e-002	47.843933	-7.871302
  42	4.2000e-002	48.896790	-6.889231
  43	4.3000e-002	50.102234	-5.892083
  44	4.4000e-002	51.506042	-4.905215
  45	4.5000e-002	52.467346	-3.898472
  46	4.6000e-002	53.855896	-2.840330
  47	4.7000e-002	55.053711	-1.822622
  48	4.8000e-002	56.289673	-0.824789
  49	4.9000e-002	57.380676	0.170989
  50	5.0000e-002	58.509827	1.148262
  51	5.1000e-002	59.455872	2.098808
  52	5.2000e-002	61.195374	2.993158
  53	5.3000e-002	62.049866	3.847758
  54	5.4000e-002	63.125610	4.649588
  55	5.5000e-002	64.460754	5.386998
  56	5.6000e-002	65.803528	6.076435
  57	5.7000e-002	66.856384	6.710361
  58	5.8000e-002	68.412781	7.294258
  59	5.9000e-002	69.541931	7.825385
  60	6.0000e-002	70.724487	8.299630
  61	6.1000e-002	71.861267	8.801288
  62	6.2000e-002	72.937012	9.225504
  63	6.3000e-002	74.424744	9.630531
  64	6.4000e-002	75.355530	10.065713
  65	6.5000e-002	76.637268	10.466628
  66	6.6000e-002	77.812195	10.882620
  67	6.7000e-002	79.048157	11.277368
  68	6.8000e-002	80.093384	11.660464
  69	6.9000e-002	81.398010	12.071660
  70	7.0000e-002	82.481384	12.498617
  71	7.1000e-002	83.930969	12.902274
  72	7.2000e-002	84.869385	13.323063
  73	7.3000e-002	86.402893	13.762357
  74	7.4000e-002	87.333679	14.199594
  75	7.5000e-002	88.745117	14.638887
  76	7.6000e-002	89.958191	15.116559
  77	7.7000e-002	90.904236	15.596972
  78	7.8000e-002	91.972351	16.058881
  79	7.9000e-002	93.460083	16.544777
  80	8.0000e-002	94.429016	17.070421
  81	8.1000e-002	95.596313	17.610457
  82	8.2000e-002	97.129822	18.124451
  83	8.3000e-002	98.274231	18.640501
  84	8.4000e-002	99.403381	19.203838
  85	8.5000e-002	100.738525	19.767175
  86	8.6000e-002	101.913452	20.333254
  87	8.7000e-002	102.958679	20.931543
  88	8.8000e-002	104.263306	21.512699
  89	8.9000e-002	105.308533	22.110987
  90	9.0000e-002	106.887817	22.716129
  91	9.1000e-002	107.826233	23.331551
  92	9.2000e-002	109.138489	23.940805
  93	9.3000e-002	110.527039	24.574046
  94	9.4000e-002	111.511230	25.203174
  95	9.5000e-002	112.747192	25.836415
  96	9.6000e-002	114.059448	26.504607
  97	9.7000e-002	115.043640	27.155666
  98	9.8000e-002	116.462708	27.806039
  99	9.9000e-002	117.675781	28.468063
 100	1.0000e-001	118.766785	29.125290
 101	1.0100e-001	119.796753	29.766069
 102	1.0200e-001	121.063232	30.417128
 103	1.0300e-001	122.489929	31.060648
 104	1.0400e-001	123.535156	31.708280
 105	1.0500e-001	124.877930	32.331241
 106	1.0600e-001	125.946045	32.950090
 107	1.0700e-001	127.052307	33.572365
 108	1.0800e-001	128.257751	34.170654
 109	1.0900e-001	129.478455	34.768943
 110	1.1000e-001	130.790710	35.348042
 111	1.1100e-001	131.782532	35.931254
 112	1.1200e-001	133.140564	36.469234
 113	1.1300e-001	134.353638	37.028459
 114	1.1400e-001	135.147095	37.596594
 115	1.1500e-001	136.795044	38.103049
 116	1.1600e-001	137.924194	38.615672
 117	1.1700e-001	139.114380	39.104995
 118	1.1800e-001	140.419006	39.583352
 119	1.1900e-001	141.731262	40.055541
 120	1.2000e-001	142.822266	40.509226
 121	1.2100e-001	143.836975	40.943037
 122	1.2200e-001	145.233154	41.343952
 123	1.2300e-001	146.591187	41.720195
 124	1.2400e-001	147.583008	42.120425
 125	1.2500e-001	148.712158	42.487074
 126	1.2600e-001	149.780273	42.840702
 127	1.2700e-001	151.084900	43.167602
 128	1.2800e-001	152.214050	43.495873
 129	1.2900e-001	153.343201	43.804954
 130	1.3000e-001	154.907227	44.087308
 131	1.3100e-001	155.776978	44.371718
 132	1.3200e-001	157.058716	44.644478
 133	1.3300e-001	158.279419	44.911069
 134	1.3400e-001	159.576416	45.150248
 135	1.3500e-001	160.583496	45.366810
 136	1.3600e-001	161.979675	45.600506
 137	1.3700e-001	163.009644	45.817069
 138	1.3800e-001	164.314270	45.988400
 139	1.3900e-001	165.626526	46.193998
 140	1.4000e-001	166.847229	46.374924
 141	1.4100e-001	167.938232	46.551737
 142	1.4200e-001	169.242859	46.699768
 143	1.4300e-001	170.158386	46.872470
 144	1.4400e-001	171.539307	47.020500
 145	1.4500e-001	172.836304	47.168530
 146	1.4600e-001	174.079895	47.325470
 147	1.4700e-001	175.132751	47.454311
 148	1.4800e-001	176.467896	47.596173
 149	1.4900e-001	177.566528	47.750371
 150	1.5000e-001	178.512573	47.853855
 151	1.5100e-001	180.297852	47.966249
 152	1.5200e-001	181.159973	48.093719
 153	1.5300e-001	182.357788	48.191721
 154	1.5400e-001	183.486938	48.306855
 155	1.5500e-001	184.577942	48.416507
 156	1.5600e-001	185.760498	48.528900
 157	1.5700e-001	187.126160	48.618678
 158	1.5800e-001	188.232422	48.730386
 159	1.5900e-001	189.537048	48.824276
 160	1.6000e-001	190.803528	48.921592
 161	1.6100e-001	191.757202	49.031244
 162	1.6200e-001	193.222046	49.103203
 163	1.6300e-001	194.404602	49.216967
 164	1.6400e-001	195.404053	49.304689
 165	1.6500e-001	196.723938	49.388984
 166	1.6600e-001	198.059082	49.492468
 167	1.6700e-001	199.150085	49.564427
 168	1.6800e-001	200.248718	49.656946
 169	1.6900e-001	201.545715	49.758374
 170	1.7000e-001	202.766418	49.826906
 171	1.7100e-001	203.819275	49.913943
 172	1.7200e-001	205.017090	49.981104
 173	1.7300e-001	206.321716	50.078421
 174	1.7400e-001	207.313538	50.157233
 175	1.7500e-001	208.908081	50.219598
 176	1.7600e-001	210.090637	50.331306
 177	1.7700e-001	210.853577	50.379278
 178	1.7800e-001	212.440491	50.480021
 179	1.7900e-001	213.691711	50.540330
 180	1.8000e-001	214.721680	50.604750
 181	1.8100e-001	215.721130	50.696584
 182	1.8200e-001	217.170715	50.765802
 183	1.8300e-001	218.231201	50.827481
 184	1.8400e-001	219.535828	50.903552
 185	1.8500e-001	220.764160	50.986476
 186	1.8600e-001	221.565247	51.044044
 187	1.8700e-001	223.030090	51.148213
 188	1.8800e-001	224.510193	51.197557
 189	1.8900e-001	225.593567	51.257865
 190	1.9000e-001	226.875305	51.319544
 191	1.9100e-001	228.225708	51.391504
 192	1.9200e-001	229.240417	51.450441
 193	1.9300e-001	230.216980	51.520345
 194	1.9400e-001	231.628418	51.599842
 195	1.9500e-001	232.666016	51.637535
 196	1.9600e-001	233.871460	51.712236
 197	1.9700e-001	235.206604	51.778027
 198	1.9800e-001	236.320496	51.843133
 199	1.9900e-001	237.556458	51.915777
 200	2.0000e-001	238.800049	51.958267
 201	2.0100e-001	239.982605	52.017891
 202	2.0200e-001	240.921021	52.086423
 203	2.0300e-001	242.332458	52.138508
 204	2.0400e-001	243.537903	52.194705
 205	2.0500e-001	244.544983	52.247475
 206	2.0600e-001	246.070862	52.307098
 207	2.0700e-001	246.818542	52.380428
 208	2.0800e-001	248.176575	52.427715
 209	2.0900e-001	249.626160	52.489394
 210	2.1000e-001	250.495911	52.541479
 211	2.1100e-001	252.037048	52.604529
 212	2.1200e-001	253.364563	52.670320
 213	2.1300e-001	254.272461	52.717608
 214	2.1400e-001	255.371094	52.762839
 215	2.1500e-001	256.851196	52.820406
 216	2.1600e-001	257.972717	52.886198
 217	2.1700e-001	259.056091	52.936912
 218	2.1800e-001	260.231018	52.965010
 219	2.1900e-001	261.711121	53.033543
 220	2.2000e-001	262.962341	53.079459
 221	2.2100e-001	263.931274	53.138397
 222	2.2200e-001	265.098572	53.193223
 223	2.2300e-001	266.433716	53.245308
 224	2.2400e-001	267.387390	53.291225
 225	2.2500e-001	268.562317	53.344680
 226	2.2600e-001	269.950867	53.395394
 227	2.2700e-001	271.110535	53.446794
 228	2.2800e-001	272.636414	53.520123
 229	2.2900e-001	273.612976	53.546166
 230	2.3000e-001	274.818420	53.602362
 231	2.3100e-001	275.894165	53.644853
 232	2.3200e-001	277.114868	53.703105
 233	2.3300e-001	278.358459	53.750393
 234	2.3400e-001	279.571533	53.785344
 235	2.3500e-001	280.822754	53.851821
 236	2.3600e-001	282.028198	53.878548
 237	2.3700e-001	283.096313	53.932004
 238	2.3800e-001	284.393311	53.977235
 239	2.3900e-001	285.781860	54.008075
 240	2.4000e-001	286.636353	54.092370
 241	2.4100e-001	287.818909	54.116356
 242	2.4200e-001	289.466858	54.177350
 243	2.4300e-001	290.367126	54.199966
 244	2.4400e-001	291.503906	54.252051
 245	2.4500e-001	292.716980	54.304135
 246	2.4600e-001	293.670654	54.336346
 247	2.4700e-001	295.127869	54.374039
 248	2.4800e-001	296.272278	54.430920
 249	2.4900e-001	297.767639	54.452166
 250	2.5000e-001	298.576355	54.514530
 251	2.5100e-001	300.117493	54.559076
 252	2.5200e-001	298.706055	54.539887
 253	2.5300e-001	297.416687	54.519327
 254	2.5400e-001	296.546936	54.493285
 255	2.5500e-001	295.158386	54.477523
 256	2.5600e-001	293.914795	54.453536
 257	2.5700e-001	292.610168	54.419270
 258	2.5800e-001	291.542053	54.370612
 259	2.5900e-001	290.168762	54.363759
 260	2.6000e-001	289.375305	54.356220
 261	2.6100e-001	287.963867	54.278778
 262	2.6200e-001	286.720276	54.271240
 263	2.6300e-001	285.499573	54.249995
 264	2.6400e-001	284.309387	54.232176
 265	2.6500e-001	282.951355	54.195169
 266	2.6600e-001	282.012939	54.158846
 267	2.6700e-001	280.708313	54.138287
 268	2.6800e-001	279.541016	54.084831
 269	2.6900e-001	278.297424	54.070439
 270	2.7000e-001	277.236938	54.034803
 271	2.7100e-001	276.031494	54.016984
 272	2.7200e-001	274.665833	53.988200
 273	2.7300e-001	273.643494	53.955305
 274	2.7400e-001	272.224426	53.923095
 275	2.7500e-001	271.308899	53.884031
 276	2.7600e-001	269.950867	53.854562
 277	2.7700e-001	268.653870	53.799736
 278	2.7800e-001	267.433167	53.816184
 279	2.7900e-001	266.265869	53.768211
 280	2.8000e-001	265.480042	53.736686
 281	2.8100e-001	263.610840	53.698308
 282	2.8200e-001	262.695313	53.675007
 283	2.8300e-001	261.627197	53.644853
 284	2.8400e-001	260.421753	53.600306
 285	2.8500e-001	259.185791	53.567411
 286	2.8600e-001	257.781982	53.540683
 287	2.8700e-001	256.706238	53.513955
 288	2.8800e-001	255.371094	53.452276
 289	2.8900e-001	254.356384	53.446794
 290	2.9000e-001	253.395081	53.405674
 291	2.9100e-001	251.953125	53.370037
 292	2.9200e-001	250.610352	53.328918
 293	2.9300e-001	249.557495	53.294651
 294	2.9400e-001	248.367310	53.272721
 295	2.9500e-001	246.879578	53.240511
 296	2.9600e-001	246.261597	53.225434
 297	2.9700e-001	244.773865	53.167866
 298	2.9800e-001	243.392944	53.118523
 299	2.9900e-001	242.301941	53.086313
 300	3.0000e-001	241.195679	53.057529
 301	3.0100e-001	239.936829	53.021207
 302	3.0200e-001	238.723755	52.985570
 303	3.0300e-001	237.434387	52.945821
 304	3.0400e-001	236.282349	52.917723
 305	3.0500e-001	235.115051	52.864953
 306	3.0600e-001	233.940125	52.838225
 307	3.0700e-001	232.788086	52.792993
 308	3.0800e-001	231.613159	52.773119
 309	3.0900e-001	230.209351	52.730629
 310	3.1000e-001	229.141235	52.703216
 311	3.1100e-001	227.699280	52.644278
 312	3.1200e-001	226.799011	52.620291
 313	3.1300e-001	225.379944	52.587396
 314	3.1400e-001	224.403381	52.560668
 315	3.1500e-001	223.106384	52.504472
 316	3.1600e-001	221.977234	52.493506
 317	3.1700e-001	220.787048	52.436624
 318	3.1800e-001	219.665527	52.384540
 319	3.1900e-001	218.315125	52.356441
 320	3.2000e-001	217.185974	52.304357
 321	3.2100e-001	215.812683	52.275573
 322	3.2200e-001	214.790344	52.235139
 323	3.2300e-001	213.424683	52.204984
 324	3.2400e-001	212.608337	52.146732
 325	3.2500e-001	211.326599	52.122745
 326	3.2600e-001	210.029602	52.068605
 327	3.2700e-001	208.793640	52.039821
 328	3.2800e-001	207.359314	51.989107
 329	3.2900e-001	206.245422	51.956897
 330	3.3000e-001	205.307007	51.917833
 331	3.3100e-001	204.002380	51.877399
 332	3.3200e-001	202.415466	51.830112
 333	3.3300e-001	201.622009	51.830797
 334	3.3400e-001	200.340271	51.747187
 335	3.3500e-001	199.043274	51.726628
 336	3.3600e-001	198.204041	51.682081
 337	3.3700e-001	196.960449	51.625199
 338	3.3800e-001	195.533752	51.577912
 339	3.3900e-001	194.427490	51.541590
 340	3.4000e-001	193.275452	51.514177
 341	3.4100e-001	192.153931	51.457980
 342	3.4200e-001	190.849304	51.415490
 343	3.4300e-001	189.720154	51.375741
 344	3.4400e-001	188.407898	51.313376
 345	3.4500e-001	186.714172	51.286649
 346	3.4600e-001	186.180115	51.235249
 347	3.4700e-001	184.944153	51.194130
 348	3.4800e-001	183.624268	51.151640
 349	3.4900e-001	182.411194	51.095443
 350	3.5000e-001	181.236267	51.082422
 351	3.5100e-001	179.878235	51.024169
 352	3.5200e-001	178.749084	50.956322
 353	3.5300e-001	177.703857	50.950839
 354	3.5400e-001	176.391602	50.889846
 355	3.5500e-001	175.132751	50.839131
 356	3.5600e-001	173.889160	50.761004
 357	3.5700e-001	172.607422	50.742501
 358	3.5800e-001	171.455383	50.713717
 359	3.5900e-001	170.501709	50.654094
 360	3.6000e-001	169.151306	50.594470
 361	3.6100e-001	167.877197	50.556778
 362	3.6200e-001	166.717529	50.517029
 363	3.6300e-001	165.390015	50.460832
 364	3.6400e-001	164.375305	50.409433
 365	3.6500e-001	162.910461	50.369684
 366	3.6600e-001	162.261963	50.311431
 367	3.6700e-001	160.774231	50.266200
 368	3.6800e-001	159.545898	50.218912
 369	3.6900e-001	158.210754	50.170254
 370	3.7000e-001	157.356262	50.109946
 371	3.7100e-001	155.937195	50.079791
 372	3.7200e-001	155.067444	50.006461
 373	3.7300e-001	153.732300	49.966713
 374	3.7400e-001	152.221680	49.908460
 375	3.7500e-001	151.062012	49.858431
 376	3.7600e-001	150.344849	49.808402
 377	3.7700e-001	148.574829	49.776192
 378	3.7800e-001	147.483826	49.708345
 379	3.7900e-001	146.347046	49.637757
 380	3.8000e-001	145.126343	49.582245
 381	3.8100e-001	143.928528	49.542496
 382	3.8200e-001	142.791748	49.495894
 383	3.8300e-001	141.403198	49.445865
 384	3.8400e-001	140.312195	49.388298
 385	3.8500e-001	139.038086	49.345123
 386	3.8600e-001	137.893677	49.287555
 387	3.8700e-001	136.749268	49.191610
 388	3.8800e-001	135.643005	49.175847
 389	3.8900e-001	134.490967	49.094979
 390	3.9000e-001	133.247375	49.048377
 391	3.9100e-001	131.942749	48.999719
 392	3.9200e-001	130.851746	48.923648
 393	3.9300e-001	129.791260	48.879787
 394	3.9400e-001	128.326416	48.808513
 395	3.9500e-001	127.151489	48.750260
 396	3.9600e-001	126.190186	48.685840
 397	3.9700e-001	124.717712	48.643350
 398	3.9800e-001	123.603821	48.550146
 399	3.9900e-001	122.467041	48.527530
 400	4.0000e-001	121.116638	48.444605
 401	4.0100e-001	119.956970	48.383612
 402	4.0200e-001	118.827820	48.307540
 403	4.0300e-001	117.485046	48.260253
 404	4.0400e-001	116.409302	48.193776
 405	4.0500e-001	115.158081	48.127985
 406	4.0600e-001	113.990784	48.065621
 407	4.0700e-001	112.670898	47.974472
 408	4.0800e-001	111.671448	47.932668
 409	4.0900e-001	110.343933	47.840834
 410	4.1000e-001	109.268188	47.803141
 411	4.1100e-001	108.116150	47.742833
 412	4.1200e-001	106.910706	47.665391
 413	4.1300e-001	105.491638	47.590690
 414	4.1400e-001	104.515076	47.526955
 415	4.1500e-001	103.141785	47.447457
 416	4.1600e-001	101.890564	47.394002
 417	4.1700e-001	100.639343	47.312448
 418	4.1800e-001	99.678040	47.218559
 419	4.1900e-001	98.350525	47.170586
 420	4.2000e-001	97.053528	47.113704
 421	4.2100e-001	95.779419	47.045857
 422	4.2200e-001	94.993591	46.943743
 423	4.2300e-001	93.605042	46.872470
 424	4.2400e-001	92.391968	46.793657
 425	4.2500e-001	90.995789	46.706621
 426	4.2600e-001	89.866638	46.644942
 427	4.2700e-001	88.653564	46.555849
 428	4.2800e-001	87.684631	46.461275
 429	4.2900e-001	86.608887	46.405763
 430	4.3000e-001	85.411072	46.307076
 431	4.3100e-001	84.106445	46.243341
 432	4.3200e-001	82.618713	46.149452
 433	4.3300e-001	81.665039	46.065157
 434	4.3400e-001	80.383301	45.966470
 435	4.3500e-001	79.200745	45.904105
 436	4.3600e-001	77.911377	45.809530
 437	4.3700e-001	76.866150	45.706046
 438	4.3800e-001	75.439453	45.616954
 439	4.3900e-001	74.592590	45.532659
 440	4.4000e-001	73.158264	45.427119
 441	4.4100e-001	72.052002	45.349677
 442	4.4200e-001	70.510864	45.246878
 443	4.4300e-001	69.541931	45.142709
 444	4.4400e-001	68.305969	45.048134
 445	4.4500e-001	67.268372	44.952874
 446	4.4600e-001	65.948486	44.852131
 447	4.4700e-001	64.819336	44.737682
 448	4.4800e-001	63.514709	44.623918
 449	4.4900e-001	62.423706	44.525231
 450	4.5000e-001	61.096191	44.427915
 451	4.5100e-001	59.936523	44.319634
 452	4.5200e-001	58.723450	44.199016
 453	4.5300e-001	57.907104	44.074972
 454	4.5400e-001	56.190491	43.965320
 455	4.5500e-001	55.015564	43.850186
 456	4.5600e-001	53.871155	43.704212
 457	4.5700e-001	52.413940	43.600042
 458	4.5800e-001	51.765442	43.469145
 459	4.5900e-001	50.415039	43.327968
 460	4.6000e-001	49.125671	43.214889
 461	4.6100e-001	48.004150	43.065489
 462	4.6200e-001	46.791077	42.935277
 463	4.6300e-001	45.692444	42.811233
 464	4.6400e-001	44.372559	42.643328
 465	4.6500e-001	43.159485	42.504207
 466	4.6600e-001	42.137146	42.341785
 467	4.6700e-001	40.756226	42.169769
 468	4.6800e-001	39.733887	42.012829
 469	4.6900e-001	38.360596	41.851092
 470	4.7000e-001	36.849976	41.675649
 471	4.7100e-001	36.178589	41.487185
 472	4.7200e-001	34.606934	41.280902
 473	4.7300e-001	33.424377	41.093123
 474	4.7400e-001	32.493591	40.877245
 475	4.7500e-001	31.082153	40.678501
 476	4.7600e-001	30.090332	40.470162
 477	4.7700e-001	28.823853	40.251544
 478	4.7800e-001	27.496338	40.019904
 479	4.7900e-001	26.275635	39.800600
 480	4.8000e-001	25.138855	39.534693
 481	4.8100e-001	23.902893	39.285920
 482	4.8200e-001	22.773743	39.024126
 483	4.8300e-001	21.842957	38.752052
 484	4.8400e-001	20.446777	38.451194
 485	4.8500e-001	18.936157	38.152393
 486	4.8600e-001	18.127441	37.850850
 487	4.8700e-001	16.975403	37.541768
 488	4.8800e-001	15.731812	37.240225
 489	4.8900e-001	14.167786	36.883856
 490	4.9000e-001	13.000488	36.537767
 491	4.9100e-001	11.878967	36.181398
 492	4.9200e-001	10.604858	35.808581
 493	4.9300e-001	9.552002	35.417260
 494	4.9400e-001	8.399963	35.020457
 495	4.9500e-001	7.263184	34.630507
 496	4.9600e-001	5.889893	34.198067
 497	4.9700e-001	4.745483	33.740269
 498	4.9800e-001	3.593445	33.305773
 499	4.9900e-001	2.311707	32.834270
 500	5.0000e-001	1.296997	32.342206
 501	5.0100e-001	0.099182	31.841919
 502	5.0200e-001	-1.213074	31.326554
 503	5.0300e-001	-2.403259	30.793371
 504	5.0400e-001	-3.402710	30.234831
 505	5.0500e-001	-4.882813	29.684515
 506	5.0600e-001	-6.088257	29.088282
 507	5.0700e-001	-7.232666	28.459154
 508	5.0800e-001	-8.354187	27.826599
 509	5.0900e-001	-9.590149	27.185135
 510	5.1000e-001	-10.726929	26.503921
 511	5.1100e-001	-12.054443	25.812428
 512	5.1200e-001	-13.298035	25.066795
 513	5.1300e-001	-14.389038	24.307454
 514	5.1400e-001	-15.647888	23.559079
 515	5.1500e-001	-16.754150	22.764102
 516	5.1600e-001	-17.906189	21.982832
 517	5.1700e-001	-19.279480	21.124119
 518	5.1800e-001	-20.347595	20.255127
 519	5.1900e-001	-21.583557	19.371057
 520	5.2000e-001	-22.789001	18.469170
 521	5.2100e-001	-24.070740	17.543981
 522	5.2200e-001	-25.299072	16.625645
 523	5.2300e-001	-26.130676	15.662763
 524	5.2400e-001	-27.412415	14.695084
 525	5.2500e-001	-28.648376	13.722608
 526	5.2600e-001	-30.006409	12.735740
 527	5.2700e-001	-31.280518	11.731053
 528	5.2800e-001	-32.135010	10.748982
 529	5.2900e-001	-33.576965	9.784730
 530	5.3000e-001	-34.774780	8.764966
 531	5.3100e-001	-36.109924	7.824700
 532	5.3200e-001	-37.452698	6.874154
 533	5.3300e-001	-38.124084	5.965413
 534	5.3400e-001	-39.581299	5.070378
 535	5.3500e-001	-41.015625	4.212351
 536	5.3600e-001	-42.060852	3.388590
 537	5.3700e-001	-42.976379	2.623082
 538	5.3800e-001	-44.288635	1.894581
 539	5.3900e-001	-45.486450	1.185955
 540	5.4000e-001	-46.974182	0.539694
 541	5.4100e-001	-47.889709	-0.099715
 542	5.4200e-001	-49.095154	-0.654143
 543	5.4300e-001	-50.300598	-1.222277
 544	5.4400e-001	-51.467896	-1.728733
 545	5.4500e-001	-52.825928	-2.229020
 546	5.4600e-001	-54.122925	-2.706006
 547	5.4700e-001	-55.282593	-3.198755
 548	5.4800e-001	-56.488037	-3.671629
 549	5.4900e-001	-57.594299	-4.113664
 550	5.5000e-001	-58.731079	-4.563923
 551	5.5100e-001	-59.951782	-5.022405
 552	5.5200e-001	-61.553955	-5.496650
 553	5.5300e-001	-62.355042	-5.940056
 554	5.5400e-001	-63.453674	-6.408133
 555	5.5500e-001	-64.933777	-6.854965
 556	5.5600e-001	-66.024780	-7.333322
 557	5.5700e-001	-67.237854	-7.819902
 558	5.5800e-001	-68.328857	-8.312651
 559	5.5900e-001	-69.671631	-8.807456
 560	5.6000e-001	-70.899963	-9.321450
 561	5.6100e-001	-71.861267	-9.826534
 562	5.6200e-001	-73.036194	-10.357661
 563	5.6300e-001	-74.440002	-10.901810
 564	5.6400e-001	-75.584412	-11.475427
 565	5.6500e-001	-76.766968	-12.018204
 566	5.6600e-001	-78.300476	-12.572632
 567	5.6700e-001	-79.071045	-13.180516
 568	5.6800e-001	-80.245972	-13.802791
 569	5.6900e-001	-81.542969	-14.427807
 570	5.7000e-001	-82.763672	-15.081607
 571	5.7100e-001	-84.480286	-15.753226
 572	5.7200e-001	-85.212708	-16.420047
 573	5.7300e-001	-86.364746	-17.124562
 574	5.7400e-001	-87.532043	-17.856489
 575	5.7500e-001	-88.790894	-18.591843
 576	5.7600e-001	-89.874268	-19.342959
 577	5.7700e-001	-90.927124	-20.126971
 578	5.7800e-001	-92.254639	-20.916466
 579	5.7900e-001	-93.399048	-21.734059
 580	5.8000e-001	-94.818115	-22.572211
 581	5.8100e-001	-95.970154	-23.406937
 582	5.8200e-001	-96.961975	-24.267020
 583	5.8300e-001	-98.190308	-25.122306
 584	5.8400e-001	-99.723816	-26.025564
 585	5.8500e-001	-100.357056	-26.908263
 586	5.8600e-001	-101.852417	-27.786165
 587	5.8700e-001	-103.431702	-28.696962
 588	5.8800e-001	-104.202271	-29.587885
 589	5.8900e-001	-105.606079	-30.467842
 590	5.9000e-001	-106.719971	-31.334778
 591	5.9100e-001	-107.643127	-32.210624
 592	5.9200e-001	-108.993530	-33.034385
 593	5.9300e-001	-110.359192	-33.870481
 594	5.9400e-001	-111.396790	-34.640787
 595	5.9500e-001	-112.754822	-35.401498
 596	5.9600e-001	-113.861084	-36.121774
 597	5.9700e-001	-115.097046	-36.832456
 598	5.9800e-001	-116.424561	-37.494481
 599	5.9900e-001	-117.515564	-38.111273
 600	6.0000e-001	-118.553162	-38.725324
 601	6.0100e-001	-120.117188	-39.317445
 602	6.0200e-001	-121.414185	-39.912993
 603	6.0300e-001	-122.245789	-40.480442
 604	6.0400e-001	-123.336792	-41.043094
 605	6.0500e-001	-124.816895	-41.552291
 606	6.0600e-001	-126.075745	-42.071082
 607	6.0700e-001	-127.304077	-42.588502
 608	6.0800e-001	-128.257751	-43.094272
 609	6.0900e-001	-129.562378	-43.559608
 610	6.1000e-001	-130.783081	-44.018776
 611	6.1100e-001	-132.064819	-44.462866
 612	6.1200e-001	-133.102417	-44.887083
 613	6.1300e-001	-134.399414	-45.285942
 614	6.1400e-001	-135.635376	-45.666297
 615	6.1500e-001	-136.550903	-46.017869
 616	6.1600e-001	-137.939453	-46.344769
 617	6.1700e-001	-139.175415	-46.651795
 618	6.1800e-001	-140.235901	-46.925240
 619	6.1900e-001	-141.540527	-47.184978
 620	6.2000e-001	-142.936707	-47.441975
 621	6.2100e-001	-143.966675	-47.666761
 622	6.2200e-001	-145.278931	-47.857282
 623	6.2300e-001	-146.423340	-48.036152
 624	6.2400e-001	-147.560120	-48.208168
 625	6.2500e-001	-148.826599	-48.352772
 626	6.2600e-001	-149.948120	-48.480928
 627	6.2700e-001	-151.260376	-48.620049
 628	6.2800e-001	-152.557373	-48.722847
 629	6.2900e-001	-153.854370	-48.861968
 630	6.3000e-001	-154.861450	-48.955858
 631	6.3100e-001	-156.127930	-49.031929
 632	6.3200e-001	-157.112122	-49.131301
 633	6.3300e-001	-158.432007	-49.210114
 634	6.3400e-001	-159.500122	-49.287555
 635	6.3500e-001	-160.964966	-49.373906
 636	6.3600e-001	-161.811829	-49.438327
 637	6.3700e-001	-163.002014	-49.532902
 638	6.3800e-001	-164.443970	-49.578819
 639	6.3900e-001	-165.649414	-49.643239
 640	6.4000e-001	-167.083740	-49.720681
 641	6.4100e-001	-167.884827	-49.766598
 642	6.4200e-001	-169.136047	-49.834445
 643	6.4300e-001	-170.616150	-49.900236
 644	6.4400e-001	-171.699524	-49.961230
 645	6.4500e-001	-172.775269	-50.022909
 646	6.4600e-001	-173.927307	-50.064029
 647	6.4700e-001	-175.178528	-50.128449
 648	6.4800e-001	-176.437378	-50.191499
 649	6.4900e-001	-177.734375	-50.233304
 650	6.5000e-001	-178.833008	-50.295669
 651	6.5100e-001	-180.145264	-50.340215
 652	6.5200e-001	-181.297302	-50.397097
 653	6.5300e-001	-182.350159	-50.464944
 654	6.5400e-001	-183.525085	-50.490986
 655	6.5500e-001	-184.761047	-50.553351
 656	6.5600e-001	-186.065674	-50.606121
 657	6.5700e-001	-187.187195	-50.647240
 658	6.5800e-001	-188.491821	-50.693843
 659	6.5900e-001	-189.537048	-50.753466
 660	6.6000e-001	-190.902710	-50.813774
 661	6.6100e-001	-191.864014	-50.863118
 662	6.6200e-001	-193.237305	-50.899440
 663	6.6300e-001	-194.610596	-50.954266
 664	6.6400e-001	-195.602417	-51.002239
 665	6.6500e-001	-196.525574	-51.048841
 666	6.6600e-001	-198.097229	-51.098184
 667	6.6700e-001	-199.104309	-51.144786
 668	6.6800e-001	-200.477600	-51.194130
 669	6.6900e-001	-201.614380	-51.225655
 670	6.7000e-001	-202.667236	-51.274313
 671	6.7100e-001	-203.788757	-51.330510
 672	6.7200e-001	-204.978943	-51.359293
 673	6.7300e-001	-206.359863	-51.410007
 674	6.7400e-001	-207.565308	-51.462777
 675	6.7500e-001	-208.786011	-51.510750
 676	6.7600e-001	-210.258484	-51.562835
 677	6.7700e-001	-211.204529	-51.588877
 678	6.7800e-001	-212.631226	-51.643703
 679	6.7900e-001	-213.691711	-51.689620
 680	6.8000e-001	-214.912415	-51.732795
 681	6.8100e-001	-215.965271	-51.773915
 682	6.8200e-001	-217.269897	-51.815034
 683	6.8300e-001	-218.322754	-51.854783
 684	6.8400e-001	-219.787598	-51.906183
 685	6.8500e-001	-220.909119	-51.946617
 686	6.8600e-001	-221.916199	-51.988422
 687	6.8700e-001	-223.228455	-52.024059
 688	6.8800e-001	-224.555969	-52.075458
 689	6.8900e-001	-225.479126	-52.119319
 690	6.9000e-001	-226.638794	-52.144676
 691	6.9100e-001	-228.080750	-52.189907
 692	6.9200e-001	-229.263306	-52.231027
 693	6.9300e-001	-230.453491	-52.277629
 694	6.9400e-001	-231.483459	-52.331084
 695	6.9500e-001	-232.711792	-52.357127
 696	6.9600e-001	-234.191895	-52.392764
 697	6.9700e-001	-235.359192	-52.457184
 698	6.9800e-001	-236.640930	-52.476373
 699	6.9900e-001	-237.716675	-52.528458
 700	7.0000e-001	-238.876343	-52.556556
 701	7.0100e-001	-240.142822	-52.600417
 702	7.0200e-001	-241.279602	-52.647705
 703	7.0300e-001	-242.485046	-52.684027
 704	7.0400e-001	-243.682861	-52.734741
 705	7.0500e-001	-244.880676	-52.770378
 706	7.0600e-001	-245.956421	-52.790937
 707	7.0700e-001	-247.200012	-52.845763
 708	7.0800e-001	-248.451233	-52.874547
 709	7.0900e-001	-249.343872	-52.931429
 710	7.1000e-001	-250.869751	-52.963639
 711	7.1100e-001	-252.204895	-52.997906
 712	7.1200e-001	-253.211975	-53.055473
 713	7.1300e-001	-254.447937	-53.069865
 714	7.1400e-001	-255.920410	-53.115096
 715	7.1500e-001	-256.652832	-53.157586
 716	7.1600e-001	-258.232117	-53.172664
 717	7.1700e-001	-259.361267	-53.241881
 718	7.1800e-001	-260.208130	-53.256273
 719	7.1900e-001	-261.863708	-53.303561
 720	7.2000e-001	-262.573242	-53.357701
 721	7.2100e-001	-263.893127	-53.373464
 722	7.2200e-001	-265.258789	-53.416639
 723	7.2300e-001	-266.555786	-53.457759
 724	7.2400e-001	-267.471313	-53.493396
 725	7.2500e-001	-269.073486	-53.534515
 726	7.2600e-001	-269.935608	-53.578376
 727	7.2700e-001	-271.179199	-53.618125
 728	7.2800e-001	-272.384644	-53.649650
 729	7.2900e-001	-273.872375	-53.676378
 730	7.3000e-001	-274.902344	-53.730518
 731	7.3100e-001	-275.978088	-53.757931
 732	7.3200e-001	-277.328491	-53.777120
 733	7.3300e-001	-278.320313	-53.839485
 734	7.3400e-001	-279.685974	-53.871695
 735	7.3500e-001	-280.883789	-53.906647
 736	7.3600e-001	-282.096863	-53.946396
 737	7.3700e-001	-283.081055	-53.971753
 738	7.3800e-001	-284.309387	-54.020411
 739	7.3900e-001	-285.766602	-54.051936
 740	7.4000e-001	-286.788940	-54.097852
 741	7.4100e-001	-288.009644	-54.125951
 742	7.4200e-001	-289.031982	-54.162273
 743	7.4300e-001	-290.367126	-54.204763
 744	7.4400e-001	-291.709900	-54.221896
 745	7.4500e-001	-292.922974	-54.278093
 746	7.4600e-001	-294.036865	-54.303450
 747	7.4700e-001	-295.158386	-54.335660
 748	7.4800e-001	-296.249390	-54.379521
 749	7.4900e-001	-297.630310	-54.413787
 750	7.5000e-001	-298.881531	-54.443942
 751	7.5100e-001	-300.048828	-54.483005
 752	7.5200e-001	-299.095154	-54.452166
 753	7.5300e-001	-297.508240	-54.442571
 754	7.5400e-001	-296.432495	-54.423382
 755	7.5500e-001	-295.349121	-54.378150
 756	7.5600e-001	-294.128418	-54.363759
 757	7.5700e-001	-292.816162	-54.326066
 758	7.5800e-001	-291.625977	-54.304821
 759	7.5900e-001	-290.664673	-54.270554
 760	7.6000e-001	-289.382935	-54.232176
 761	7.6100e-001	-287.849426	-54.219155
 762	7.6200e-001	-286.727905	-54.179406
 763	7.6300e-001	-285.804749	-54.151308
 764	7.6400e-001	-284.484863	-54.126636
 765	7.6500e-001	-283.401489	-54.101964
 766	7.6600e-001	-281.860352	-54.077978
 767	7.6700e-001	-280.914307	-54.047138
 768	7.6800e-001	-279.739380	-54.010131
 769	7.6900e-001	-278.579712	-54.002592
 770	7.7000e-001	-277.313232	-53.947766
 771	7.7100e-001	-276.138306	-53.934745
 772	7.7200e-001	-274.871826	-53.899108
 773	7.7300e-001	-273.803711	-53.866898
 774	7.7400e-001	-272.468567	-53.840170
 775	7.7500e-001	-271.141052	-53.808645
 776	7.7600e-001	-269.958496	-53.779862
 777	7.7700e-001	-268.859863	-53.745595
 778	7.7800e-001	-267.539978	-53.719553
 779	7.7900e-001	-266.670227	-53.677748
 780	7.8000e-001	-265.327454	-53.639370
 781	7.8100e-001	-264.244080	-53.611272
 782	7.8200e-001	-263.000488	-53.592768
 783	7.8300e-001	-261.566162	-53.559187
 784	7.8400e-001	-260.589600	-53.539312
 785	7.8500e-001	-259.346008	-53.494081
 786	7.8600e-001	-258.186340	-53.465297
 787	7.8700e-001	-256.896973	-53.444052
 788	7.8800e-001	-255.943298	-53.402933
 789	7.8900e-001	-254.501343	-53.362499
 790	7.9000e-001	-253.280640	-53.339883
 791	7.9100e-001	-252.006531	-53.307673
 792	7.9200e-001	-251.007080	-53.280260
 793	7.9300e-001	-249.557495	-53.240511
 794	7.9400e-001	-248.191833	-53.198021
 795	7.9500e-001	-247.161865	-53.174720
 796	7.9600e-001	-245.971680	-53.139768
 797	7.9700e-001	-244.842529	-53.102075
 798	7.9800e-001	-243.774414	-53.073291
 799	7.9900e-001	-242.622375	-53.029431
 800	8.0000e-001	-241.241455	-53.012983
 801	8.0100e-001	-240.165710	-52.962269
 802	8.0200e-001	-238.922119	-52.941024
 803	8.0300e-001	-237.915039	-52.902645
 804	8.0400e-001	-236.488342	-52.878659
 805	8.0500e-001	-235.275269	-52.846449
 806	8.0600e-001	-233.726501	-52.799847
 807	8.0700e-001	-232.917786	-52.770378
 808	8.0800e-001	-231.529236	-52.736797
 809	8.0900e-001	-230.278015	-52.702531
 810	8.1000e-001	-229.286194	-52.657299
 811	8.1100e-001	-227.790833	-52.653187
 812	8.1200e-001	-226.943970	-52.596990
 813	8.1300e-001	-225.738525	-52.568207
 814	8.1400e-001	-224.502563	-52.535997
 815	8.1500e-001	-223.381042	-52.498989
 816	8.1600e-001	-222.091675	-52.452387
 817	8.1700e-001	-220.985413	-52.425659
 818	8.1800e-001	-219.642639	-52.381113
 819	8.1900e-001	-218.246460	-52.344105
 820	8.2000e-001	-217.468262	-52.311895
 821	8.2100e-001	-216.156006	-52.272832
 822	8.2200e-001	-214.904785	-52.237880
 823	8.2300e-001	-213.653564	-52.195390
 824	8.2400e-001	-212.333679	-52.157697
 825	8.2500e-001	-211.273193	-52.133025
 826	8.2600e-001	-209.877014	-52.087794
 827	8.2700e-001	-208.969116	-52.047360
 828	8.2800e-001	-207.908630	-52.018576
 829	8.2900e-001	-206.344604	-51.982939
 830	8.3000e-001	-205.429077	-51.934281
 831	8.3100e-001	-204.116821	-51.908924
 832	8.3200e-001	-202.674866	-51.868490
 833	8.3300e-001	-201.629639	-51.821202
 834	8.3400e-001	-200.195313	-51.773230
 835	8.3500e-001	-199.241638	-51.764320
 836	8.3600e-001	-197.982788	-51.719774
 837	8.3700e-001	-196.586609	-51.680025
 838	8.3800e-001	-195.655823	-51.632053
 839	8.3900e-001	-194.549561	-51.612864
 840	8.4000e-001	-193.489075	-51.557352
 841	8.4100e-001	-191.909790	-51.532681
 842	8.4200e-001	-190.620422	-51.494302
 843	8.4300e-001	-189.605713	-51.448386
 844	8.4400e-001	-188.217163	-51.409322
 845	8.4500e-001	-187.026978	-51.368888
 846	8.4600e-001	-186.042786	-51.332566
 847	8.4700e-001	-184.761047	-51.296929
 848	8.4800e-001	-183.708191	-51.252383
 849	8.4900e-001	-182.334900	-51.220858
 850	8.5000e-001	-181.282043	-51.185221
 851	8.5100e-001	-179.771423	-51.137248
 852	8.5200e-001	-178.764343	-51.107094
 853	8.5300e-001	-177.749634	-51.051582
 854	8.5400e-001	-176.445007	-51.015260
 855	8.5500e-001	-175.331116	-50.978252
 856	8.5600e-001	-174.102783	-50.933706
 857	8.5700e-001	-172.973633	-50.893272
 858	8.5800e-001	-171.714783	-50.851467
 859	8.5900e-001	-170.402527	-50.808292
 860	8.6000e-001	-169.067383	-50.772655
 861	8.6100e-001	-168.151855	-50.719885
 862	8.6200e-001	-166.763306	-50.698640
 863	8.6300e-001	-165.451050	-50.634219
 864	8.6400e-001	-164.329529	-50.599953
 865	8.6500e-001	-163.032532	-50.571169
 866	8.6600e-001	-161.926270	-50.510861
 867	8.6700e-001	-160.766602	-50.475909
 868	8.6800e-001	-159.759521	-50.431363
 869	8.6900e-001	-158.378601	-50.388188
 870	8.7000e-001	-157.135010	-50.335418
 871	8.7100e-001	-155.838013	-50.284018
 872	8.7200e-001	-154.960632	-50.253178
 873	8.7300e-001	-153.976440	-50.222339
 874	8.7400e-001	-152.519226	-50.179849
 875	8.7500e-001	-151.321411	-50.119540
 876	8.7600e-001	-149.887085	-50.090756
 877	8.7700e-001	-148.979187	-50.051693
 878	8.7800e-001	-147.377014	-49.994126
 879	8.7900e-001	-146.575928	-49.952321
 880	8.8000e-001	-145.324707	-49.897495
 881	8.8100e-001	-143.951416	-49.869396
 882	8.8200e-001	-142.807007	-49.815941
 883	8.8300e-001	-141.387939	-49.770024
 884	8.8400e-001	-140.426636	-49.739870
 885	8.8500e-001	-139.213562	-49.678191
 886	8.8600e-001	-137.817383	-49.647351
 887	8.8700e-001	-137.046814	-49.574707
 888	8.8800e-001	-135.787964	-49.536328
 889	8.8900e-001	-134.498596	-49.489041
 890	8.9000e-001	-133.384705	-49.443810
 891	8.9100e-001	-132.247925	-49.413655
 892	8.9200e-001	-130.729675	-49.360885
 893	8.9300e-001	-129.814148	-49.306059
 894	8.9400e-001	-128.295898	-49.263569
 895	8.9500e-001	-126.930237	-49.206002
 896	8.9600e-001	-125.976563	-49.164882
 897	8.9700e-001	-124.984741	-49.111427
 898	8.9800e-001	-123.756409	-49.062769
 899	8.9900e-001	-122.612000	-49.023705
 900	9.0000e-001	-121.192932	-48.970250
 901	9.0100e-001	-119.987488	-48.919536
 902	9.0200e-001	-118.904114	-48.874990
 903	9.0300e-001	-117.599487	-48.820164
 904	9.0400e-001	-116.371155	-48.774932
 905	9.0500e-001	-115.234375	-48.719421
 906	9.0600e-001	-114.151001	-48.661854
 907	9.0700e-001	-112.884521	-48.628958
 908	9.0800e-001	-111.373901	-48.570020
 909	9.0900e-001	-110.549927	-48.513823
 910	9.1000e-001	-109.199524	-48.461053
 911	9.1100e-001	-107.902527	-48.418563
 912	9.1200e-001	-106.941223	-48.356884
 913	9.1300e-001	-105.659485	-48.298631
 914	9.1400e-001	-104.431152	-48.271218
 915	9.1500e-001	-103.309631	-48.204056
 916	9.1600e-001	-102.043152	-48.151972
 917	9.1700e-001	-100.799561	-48.094404
 918	9.1800e-001	-99.792480	-48.047117
 919	9.1900e-001	-98.564148	-47.984067
 920	9.2000e-001	-97.267151	-47.938150
 921	9.2100e-001	-95.970154	-47.873730
 922	9.2200e-001	-94.627380	-47.831239
 923	9.2300e-001	-93.795776	-47.766819
 924	9.2400e-001	-92.498779	-47.720217
 925	9.2500e-001	-91.285706	-47.640719
 926	9.2600e-001	-90.133667	-47.595488
 927	9.2700e-001	-88.714600	-47.541347
 928	9.2800e-001	-87.768555	-47.472814
 929	9.2900e-001	-86.395264	-47.436492
 930	9.3000e-001	-85.273743	-47.373442
 931	9.3100e-001	-83.999634	-47.304224
 932	9.3200e-001	-82.679749	-47.252140
 933	9.3300e-001	-81.756592	-47.183607
 934	9.3400e-001	-80.436707	-47.134264
 935	9.3500e-001	-79.185486	-47.084920
 936	9.3600e-001	-77.995300	-47.013647
 937	9.3700e-001	-76.606750	-46.943058
 938	9.3800e-001	-75.637817	-46.878638
 939	9.3900e-001	-74.241638	-46.814902
 940	9.4000e-001	-73.211670	-46.764188
 941	9.4100e-001	-72.158813	-46.703194
 942	9.4200e-001	-70.549011	-46.640144
 943	9.4300e-001	-69.839478	-46.575039
 944	9.4400e-001	-68.626404	-46.509247
 945	9.4500e-001	-67.123413	-46.448253
 946	9.4600e-001	-65.765381	-46.381092
 947	9.4700e-001	-64.849854	-46.304335
 948	9.4800e-001	-63.591003	-46.254306
 949	9.4900e-001	-62.202454	-46.166585
 950	9.5000e-001	-61.157227	-46.106276
 951	9.5100e-001	-59.539795	-46.044597
 952	9.5200e-001	-58.753967	-45.966470
 953	9.5300e-001	-57.586670	-45.904105
 954	9.5400e-001	-56.579590	-45.823237
 955	9.5500e-001	-55.397034	-45.759502
 956	9.5600e-001	-54.145813	-45.693710
 957	9.5700e-001	-52.787781	-45.603247
 958	9.5800e-001	-51.551819	-45.538142
 959	9.5900e-001	-50.315857	-45.463441
 960	9.6000e-001	-49.163818	-45.383943
 961	9.6100e-001	-47.843933	-45.296222
 962	9.6200e-001	-46.859741	-45.214668
 963	9.6300e-001	-45.539856	-45.140653
 964	9.6400e-001	-44.334412	-45.059785
 965	9.6500e-001	-43.052673	-44.959042
 966	9.6600e-001	-41.915894	-44.882285
 967	9.6700e-001	-40.939331	-44.802788
 968	9.6800e-001	-39.749146	-44.694506
 969	9.6900e-001	-38.452148	-44.600617
 970	9.7000e-001	-37.071228	-44.514951
 971	9.7100e-001	-35.835266	-44.419691
 972	9.7200e-001	-34.744263	-44.321004
 973	9.7300e-001	-33.699036	-44.208611
 974	9.7400e-001	-32.455444	-44.116777
 975	9.7500e-001	-31.127930	-44.001643
 976	9.7600e-001	-30.014038	-43.896103
 977	9.7700e-001	-28.900146	-43.760408
 978	9.7800e-001	-27.526855	-43.645959
 979	9.7900e-001	-26.473999	-43.509579
 980	9.8000e-001	-25.077820	-43.384850
 981	9.8100e-001	-24.009705	-43.242302
 982	9.8200e-001	-22.987366	-43.088790
 983	9.8300e-001	-21.476746	-42.927053
 984	9.8400e-001	-20.561218	-42.746812
 985	9.8500e-001	-19.485474	-42.579593
 986	9.8600e-001	-18.096924	-42.379478
 987	9.8700e-001	-16.891479	-42.157433
 988	9.8800e-001	-15.884399	-41.945667
 989	9.8900e-001	-14.495850	-41.716769
 990	9.9000e-001	-13.290405	-41.448121
 991	9.9100e-001	-12.100220	-41.195922
 992	9.9200e-001	-10.810852	-40.901917
 993	9.9300e-001	-9.819031	-40.586668
 994	9.9400e-001	-8.300781	-40.250858
 995	9.9500e-001	-7.011414	-39.880097
 996	9.9600e-001	-6.065369	-39.479867
 997	9.9700e-001	-4.989624	-39.077582
 998	9.9800e-001	-3.524780	-38.615672
 999	9.9900e-001	-2.662659	-38.140742
1000	1.0000e+000	-1.441956	-37.614412
1001	1.0010e+000	-0.144958	-37.067523
1002	1.0020e+000	0.793457	-36.487738
1003	1.0030e+000	2.235413	-35.884652
1004	1.0040e+000	3.417969	-35.259635
1005	1.0050e+000	4.570007	-34.581163
1006	1.0060e+000	5.935669	-33.849922
1007	1.0070e+000	7.133484	-33.126218
1008	1.0080e+000	8.056641	-32.353171
1009	1.0090e+000	9.422302	-31.562306
1010	1.0100e+000	10.643005	-30.744713
1011	1.0110e+000	11.787415	-29.890113
1012	1.0120e+000	13.053894	-29.036883
1013	1.0130e+000	14.099121	-28.137051
1014	1.0140e+000	15.213013	-27.237905
1015	1.0150e+000	16.510010	-26.376451
1016	1.0160e+000	17.944336	-25.456059
1017	1.0170e+000	18.920898	-24.576102
1018	1.0180e+000	20.080566	-23.705739
1019	1.0190e+000	21.575928	-22.915559
1020	1.0200e+000	22.544861	-22.185688
1021	1.0210e+000	23.666382	-21.522293
1022	1.0220e+000	25.138855	-20.947991
1023	1.0230e+000	26.229858	-20.400416
1024	1.0240e+000	27.214050	-19.899443
1025	1.0250e+000	28.533936	-19.389561
1026	1.0260e+000	29.800415	-18.851581
1027	1.0270e+000	31.181335	-18.295782
1028	1.0280e+000	32.127380	-17.690640
1029	1.0290e+000	33.531189	-17.031357
1030	1.0300e+000	34.713745	-16.361109
1031	1.0310e+000	35.980225	-15.615476
1032	1.0320e+000	37.055969	-14.865730
1033	1.0330e+000	38.185120	-14.033060
1034	1.0340e+000	39.314270	-13.165438
1035	1.0350e+000	40.672302	-12.277257
1036	1.0360e+000	41.854858	-11.339732
1037	1.0370e+000	42.778015	-10.397410
1038	1.0380e+000	44.113159	-9.378332
1039	1.0390e+000	45.333862	-8.365421
1040	1.0400e+000	46.669006	-7.299055
1041	1.0410e+000	47.767639	-6.247767
1042	1.0420e+000	48.934937	-5.169065
1043	1.0430e+000	50.132751	-4.082824
1044	1.0440e+000	51.483154	-2.994528
1045	1.0450e+000	52.589417	-1.900749
1046	1.0460e+000	53.749084	-0.837810
1047	1.0470e+000	54.962158	0.201828
1048	1.0480e+000	56.152344	1.218165
1049	1.0490e+000	57.243347	2.198866
1050	1.0500e+000	58.647156	3.134334
1051	1.0510e+000	59.555054	4.000585
1052	1.0520e+000	61.065674	4.811325
1053	1.0530e+000	62.286377	5.537084
1054	1.0540e+000	63.453674	6.222410
1055	1.0550e+000	65.055847	6.820698
1056	1.0560e+000	65.780640	7.375812
1057	1.0570e+000	66.871643	7.892547
1058	1.0580e+000	68.168640	8.350344
1059	1.0590e+000	69.587708	8.812939
1060	1.0600e+000	70.625305	9.225504
1061	1.0610e+000	71.754456	9.657259
1062	1.0620e+000	72.990417	10.050636
1063	1.0630e+000	74.180603	10.454978
1064	1.0640e+000	75.737000	10.866858
1065	1.0650e+000	76.393127	11.259549
1066	1.0660e+000	77.926636	11.650870
1067	1.0670e+000	79.277039	12.073030
1068	1.0680e+000	80.375671	12.496561
1069	1.0690e+000	81.588745	12.918036
1070	1.0700e+000	82.786560	13.349791
1071	1.0710e+000	83.808899	13.799364
1072	1.0720e+000	85.128784	14.249623
1073	1.0730e+000	86.051941	14.706735
1074	1.0740e+000	87.524414	15.185092
1075	1.0750e+000	88.623047	15.640833
1076	1.0760e+000	89.973450	16.141120
1077	1.0770e+000	90.995789	16.643463
1078	1.0780e+000	92.399597	17.161569
1079	1.0790e+000	93.544006	17.697494
1080	1.0800e+000	94.825745	18.262887
1081	1.0810e+000	96.015930	18.805664
1082	1.0820e+000	97.076416	19.359407
1083	1.0830e+000	98.190308	19.935080
1084	1.0840e+000	99.540710	20.544334
1085	1.0850e+000	100.700378	21.120693
1086	1.0860e+000	102.020264	21.739541
1087	1.0870e+000	103.019714	22.358390
1088	1.0880e+000	104.324341	22.971756
1089	1.0890e+000	105.705261	23.611849
1090	1.0900e+000	106.742859	24.264279
1091	1.0910e+000	107.719421	24.896149
1092	1.0920e+000	109.031677	25.529389
1093	1.0930e+000	110.336304	26.187301
1094	1.0940e+000	111.427307	26.834248
1095	1.0950e+000	112.716675	27.487363
1096	1.0960e+000	113.883972	28.152128
1097	1.0970e+000	115.066528	28.823062
1098	1.0980e+000	116.416931	29.464526
1099	1.0990e+000	117.294312	30.117641
1100	1.1000e+000	118.835449	30.763902
1101	1.1010e+000	120.086670	31.403996
1102	1.1020e+000	121.109009	32.064650
1103	1.1030e+000	122.337341	32.673218
1104	1.1040e+000	123.588562	33.289326
1105	1.1050e+000	124.778748	33.899950
1106	1.1060e+000	125.961304	34.509204
1107	1.1070e+000	127.166748	35.112290
1108	1.1080e+000	128.112793	35.680425
1109	1.1090e+000	129.608154	36.243762
1110	1.1100e+000	130.661011	36.792022
1111	1.1110e+000	131.958008	37.327947
1112	1.1120e+000	132.972717	37.857018
1113	1.1130e+000	134.223938	38.364158
1114	1.1140e+000	135.681152	38.830865
1115	1.1150e+000	136.520386	39.326355
1116	1.1160e+000	137.878418	39.794432
1117	1.1170e+000	138.954163	40.254970
1118	1.1180e+000	140.113831	40.677130
1119	1.1190e+000	141.441345	41.078046
1120	1.1200e+000	142.799377	41.485814
1121	1.1210e+000	143.829346	41.865484
1122	1.1220e+000	144.989014	42.208832
1123	1.1230e+000	146.339417	42.579593
1124	1.1240e+000	147.544861	42.933906
1125	1.1250e+000	149.070740	43.235449
1126	1.1260e+000	149.864197	43.564405
1127	1.1270e+000	151.229858	43.860466
1128	1.1280e+000	152.160645	44.132540
1129	1.1290e+000	153.778076	44.397075
1130	1.1300e+000	154.663086	44.666408
1131	1.1310e+000	156.173706	44.908328
1132	1.1320e+000	157.112122	45.132429
1133	1.1330e+000	158.271790	45.348307
1134	1.1340e+000	159.774780	45.583373
1135	1.1350e+000	160.728455	45.771152
1136	1.1360e+000	162.117004	45.968526
1137	1.1370e+000	163.192749	46.139857
1138	1.1380e+000	164.474487	46.320098
1139	1.1390e+000	165.641785	46.508562
1140	1.1400e+000	166.870117	46.668928
1141	1.1410e+000	167.961121	46.808734
1142	1.1420e+000	169.097900	46.947855
1143	1.1430e+000	170.204163	47.102054
1144	1.1440e+000	171.531677	47.241860
1145	1.1450e+000	172.714233	47.361792
1146	1.1460e+000	174.285889	47.508451
1147	1.1470e+000	175.125122	47.643460
1148	1.1480e+000	176.338196	47.757224
1149	1.1490e+000	177.574158	47.888121
1150	1.1500e+000	178.802490	47.981326
1151	1.1510e+000	179.878235	48.103999
1152	1.1520e+000	181.259155	48.217763
1153	1.1530e+000	182.426453	48.327415
1154	1.1540e+000	183.502197	48.429528
1155	1.1550e+000	184.677124	48.541236
1156	1.1560e+000	185.951233	48.629643
1157	1.1570e+000	187.042236	48.733127
1158	1.1580e+000	188.583374	48.844835
1159	1.1590e+000	189.590454	48.924333
1160	1.1600e+000	190.475464	49.045636
1161	1.1610e+000	191.902161	49.116224
1162	1.1620e+000	193.038940	49.191610
1163	1.1630e+000	194.374084	49.297150
1164	1.1640e+000	195.381165	49.376648
1165	1.1650e+000	196.800232	49.473278
1166	1.1660e+000	197.975159	49.563056
1167	1.1670e+000	199.180603	49.650092
1168	1.1680e+000	200.248718	49.728219
1169	1.1690e+000	201.354980	49.821424
1170	1.1700e+000	202.659607	49.895439
1171	1.1710e+000	203.926086	49.985216
1172	1.1720e+000	205.307007	50.063343
1173	1.1730e+000	206.336975	50.139415
1174	1.1740e+000	207.695007	50.212744
1175	1.1750e+000	208.663940	50.294298
1176	1.1760e+000	209.945679	50.373796
1177	1.1770e+000	211.280823	50.403265
1178	1.1780e+000	212.371826	50.517029
1179	1.1790e+000	213.645935	50.597212
1180	1.1800e+000	215.057373	50.669171
1181	1.1810e+000	215.858459	50.751410
1182	1.1820e+000	217.155457	50.795956
1183	1.1830e+000	218.292236	50.871342
1184	1.1840e+000	219.604492	50.935762
1185	1.1850e+000	220.695496	51.013889
1186	1.1860e+000	221.931458	51.084478
1187	1.1870e+000	222.938538	51.144101
1188	1.1880e+000	224.540710	51.221543
1189	1.1890e+000	225.524902	51.290761
1190	1.1900e+000	227.005005	51.351069
1191	1.1910e+000	227.882385	51.421658
1192	1.1920e+000	229.080200	51.464148
1193	1.1930e+000	230.033875	51.547758
1194	1.1940e+000	231.933594	51.613549
1195	1.1950e+000	232.856750	51.674543
1196	1.1960e+000	233.848572	51.739649
1197	1.1970e+000	235.420227	51.794475
1198	1.1980e+000	236.587524	51.850671
1199	1.1990e+000	237.518311	51.910295
1200	1.2000e+000	238.899231	51.974715
1201	1.2010e+000	240.043640	52.049416
1202	1.2020e+000	241.142273	52.090535
1203	1.2030e+000	242.477417	52.152214
1204	1.2040e+000	243.316650	52.209096
1205	1.2050e+000	244.895935	52.298189
1206	1.2060e+000	245.956421	52.307783
1207	1.2070e+000	247.367859	52.398246
1208	1.2080e+000	248.535156	52.450331
1209	1.2090e+000	249.732971	52.490080
1210	1.2100e+000	250.793457	52.538052
1211	1.2110e+000	252.143860	52.594249
1212	1.2120e+000	253.135681	52.657299
1213	1.2130e+000	254.264832	52.711440
1214	1.2140e+000	255.653381	52.757357
1215	1.2150e+000	256.729126	52.817665
1216	1.2160e+000	257.804871	52.870435
1217	1.2170e+000	259.147644	52.934170
1218	1.2180e+000	260.337830	52.964325
1219	1.2190e+000	261.497498	53.025319
1220	1.2200e+000	262.794495	53.085627
1221	1.2210e+000	264.068604	53.130173
1222	1.2220e+000	265.113831	53.183629
1223	1.2230e+000	266.464233	53.225434
1224	1.2240e+000	267.509460	53.285057
1225	1.2250e+000	268.966675	53.345365
1226	1.2260e+000	269.882202	53.388541
1227	1.2270e+000	271.102905	53.420751
1228	1.2280e+000	272.544861	53.484486
1229	1.2290e+000	273.422241	53.535201
1230	1.2300e+000	274.742126	53.583859
1231	1.2310e+000	276.023865	53.621552
1232	1.2320e+000	277.160645	53.668154
1233	1.2330e+000	278.480530	53.706532
1234	1.2340e+000	279.747009	53.757931
1235	1.2350e+000	280.715942	53.792197
1236	1.2360e+000	282.066345	53.844968
1237	1.2370e+000	283.073425	53.899108
1238	1.2380e+000	284.301758	53.925836
1239	1.2390e+000	285.423279	53.997795
1240	1.2400e+000	286.857605	54.049194
1241	1.2410e+000	287.780762	54.077293
1242	1.2420e+000	289.299011	54.117042
1243	1.2430e+000	290.367126	54.178721
1244	1.2440e+000	291.801453	54.212987
1245	1.2450e+000	292.938232	54.247939
1246	1.2460e+000	293.754578	54.300023
1247	1.2470e+000	295.005798	54.342514
1248	1.2480e+000	296.447754	54.402822
1249	1.2490e+000	297.492981	54.431606
1250	1.2500e+000	298.820496	54.482320
1251	1.2510e+000	300.125122	54.513845
1252	1.2520e+000	298.965454	54.500138
1253	1.2530e+000	297.531128	54.468613
1254	1.2540e+000	296.592712	54.455592
1255	1.2550e+000	295.135498	54.429550
1256	1.2560e+000	293.937683	54.412417
1257	1.2570e+000	292.503357	54.376094
1258	1.2580e+000	291.786194	54.358961
1259	1.2590e+000	290.016174	54.324010
1260	1.2600e+000	289.115906	54.316471
1261	1.2610e+000	287.986755	54.268498
1262	1.2620e+000	286.727905	54.241771
1263	1.2630e+000	285.324097	54.205449
1264	1.2640e+000	284.599304	54.178036
1265	1.2650e+000	283.149719	54.155420
1266	1.2660e+000	282.173157	54.118412
1267	1.2670e+000	280.754089	54.075922
1268	1.2680e+000	279.380798	54.065642
1269	1.2690e+000	278.358459	54.026579
1270	1.2700e+000	277.008057	54.003278
1271	1.2710e+000	276.023865	53.966270
1272	1.2720e+000	274.978638	53.938857
1273	1.2730e+000	273.399353	53.902535
1274	1.2740e+000	272.407532	53.885402
1275	1.2750e+000	271.064758	53.856618
1276	1.2760e+000	270.072937	53.829205
1277	1.2770e+000	268.608093	53.788086
1278	1.2780e+000	267.585754	53.744225
1279	1.2790e+000	266.265869	53.736686
1280	1.2800e+000	265.251160	53.707217
1281	1.2810e+000	263.893127	53.669524
1282	1.2820e+000	262.611389	53.624293
1283	1.2830e+000	261.482239	53.602362
1284	1.2840e+000	260.192871	53.570152
1285	1.2850e+000	259.056091	53.526291
1286	1.2860e+000	257.751465	53.502990
1287	1.2870e+000	256.721497	53.468724
1288	1.2880e+000	255.622864	53.447479
1289	1.2890e+000	254.234314	53.411157
1290	1.2900e+000	252.990723	53.346051
1291	1.2910e+000	252.098083	53.349477
1292	1.2920e+000	250.762939	53.315211
1293	1.2930e+000	249.748230	53.272721
1294	1.2940e+000	248.435974	53.248049
1295	1.2950e+000	247.001648	53.193909
1296	1.2960e+000	245.773315	53.180202
1297	1.2970e+000	244.499207	53.134971
1298	1.2980e+000	243.629456	53.090425
1299	1.2990e+000	242.454529	53.063697
1300	1.3000e+000	241.294861	53.021892
1301	1.3010e+000	239.891052	52.981458
1302	1.3020e+000	238.922119	52.960898
1303	1.3030e+000	237.541199	52.934856
1304	1.3040e+000	236.442566	52.891680
1305	1.3050e+000	235.183716	52.840966
1306	1.3060e+000	233.909607	52.806700
1307	1.3070e+000	232.658386	52.779972
1308	1.3080e+000	231.491089	52.738167
1309	1.3090e+000	230.323792	52.698419
1310	1.3100e+000	229.225159	52.663467
1311	1.3110e+000	228.042603	52.625089
1312	1.3120e+000	226.814270	52.590823
1313	1.3130e+000	225.471497	52.533941
1314	1.3140e+000	224.441528	52.513381
1315	1.3150e+000	222.877502	52.482541
1316	1.3160e+000	222.023010	52.435254
1317	1.3170e+000	220.901489	52.398931
1318	1.3180e+000	219.749451	52.359183
1319	1.3190e+000	218.406677	52.325602
1320	1.3200e+000	217.231750	52.285168
1321	1.3210e+000	215.934753	52.243363
1322	1.3220e+000	214.920044	52.209782
1323	1.3230e+000	213.859558	52.168662
1324	1.3240e+000	212.303162	52.140564
1325	1.3250e+000	211.082458	52.082311
1326	1.3260e+000	209.922791	52.054213
1327	1.3270e+000	208.671570	52.020632
1328	1.3280e+000	207.565308	51.970603
1329	1.3290e+000	206.550598	51.926057
1330	1.3300e+000	205.635071	51.893162
1331	1.3310e+000	203.926086	51.841762
1332	1.3320e+000	202.941895	51.804069
1333	1.3330e+000	201.553345	51.773915
1334	1.3340e+000	200.454712	51.718404
1335	1.3350e+000	199.272156	51.669746
1336	1.3360e+000	198.112488	51.631367
1337	1.3370e+000	197.204590	51.594360
1338	1.3380e+000	195.640564	51.533366
1339	1.3390e+000	194.381714	51.513491
1340	1.3400e+000	193.161011	51.463463
1341	1.3410e+000	192.016602	51.432623
1342	1.3420e+000	190.879822	51.383965
1343	1.3430e+000	189.628601	51.341475
1344	1.3440e+000	188.621521	51.297614
1345	1.3450e+000	187.072754	51.259236
1346	1.3460e+000	186.096191	51.205095
1347	1.3470e+000	184.768677	51.170829
1348	1.3480e+000	183.837891	51.129024
1349	1.3490e+000	182.327271	51.084478
1350	1.3500e+000	181.381226	51.021428
1351	1.3510e+000	180.046082	50.987847
1352	1.3520e+000	178.802490	50.941245
1353	1.3530e+000	177.612305	50.900811
1354	1.3540e+000	176.292419	50.848041
1355	1.3550e+000	174.934387	50.804180
1356	1.3560e+000	173.820496	50.760319
1357	1.3570e+000	172.782898	50.704122
1358	1.3580e+000	171.501160	50.659576
1359	1.3590e+000	170.188904	50.623254
1360	1.3600e+000	169.105530	50.571855
1361	1.3610e+000	167.709351	50.522511
1362	1.3620e+000	166.793823	50.468371
1363	1.3630e+000	165.611267	50.430678
1364	1.3640e+000	164.550781	50.362831
1365	1.3650e+000	163.475037	50.342956
1366	1.3660e+000	161.720276	50.279906
1367	1.3670e+000	160.682678	50.228507
1368	1.3680e+000	159.538269	50.189443
1369	1.3690e+000	158.195496	50.132561
1370	1.3700e+000	157.119751	50.103092
1371	1.3710e+000	155.982971	50.033874
1372	1.3720e+000	154.808044	49.975622
1373	1.3730e+000	153.686523	49.931076
1374	1.3740e+000	152.381897	49.895439
1375	1.3750e+000	151.130676	49.832389
1376	1.3760e+000	149.879456	49.777563
1377	1.3770e+000	148.811340	49.724793
1378	1.3780e+000	147.666931	49.682988
1379	1.3790e+000	146.270752	49.626791
1380	1.3800e+000	144.729614	49.569909
1381	1.3810e+000	143.882751	49.519195
1382	1.3820e+000	142.906189	49.454775
1383	1.3830e+000	141.548157	49.404746
1384	1.3840e+000	140.350342	49.363626
1385	1.3850e+000	139.091492	49.290982
1386	1.3860e+000	138.107300	49.251918
1387	1.3870e+000	136.688232	49.194351
1388	1.3880e+000	135.452271	49.121707
1389	1.3890e+000	134.460449	49.071678
1390	1.3900e+000	133.171082	49.007257
1391	1.3910e+000	132.080078	48.945578
1392	1.3920e+000	130.615234	48.907200
1393	1.3930e+000	129.318237	48.842094
1394	1.3940e+000	128.448486	48.789324
1395	1.3950e+000	127.090454	48.715994
1396	1.3960e+000	125.862122	48.657742
1397	1.3970e+000	124.717712	48.620049
1398	1.3980e+000	123.466492	48.536439
1399	1.3990e+000	122.543335	48.478186
1400	1.4000e+000	121.185303	48.413766
1401	1.4010e+000	119.750977	48.352772
1402	1.4020e+000	118.751526	48.306170
1403	1.4030e+000	117.637634	48.225987
1404	1.4040e+000	116.348267	48.175273
1405	1.4050e+000	115.196228	48.119076
1406	1.4060e+000	114.021301	48.042320
1407	1.4070e+000	112.777710	47.983382
1408	1.4080e+000	111.572266	47.916220
1409	1.4090e+000	110.374451	47.843575
1410	1.4100e+000	109.184265	47.769560
1411	1.4110e+000	107.917786	47.701713
1412	1.4120e+000	106.918335	47.642775
1413	1.4130e+000	105.606079	47.569445
1414	1.4140e+000	104.331970	47.509137
1415	1.4150e+000	103.103638	47.442660
1416	1.4160e+000	101.966858	47.363848
1417	1.4170e+000	100.990295	47.309022
1418	1.4180e+000	99.716187	47.219244
1419	1.4190e+000	98.167419	47.152768
1420	1.4200e+000	97.122192	47.084235
1421	1.4210e+000	95.893860	47.000625
1422	1.4220e+000	94.680786	46.923184
1423	1.4230e+000	93.513489	46.858763
1424	1.4240e+000	92.185974	46.777209
1425	1.4250e+000	91.133118	46.712789
1426	1.4260e+000	90.148926	46.588745
1427	1.4270e+000	88.768005	46.525010
1428	1.4280e+000	87.524414	46.459904
1429	1.4290e+000	86.601257	46.391371
1430	1.4300e+000	85.014343	46.296797
1431	1.4310e+000	83.793640	46.217299
1432	1.4320e+000	82.679749	46.135745
1433	1.4330e+000	81.611633	46.036373
1434	1.4340e+000	80.413818	45.956875
1435	1.4350e+000	79.216003	45.859559
1436	1.4360e+000	78.132629	45.788285
1437	1.4370e+000	76.652527	45.693025
1438	1.4380e+000	75.355530	45.612842
1439	1.4390e+000	74.104309	45.521694
1440	1.4400e+000	73.181152	45.424378
1441	1.4410e+000	72.044373	45.331173
1442	1.4420e+000	70.808411	45.229060
1443	1.4430e+000	69.717407	45.130373
1444	1.4440e+000	68.389893	45.036484
1445	1.4450e+000	67.237854	44.933685
1446	1.4460e+000	65.910339	44.834313
1447	1.4470e+000	64.727783	44.725346
1448	1.4480e+000	63.552856	44.634883
1449	1.4490e+000	62.400818	44.527287
1450	1.4500e+000	61.264038	44.423803
1451	1.4510e+000	59.875488	44.307298
1452	1.4520e+000	58.647156	44.201072
1453	1.4530e+000	57.746887	44.093476
1454	1.4540e+000	56.312561	43.955726
1455	1.4550e+000	55.114746	43.841962
1456	1.4560e+000	53.771973	43.709694
1457	1.4570e+000	52.742004	43.574000
1458	1.4580e+000	51.445007	43.483537
1459	1.4590e+000	50.392151	43.338933
1460	1.4600e+000	49.301147	43.190218
1461	1.4610e+000	47.813416	43.077139
1462	1.4620e+000	46.852112	42.929794
1463	1.4630e+000	45.280457	42.786561
1464	1.4640e+000	44.395447	42.651552
1465	1.4650e+000	43.128967	42.506263
1466	1.4660e+000	41.893005	42.340415
1467	1.4670e+000	40.580750	42.189643
1468	1.4680e+000	39.535522	42.027221
1469	1.4690e+000	38.360596	41.853148
1470	1.4700e+000	37.467957	41.701692
1471	1.4710e+000	35.949707	41.507745
1472	1.4720e+000	34.591675	41.326819
1473	1.4730e+000	33.660889	41.128760
1474	1.4740e+000	32.424927	40.936869
1475	1.4750e+000	31.250000	40.710711
1476	1.4760e+000	29.853821	40.511967
1477	1.4770e+000	28.816223	40.285810
1478	1.4780e+000	27.542114	40.064450
1479	1.4790e+000	26.351929	39.824586
1480	1.4800e+000	25.169373	39.583352
1481	1.4810e+000	24.040222	39.332523
1482	1.4820e+000	22.994995	39.089232
1483	1.4830e+000	21.476746	38.791801
1484	1.4840e+000	20.439148	38.510818
1485	1.4850e+000	19.508362	38.238058
1486	1.4860e+000	17.745972	37.938571
1487	1.4870e+000	16.853333	37.639084
1488	1.4880e+000	15.518188	37.322464
1489	1.4890e+000	14.312744	36.981857
1490	1.4900e+000	13.198853	36.664552
1491	1.4910e+000	12.260437	36.294476
1492	1.4920e+000	10.696411	35.931939
1493	1.4930e+000	9.475708	35.543360
1494	1.4940e+000	8.605957	35.156837
1495	1.4950e+000	7.072449	34.753865
1496	1.4960e+000	6.217957	34.335132
1497	1.4970e+000	4.570007	33.884188
1498	1.4980e+000	3.517151	33.447636
1499	1.4990e+000	2.403259	32.999433
1500	1.5000e+000	1.152039	32.514908
1501	1.5010e+000	0.144958	32.027642
1502	1.5020e+000	-1.243591	31.521872
1503	1.5030e+000	-2.357483	31.006508
1504	1.5040e+000	-3.547668	30.476066
1505	1.5050e+000	-4.570007	29.883260
1506	1.5060e+000	-5.767822	29.302104
1507	1.5070e+000	-6.958008	28.692850
1508	1.5080e+000	-8.201599	28.097988
1509	1.5090e+000	-9.620667	27.448985
1510	1.5100e+000	-10.665894	26.756121
1511	1.5110e+000	-11.940002	26.079705
1512	1.5120e+000	-13.130188	25.372450
1513	1.5130e+000	-14.404297	24.635040
1514	1.5140e+000	-15.541077	23.872273
1515	1.5150e+000	-17.005920	23.119786
1516	1.5160e+000	-17.997742	22.286431
1517	1.5170e+000	-18.989563	21.457187
1518	1.5180e+000	-20.378113	20.620405
1519	1.5190e+000	-21.499634	19.751413
1520	1.5200e+000	-22.789001	18.876253
1521	1.5210e+000	-23.963928	17.959973
1522	1.5220e+000	-25.047302	17.023819
1523	1.5230e+000	-26.504517	16.082182
1524	1.5240e+000	-27.549744	15.103538
1525	1.5250e+000	-28.648376	14.152992
1526	1.5260e+000	-29.708862	13.162697
1527	1.5270e+000	-31.265259	12.164178
1528	1.5280e+000	-32.035828	11.173198
1529	1.5290e+000	-33.325195	10.181533
1530	1.5300e+000	-34.667969	9.182329
1531	1.5310e+000	-35.667419	8.221503
1532	1.5320e+000	-37.559509	7.262733
1533	1.5330e+000	-38.467407	6.326579
1534	1.5340e+000	-39.382935	5.417838
1535	1.5350e+000	-40.809631	4.527600
1536	1.5360e+000	-42.022705	3.697672
1537	1.5370e+000	-43.106079	2.910233
1538	1.5380e+000	-44.151306	2.155690
1539	1.5390e+000	-45.791626	1.435413
1540	1.5400e+000	-46.638489	0.752144
1541	1.5410e+000	-47.943115	0.111365
1542	1.5420e+000	-49.293518	-0.460881
1543	1.5430e+000	-50.384521	-1.033128
1544	1.5440e+000	-51.536560	-1.597150
1545	1.5450e+000	-52.581787	-2.089214
1546	1.5460e+000	-53.825378	-2.599781
1547	1.5470e+000	-55.061340	-3.087732
1548	1.5480e+000	-56.388855	-3.541418
1549	1.5490e+000	-57.426453	-3.993732
1550	1.5500e+000	-58.776855	-4.465921
1551	1.5510e+000	-59.814453	-4.945649
1552	1.5520e+000	-61.264038	-5.390425
1553	1.5530e+000	-62.355042	-5.847537
1554	1.5540e+000	-63.545227	-6.301907
1555	1.5550e+000	-64.620972	-6.776152
1556	1.5560e+000	-65.963745	-7.262048
1557	1.5570e+000	-67.146301	-7.737663
1558	1.5580e+000	-68.428040	-8.222874
1559	1.5590e+000	-69.435120	-8.716993
1560	1.5600e+000	-70.762634	-9.274848
1561	1.5610e+000	-71.929932	-9.758002
1562	1.5620e+000	-72.982788	-10.293241
1563	1.5630e+000	-74.371338	-10.822997
1564	1.5640e+000	-75.370789	-11.371257
1565	1.5650e+000	-76.766968	-11.938021
1566	1.5660e+000	-78.186035	-12.523974
1567	1.5670e+000	-79.238892	-13.125004
1568	1.5680e+000	-80.307007	-13.722608
1569	1.5690e+000	-81.489563	-14.342827
1570	1.5700e+000	-82.580566	-14.991830
1571	1.5710e+000	-83.816528	-15.652483
1572	1.5720e+000	-85.006714	-16.354256
1573	1.5730e+000	-86.242676	-17.026560
1574	1.5740e+000	-87.539673	-17.768082
1575	1.5750e+000	-88.844299	-18.510974
1576	1.5760e+000	-89.569092	-19.232622
1577	1.5770e+000	-90.972900	-20.031026
1578	1.5780e+000	-92.414856	-20.828744
1579	1.5790e+000	-93.475342	-21.651134
1580	1.5800e+000	-94.932556	-22.485860
1581	1.5810e+000	-95.863342	-23.324698
1582	1.5820e+000	-97.160339	-24.183411
1583	1.5830e+000	-98.426819	-25.059256
1584	1.5840e+000	-99.601746	-25.959088
1585	1.5850e+000	-100.479126	-26.837675
1586	1.5860e+000	-101.829529	-27.734080
1587	1.5870e+000	-103.050232	-28.643506
1588	1.5880e+000	-104.263306	-29.561842
1589	1.5890e+000	-105.682373	-30.463045
1590	1.5900e+000	-106.643677	-31.350541
1591	1.5910e+000	-107.826233	-32.233925
1592	1.5920e+000	-109.001160	-33.100176
1593	1.5930e+000	-110.191345	-33.969168
1594	1.5940e+000	-111.457825	-34.790188
1595	1.5950e+000	-112.693787	-35.588591
1596	1.5960e+000	-114.044189	-36.392478
1597	1.5970e+000	-115.005493	-37.112069
1598	1.5980e+000	-116.401672	-37.830290
1599	1.5990e+000	-117.736816	-38.495055
1600	1.6000e+000	-118.637085	-39.175583
1601	1.6010e+000	-119.987488	-39.791005
1602	1.6020e+000	-121.116638	-40.391350
1603	1.6030e+000	-122.238159	-40.973191
1604	1.6040e+000	-123.634338	-41.544752
1605	1.6050e+000	-124.732971	-42.102607
1606	1.6060e+000	-125.946045	-42.640587
1607	1.6070e+000	-127.067566	-43.162119
1608	1.6080e+000	-128.349304	-43.655553
1609	1.6090e+000	-129.699707	-44.134596
1610	1.6100e+000	-130.592346	-44.600617
1611	1.6110e+000	-131.805420	-45.026204
1612	1.6120e+000	-133.033752	-45.418895
1613	1.6130e+000	-134.368896	-45.809530
1614	1.6140e+000	-135.360718	-46.152878
1615	1.6150e+000	-136.779785	-46.485261
1616	1.6160e+000	-137.977600	-46.779951
1617	1.6170e+000	-139.343262	-47.053395
1618	1.6180e+000	-140.296936	-47.309022
1619	1.6190e+000	-141.571045	-47.532438
1620	1.6200e+000	-142.807007	-47.746944
1621	1.6210e+000	-143.791199	-47.943633
1622	1.6220e+000	-145.370483	-48.113593
1623	1.6230e+000	-146.217346	-48.270533
1624	1.6240e+000	-147.438049	-48.435696
1625	1.6250e+000	-148.788452	-48.537124
1626	1.6260e+000	-149.902344	-48.681043
1627	1.6270e+000	-151.115417	-48.774932
1628	1.6280e+000	-152.450562	-48.889381
1629	1.6290e+000	-153.602600	-48.989439
1630	1.6300e+000	-154.731750	-49.068937
1631	1.6310e+000	-156.066895	-49.163512
1632	1.6320e+000	-157.493591	-49.244380
1633	1.6330e+000	-158.370972	-49.316339
1634	1.6340e+000	-159.584045	-49.397207
1635	1.6350e+000	-160.881042	-49.471908
1636	1.6360e+000	-162.010193	-49.537014
1637	1.6370e+000	-163.185120	-49.604861
1638	1.6380e+000	-164.566040	-49.670652
1639	1.6390e+000	-165.534973	-49.735073
1640	1.6400e+000	-166.801453	-49.803605
1641	1.6410e+000	-167.877197	-49.871452
1642	1.6420e+000	-169.013977	-49.918740
1643	1.6430e+000	-170.379639	-49.983160
1644	1.6440e+000	-171.546936	-50.035930
1645	1.6450e+000	-172.836304	-50.099666
1646	1.6460e+000	-173.973083	-50.142156
1647	1.6470e+000	-175.354004	-50.210688
1648	1.6480e+000	-176.528931	-50.251123
1649	1.6490e+000	-177.627563	-50.331306
1650	1.6500e+000	-178.581238	-50.376537
1651	1.6510e+000	-179.977417	-50.403950
1652	1.6520e+000	-181.434631	-50.468371
1653	1.6530e+000	-182.449341	-50.515658
1654	1.6540e+000	-183.853149	-50.570484
1655	1.6550e+000	-184.806824	-50.638331
1656	1.6560e+000	-185.874939	-50.681507
1657	1.6570e+000	-187.049866	-50.726738
1658	1.6580e+000	-188.316345	-50.763746
1659	1.6590e+000	-189.613342	-50.813089
1660	1.6600e+000	-190.803528	-50.872027
1661	1.6610e+000	-191.993713	-50.899440
1662	1.6620e+000	-193.290710	-50.962490
1663	1.6630e+000	-194.236755	-50.998812
1664	1.6640e+000	-195.625305	-51.047470
1665	1.6650e+000	-196.716309	-51.115318
1666	1.6660e+000	-197.998047	-51.123541
1667	1.6670e+000	-199.249268	-51.207151
1668	1.6680e+000	-200.431824	-51.245529
1669	1.6690e+000	-201.622009	-51.280481
1670	1.6700e+000	-202.880859	-51.338734
1671	1.6710e+000	-204.132080	-51.381909
1672	1.6720e+000	-205.238342	-51.420973
1673	1.6730e+000	-206.329346	-51.486764
1674	1.6740e+000	-207.695007	-51.510065
1675	1.6750e+000	-208.778381	-51.572429
1676	1.6760e+000	-210.151672	-51.607381
1677	1.6770e+000	-211.380005	-51.637535
1678	1.6780e+000	-212.226868	-51.701270
1679	1.6790e+000	-213.439941	-51.725257
1680	1.6800e+000	-214.744568	-51.782139
1681	1.6810e+000	-215.934753	-51.813664
1682	1.6820e+000	-217.086792	-51.856154
1683	1.6830e+000	-218.444824	-51.915092
1684	1.6840e+000	-219.688416	-51.940449
1685	1.6850e+000	-220.954895	-51.991848
1686	1.6860e+000	-221.893311	-52.034339
1687	1.6870e+000	-223.274231	-52.075458
1688	1.6880e+000	-224.624634	-52.124116
1689	1.6890e+000	-225.547791	-52.155641
1690	1.6900e+000	-226.684570	-52.211838
1691	1.6910e+000	-227.989197	-52.255013
1692	1.6920e+000	-229.171753	-52.279000
1693	1.6930e+000	-230.506897	-52.328343
1694	1.6940e+000	-231.727600	-52.363980
1695	1.6950e+000	-232.971191	-52.406470
1696	1.6960e+000	-233.993530	-52.450331
1697	1.6970e+000	-234.924316	-52.483226
1698	1.6980e+000	-236.389160	-52.516122
1699	1.6990e+000	-237.640381	-52.573004
1700	1.7000e+000	-238.983154	-52.617550
1701	1.7010e+000	-239.959717	-52.661411
1702	1.7020e+000	-241.325378	-52.686768
1703	1.7030e+000	-242.599487	-52.738167
1704	1.7040e+000	-243.782043	-52.766951
1705	1.7050e+000	-244.812012	-52.814924
1706	1.7060e+000	-246.170044	-52.847819
1707	1.7070e+000	-247.505188	-52.884827
1708	1.7080e+000	-248.466492	-52.917037
1709	1.7090e+000	-249.656677	-52.962954
1710	1.7100e+000	-250.907898	-52.999276
1711	1.7110e+000	-252.075195	-53.043137
1712	1.7120e+000	-253.051758	-53.078089
1713	1.7130e+000	-254.249573	-53.121264
1714	1.7140e+000	-255.218506	-53.173349
1715	1.7150e+000	-256.767273	-53.182943
1716	1.7160e+000	-258.079529	-53.240511
1717	1.7170e+000	-259.078979	-53.287113
1718	1.7180e+000	-260.345459	-53.324806
1719	1.7190e+000	-261.688232	-53.365240
1720	1.7200e+000	-262.969971	-53.384429
1721	1.7210e+000	-264.076233	-53.434458
1722	1.7220e+000	-265.350342	-53.484486
1723	1.7230e+000	-266.441345	-53.493396
1724	1.7240e+000	-267.364502	-53.542054
1725	1.7250e+000	-268.928528	-53.582488
1726	1.7260e+000	-270.111084	-53.606474
1727	1.7270e+000	-271.263123	-53.661986
1728	1.7280e+000	-272.628784	-53.688713
1729	1.7290e+000	-273.612976	-53.736686
1730	1.7300e+000	-274.909973	-53.779176
1731	1.7310e+000	-275.924683	-53.805219
1732	1.7320e+000	-277.153015	-53.838800
1733	1.7330e+000	-278.396606	-53.848394
1734	1.7340e+000	-279.922485	-53.925151
1735	1.7350e+000	-280.784607	-53.958731
1736	1.7360e+000	-282.104492	-53.985459
1737	1.7370e+000	-283.294678	-54.022467
1738	1.7380e+000	-284.210205	-54.046453
1739	1.7390e+000	-285.736084	-54.095111
1740	1.7400e+000	-287.246704	-54.131433
1741	1.7410e+000	-288.108826	-54.147196
1742	1.7420e+000	-289.245605	-54.195169
1743	1.7430e+000	-290.405273	-54.239715
1744	1.7440e+000	-291.465759	-54.244512
1745	1.7450e+000	-292.762756	-54.317157
1746	1.7460e+000	-293.975830	-54.330178
1747	1.7470e+000	-295.066833	-54.384318
1748	1.7480e+000	-296.279907	-54.424753
1749	1.7490e+000	-297.805786	-54.452166
1750	1.7500e+000	-299.003601	-54.493285
1751	1.7510e+000	-299.819946	-54.513845
1752	1.7520e+000	-299.041748	-54.502194
1753	1.7530e+000	-297.698975	-54.469299
1754	1.7540e+000	-296.401978	-54.445998
1755	1.7550e+000	-295.486450	-54.428179
1756	1.7560e+000	-294.311523	-54.389116
1757	1.7570e+000	-293.144226	-54.356220
1758	1.7580e+000	-291.511536	-54.356905
1759	1.7590e+000	-290.519714	-54.308933
1760	1.7600e+000	-289.192200	-54.273981
1761	1.7610e+000	-288.101196	-54.253421
1762	1.7620e+000	-286.918640	-54.221211
1763	1.7630e+000	-285.888672	-54.193113
1764	1.7640e+000	-284.652710	-54.160217
1765	1.7650e+000	-283.195496	-54.131433
1766	1.7660e+000	-282.226563	-54.108132
1767	1.7670e+000	-281.051636	-54.069754
1768	1.7680e+000	-279.670715	-54.045768
1769	1.7690e+000	-278.579712	-54.025208
1770	1.7700e+000	-277.305603	-53.964214
1771	1.7710e+000	-275.817871	-53.952564
1772	1.7720e+000	-274.894714	-53.938172
1773	1.7730e+000	-273.887634	-53.904591
1774	1.7740e+000	-272.247314	-53.862786
1775	1.7750e+000	-271.392822	-53.830576
1776	1.7760e+000	-269.874573	-53.822352
1777	1.7770e+000	-268.836975	-53.777120
1778	1.7780e+000	-267.524719	-53.746281
1779	1.7790e+000	-266.433716	-53.718182
1780	1.7800e+000	-265.281677	-53.680489
1781	1.7810e+000	-263.908386	-53.664042
1782	1.7820e+000	-262.809753	-53.618125
1783	1.7830e+000	-261.772156	-53.574949
1784	1.7840e+000	-260.467529	-53.565355
1785	1.7850e+000	-259.323120	-53.527662
1786	1.7860e+000	-257.812500	-53.507788
1787	1.7870e+000	-256.828308	-53.461185
1788	1.7880e+000	-255.783081	-53.435143
1789	1.7890e+000	-254.402161	-53.404303
1790	1.7900e+000	-253.448486	-53.371408
1791	1.7910e+000	-251.968384	-53.339198
1792	1.7920e+000	-250.671387	-53.310414
1793	1.7930e+000	-249.504089	-53.263126
1794	1.7940e+000	-248.344421	-53.245993
1795	1.7950e+000	-247.222900	-53.207615
1796	1.7960e+000	-246.170044	-53.177461
1797	1.7970e+000	-244.598389	-53.141139
1798	1.7980e+000	-243.675232	-53.089739
1799	1.7990e+000	-242.469788	-53.071921
1800	1.8000e+000	-241.264343	-53.036284
1801	1.8010e+000	-240.165710	-53.005444
1802	1.8020e+000	-239.234924	-52.988311
1803	1.8030e+000	-237.731934	-52.927317
1804	1.8040e+000	-236.450195	-52.910869
1805	1.8050e+000	-235.267639	-52.871806
1806	1.8060e+000	-233.917236	-52.841652
1807	1.8070e+000	-232.841492	-52.814924
1808	1.8080e+000	-231.445313	-52.774490
1809	1.8090e+000	-230.300903	-52.734741
1810	1.8100e+000	-229.209900	-52.693621
1811	1.8110e+000	-228.157043	-52.655243
1812	1.8120e+000	-226.913452	-52.631257
1813	1.8130e+000	-225.486755	-52.599046
1814	1.8140e+000	-224.548340	-52.559983
1815	1.8150e+000	-223.358154	-52.529829
1816	1.8160e+000	-221.954346	-52.486653
1817	1.8170e+000	-220.748901	-52.446219
1818	1.8180e+000	-219.276428	-52.405099
1819	1.8190e+000	-218.353271	-52.374945
1820	1.8200e+000	-217.041016	-52.350959
1821	1.8210e+000	-216.049194	-52.304357
1822	1.8220e+000	-214.714050	-52.269405
1823	1.8230e+000	-213.592529	-52.261181
1824	1.8240e+000	-212.249756	-52.197446
1825	1.8250e+000	-211.296082	-52.169348
1826	1.8260e+000	-209.831238	-52.118633
1827	1.8270e+000	-208.885193	-52.081626
1828	1.8280e+000	-207.603455	-52.053528
1829	1.8290e+000	-206.398010	-52.001443
1830	1.8300e+000	-205.009460	-51.982254
1831	1.8310e+000	-203.880310	-51.949358
1832	1.8320e+000	-202.613831	-51.899329
1833	1.8330e+000	-201.538086	-51.876714
1834	1.8340e+000	-200.103760	-51.835594
1835	1.8350e+000	-199.256897	-51.800643
1836	1.8360e+000	-197.921753	-51.749243
1837	1.8370e+000	-196.891785	-51.710180
1838	1.8380e+000	-195.526123	-51.690991
1839	1.8390e+000	-194.374084	-51.644389
1840	1.8400e+000	-192.901611	-51.606010
1841	1.8410e+000	-191.825867	-51.564891
1842	1.8420e+000	-190.742493	-51.529254
1843	1.8430e+000	-189.399719	-51.486764
1844	1.8440e+000	-188.568115	-51.445644
1845	1.8450e+000	-187.423706	-51.405210
1846	1.8460e+000	-185.745239	-51.371629
1847	1.8470e+000	-184.532166	-51.324342
1848	1.8480e+000	-183.509827	-51.277740
1849	1.8490e+000	-182.189941	-51.251012
1850	1.8500e+000	-181.129456	-51.196186
1851	1.8510e+000	-179.954529	-51.171514
1852	1.8520e+000	-178.825378	-51.125597
1853	1.8530e+000	-177.627563	-51.097499
1854	1.8540e+000	-176.589966	-51.065974
1855	1.8550e+000	-175.086975	-51.013889
1856	1.8560e+000	-174.324036	-50.967287
1857	1.8570e+000	-172.714233	-50.913832
1858	1.8580e+000	-171.569824	-50.882307
1859	1.8590e+000	-169.960022	-50.842558
1860	1.8600e+000	-169.357300	-50.796641
1861	1.8610e+000	-168.098450	-50.756207
1862	1.8620e+000	-166.839600	-50.721941
1863	1.8630e+000	-165.603638	-50.689731
1864	1.8640e+000	-164.466858	-50.667115
1865	1.8650e+000	-163.146973	-50.593785
1866	1.8660e+000	-161.911011	-50.556092
1867	1.8670e+000	-160.736084	-50.510175
1868	1.8680e+000	-159.584045	-50.468371
1869	1.8690e+000	-158.325195	-50.430678
1870	1.8700e+000	-157.028198	-50.383390
1871	1.8710e+000	-156.097412	-50.340900
1872	1.8720e+000	-154.907227	-50.305263
1873	1.8730e+000	-154.029846	-50.246325
1874	1.8740e+000	-152.427673	-50.201094
1875	1.8750e+000	-150.978088	-50.166142
1876	1.8760e+000	-150.100708	-50.119540
1877	1.8770e+000	-148.742676	-50.073623
1878	1.8780e+000	-147.155762	-50.009203
1879	1.8790e+000	-146.484375	-49.983160
1880	1.8800e+000	-145.095825	-49.935188
1881	1.8810e+000	-143.798828	-49.889956
1882	1.8820e+000	-142.662048	-49.849522
1883	1.8830e+000	-141.769409	-49.813200
1884	1.8840e+000	-140.441895	-49.757688
1885	1.8850e+000	-138.999939	-49.713142
1886	1.8860e+000	-137.908936	-49.663114
1887	1.8870e+000	-136.695862	-49.624050
1888	1.8880e+000	-135.528564	-49.571280
1889	1.8890e+000	-134.468079	-49.513713
1890	1.8900e+000	-133.102417	-49.485614
1891	1.8910e+000	-131.927490	-49.432844
1892	1.8920e+000	-130.752563	-49.395837
1893	1.8930e+000	-129.463196	-49.329360
1894	1.8940e+000	-128.265381	-49.271108
1895	1.8950e+000	-127.227783	-49.250548
1896	1.8960e+000	-126.060486	-49.187498
1897	1.8970e+000	-124.542236	-49.148434
1898	1.8980e+000	-123.420715	-49.110742
1899	1.8990e+000	-122.215271	-49.058657
1900	1.9000e+000	-121.368408	-49.023705
1901	1.9010e+000	-120.010376	-48.964767
1902	1.9020e+000	-118.896484	-48.912683
1903	1.9030e+000	-117.630005	-48.861283
1904	1.9040e+000	-116.073608	-48.796863
1905	1.9050e+000	-115.219116	-48.770820
1906	1.9060e+000	-114.135742	-48.711882
1907	1.9070e+000	-112.655640	-48.663910
1908	1.9080e+000	-111.450195	-48.598118
1909	1.9090e+000	-110.366821	-48.550146
1910	1.9100e+000	-109.115601	-48.509026
1911	1.9110e+000	-107.887268	-48.454200
1912	1.9120e+000	-106.681824	-48.398003
1913	1.9130e+000	-105.781555	-48.363737
1914	1.9140e+000	-104.316711	-48.295205
1915	1.9150e+000	-103.218079	-48.234211
1916	1.9160e+000	-102.256775	-48.192406
1917	1.9170e+000	-100.860596	-48.137580
1918	1.9180e+000	-99.525452	-48.078642
1919	1.9190e+000	-98.350525	-48.036837
1920	1.9200e+000	-97.236633	-47.971046
1921	1.9210e+000	-96.168518	-47.907311
1922	1.9220e+000	-94.985962	-47.829869
1923	1.9230e+000	-93.338013	-47.789435
1924	1.9240e+000	-92.414856	-47.755854
1925	1.9250e+000	-91.308594	-47.684580
1926	1.9260e+000	-90.095520	-47.642775
1927	1.9270e+000	-88.806152	-47.580410
1928	1.9280e+000	-87.753296	-47.532438
1929	1.9290e+000	-86.265564	-47.462535
1930	1.9300e+000	-85.136414	-47.402226
1931	1.9310e+000	-84.007263	-47.346029
1932	1.9320e+000	-82.771301	-47.287777
1933	1.9330e+000	-81.497192	-47.236377
1934	1.9340e+000	-80.253601	-47.182922
1935	1.9350e+000	-79.299927	-47.105480
1936	1.9360e+000	-78.048706	-47.049284
1937	1.9370e+000	-76.652527	-46.969100
1938	1.9380e+000	-75.370789	-46.904680
1939	1.9390e+000	-74.607849	-46.862190
1940	1.9400e+000	-73.272705	-46.807364
1941	1.9410e+000	-71.998596	-46.738831
1942	1.9420e+000	-70.663452	-46.694285
1943	1.9430e+000	-69.641113	-46.601081
1944	1.9440e+000	-68.534851	-46.555849
1945	1.9450e+000	-67.260742	-46.481149
1946	1.9460e+000	-66.024780	-46.426323
1947	1.9470e+000	-64.956665	-46.331748
1948	1.9480e+000	-63.896179	-46.276237
1949	1.9490e+000	-62.614441	-46.226893
1950	1.9500e+000	-61.157227	-46.152193
1951	1.9510e+000	-59.921265	-46.095996
1952	1.9520e+000	-58.723450	-46.021981
1953	1.9530e+000	-57.678223	-45.930148
1954	1.9540e+000	-56.068420	-45.881489
1955	1.9550e+000	-55.282593	-45.788285
1956	1.9560e+000	-54.153442	-45.736201
1957	1.9570e+000	-52.841187	-45.642311
1958	1.9580e+000	-51.467896	-45.588170
1959	1.9590e+000	-50.361633	-45.501134
1960	1.9600e+000	-49.240112	-45.422322
1961	1.9610e+000	-48.362732	-45.327747
1962	1.9620e+000	-46.760559	-45.277718
1963	1.9630e+000	-45.616150	-45.181773
1964	1.9640e+000	-44.525146	-45.099534
1965	1.9650e+000	-43.273926	-45.015924
1966	1.9660e+000	-42.007446	-44.917922
1967	1.9670e+000	-40.771484	-44.806900
1968	1.9680e+000	-39.588928	-44.738367
1969	1.9690e+000	-38.459778	-44.649960
1970	1.9700e+000	-37.384033	-44.575945
1971	1.9710e+000	-36.201477	-44.464237
1972	1.9720e+000	-34.950256	-44.364865
1973	1.9730e+000	-33.607483	-44.249045
1974	1.9740e+000	-32.295227	-44.159267
1975	1.9750e+000	-31.463623	-44.061951
1976	1.9760e+000	-29.968262	-43.913236
1977	1.9770e+000	-28.640747	-43.829626
1978	1.9780e+000	-27.603149	-43.703526
1979	1.9790e+000	-26.695251	-43.567147
1980	1.9800e+000	-25.291443	-43.439676
1981	1.9810e+000	-23.803711	-43.293016
1982	1.9820e+000	-22.842407	-43.147042
1983	1.9830e+000	-21.774292	-42.996271
1984	1.9840e+000	-20.195007	-42.814660
1985	1.9850e+000	-19.287109	-42.648811
1986	1.9860e+000	-18.005371	-42.443899
1987	1.9870e+000	-16.929626	-42.242413
1988	1.9880e+000	-15.846252	-42.035445
1989	1.9890e+000	-14.297485	-41.799693
1990	1.9900e+000	-13.214111	-41.553661
1991	1.9910e+000	-11.985779	-41.288440
1992	1.9920e+000	-11.032104	-41.007457
1993	1.9930e+000	-9.696960	-40.683984
1994	1.9940e+000	-8.384705	-40.338580
1995	1.9950e+000	-7.369995	-40.004826
1996	1.9960e+000	-6.202698	-39.624471
1997	1.9970e+000	-4.814148	-39.213276
1998	1.9980e+000	-3.601074	-38.772612
1999	1.9990e+000	-2.433777	-38.298367
2000	2.0000e+000	-1.327515	-37.800821
2001	2.0010e+000	-0.091553	-37.269009

Center data before PMax,±Pr and ±Vc Calc.

PMax (µC/cm2):	5.45e+001
Pr (µC/cm2):	3.20e+001
-Pr (µC/cm2):	-3.73e+001
Vc:	5.47e-001
-Vc:	-4.82e-001
C (Max-Eff) (nF):	1.13e+000
K (Eff):	2.05e+003
Vert. (±Pr) Shift (µC/cm2):	-2.65e+000
Horiz. Shift (±Vc):	3.26e-002
Offset (µC/cm2):	2.23e+001

A (Loop Area - µC/cm2·Volts):	1.10e+002



Hysteresis Version: 5.16.2 - Radiant Technologies, Inc., 1999 - 3/20/18

