»»»»»»»»»»»»»»»»»»»»»»»»»»»»»»»»»»»» Hysteresis ««««««««««««««««««««««««««««««««««««
»»»  Executed Version:	5.12.0
»»»  Vision Version:	5.12.5 (R)
»»»  Vision Compiled:	2/24/17
»»»  Driver Version:	5.12.4
»»»  Windows Version:	Windows 7
»»»  Processor Information:	x86 (AMD or Intel) - 2 Processors
»»»  Tester Name:	PMF0910-256
»»»  Tester S/N:	PMF0910-256
»»»  Internal Amp Type:	 RTI 100V      
»»»  Internal Amp S/N:	 iAB1-0000     
»»»  Execution Count:	1
»»»»»»»»»»»»»»»»»»»»»»»»»»»»»»»»»»»»»»»»»»««««««««««««««««««««««««««««««««««««««««««

Stored:	6/19/2017 - 11:0:42
Configured:	06/19/17 10:57:34 AM
Executed:	06/19/17 10:59:29 AM

»»»»»»»»»»»»»»»»»»»»»»»»»»»»»»»»»»» Sample Info ««««««««««««««««««««««««««««««««««««
Sample Name:	
Lot Name:	
Wafer Name:	
Die Row/Column:	0/0
Capacitor Number:	0
Sample Area (cm2):	7.85e-005
Sample Thickness (µm):	1.00e-001

Mux Loop Adjustment:	Disabled

Amplifier:	Internal

»»»»»»»»»»»»»»»»»»»»»»»»»»»»»»»»»»» Tester Info «««««««««««««««««««««««««««««««««««
Tester Name:	PMF0910-256
Tester Serial Number:	PMF0910-256
Return Signal Amp. Level:	1.79 [Index: 2]

»»»»»»»»»»»»»»»»»»»»»»»»»»»»»»»» Hysteresis Info ««««««««««««««««««««««««««««««««««
Task Name:	Hyst-2
Volts:	3.00
Field:	300.00 (kV/cm)
Hysteresis Period (ms):	2.00e+000
Preset:	Enabled
Preset Delay (ms):	1.00e+003
Profile:	Double Bipolar

»»»»»»»»»»»»»»»»»»»»»»»»»»»»»»»»»»»»»» Data «««««««««««««««««««««««««««««««««««««««
Points:	2001

Valid Data

Point	Time (ms)	Drive Voltage	Measured Polarization
   1	1.0000e-003	0.0005	-15.192010
   2	2.0000e-003	0.0098	-15.143051
   3	3.0000e-003	0.0253	-15.101624
   4	4.0000e-003	0.0343	-15.056970
   5	5.0000e-003	0.0487	-15.003169
   6	6.0000e-003	0.0581	-14.926772
   7	7.0000e-003	0.0729	-14.846070
   8	8.0000e-003	0.0830	-14.761603
   9	9.0000e-003	0.0954	-14.645931
  10	1.0000e-002	0.1073	-14.504435
  11	1.1000e-002	0.1208	-14.346261
  12	1.2000e-002	0.1327	-14.167642
  13	1.3000e-002	0.1413	-13.973421
  14	1.4000e-002	0.1551	-13.744767
  15	1.5000e-002	0.1681	-13.478453
  16	1.6000e-002	0.1814	-13.208373
  17	1.7000e-002	0.1901	-12.916773
  18	1.8000e-002	0.2041	-12.590201
  19	1.9000e-002	0.2132	-12.252332
  20	2.0000e-002	0.2264	-11.899937
  21	2.1000e-002	0.2380	-11.503425
  22	2.2000e-002	0.2496	-11.113369
  23	2.3000e-002	0.2641	-10.693184
  24	2.4000e-002	0.2763	-10.237491
  25	2.5000e-002	0.2855	-9.780722
  26	2.6000e-002	0.2985	-9.319111
  27	2.7000e-002	0.3114	-8.816611
  28	2.8000e-002	0.3222	-8.304427
  29	2.9000e-002	0.3361	-7.784173
  30	3.0000e-002	0.3481	-7.256925
  31	3.1000e-002	0.3594	-6.702239
  32	3.2000e-002	0.3708	-6.145400
  33	3.3000e-002	0.3831	-5.569731
  34	3.4000e-002	0.3934	-4.974694
  35	3.5000e-002	0.4072	-4.378043
  36	3.6000e-002	0.4171	-3.760947
  37	3.7000e-002	0.4295	-3.145466
  38	3.8000e-002	0.4439	-2.506312
  39	3.9000e-002	0.4526	-1.863392
  40	4.0000e-002	0.4654	-1.217244
  41	4.1000e-002	0.4761	-0.546885
  42	4.2000e-002	0.4900	0.113251
  43	4.3000e-002	0.5028	0.777691
  44	4.4000e-002	0.5157	1.470108
  45	4.5000e-002	0.5274	2.149074
  46	4.6000e-002	0.5369	2.833421
  47	4.7000e-002	0.5508	3.522609
  48	4.8000e-002	0.5627	4.213950
  49	4.9000e-002	0.5729	4.906905
  50	5.0000e-002	0.5881	5.601474
  51	5.1000e-002	0.5978	6.274522
  52	5.2000e-002	0.6129	6.973395
  53	5.3000e-002	0.6210	7.652361
  54	5.4000e-002	0.6353	8.346392
  55	5.5000e-002	0.6462	9.030200
  56	5.6000e-002	0.6590	9.703249
  57	5.7000e-002	0.6701	10.370917
  58	5.8000e-002	0.6815	11.027287
  59	5.9000e-002	0.6940	11.675049
  60	6.0000e-002	0.7086	12.309899
  61	6.1000e-002	0.7198	12.954971
  62	6.2000e-002	0.7319	13.575295
  63	6.3000e-002	0.7444	14.194542
  64	6.4000e-002	0.7545	14.794960
  65	6.5000e-002	0.7674	15.378699
  66	6.6000e-002	0.7787	15.962976
  67	6.7000e-002	0.7902	16.530574
  68	6.8000e-002	0.8047	17.107319
  69	6.9000e-002	0.8160	17.665234
  70	7.0000e-002	0.8267	18.198400
  71	7.1000e-002	0.8408	18.742865
  72	7.2000e-002	0.8489	19.274417
  73	7.3000e-002	0.8647	19.783911
  74	7.4000e-002	0.8772	20.294480
  75	7.5000e-002	0.8880	20.792138
  76	7.6000e-002	0.8985	21.284416
  77	7.7000e-002	0.9097	21.765395
  78	7.8000e-002	0.9232	22.222702
  79	7.9000e-002	0.9347	22.694536
  80	8.0000e-002	0.9510	23.151305
  81	8.1000e-002	0.9571	23.602694
  82	8.2000e-002	0.9706	24.037942
  83	8.3000e-002	0.9837	24.485027
  84	8.4000e-002	0.9946	24.918662
  85	8.5000e-002	1.0072	25.343688
  86	8.6000e-002	1.0207	25.773557
  87	8.7000e-002	1.0297	26.179753
  88	8.8000e-002	1.0444	26.589178
  89	8.9000e-002	1.0551	27.013128
  90	9.0000e-002	1.0651	27.408026
  91	9.1000e-002	1.0810	27.818527
  92	9.2000e-002	1.0901	28.218805
  93	9.3000e-002	1.1038	28.619621
  94	9.4000e-002	1.1146	29.018823
  95	9.5000e-002	1.1269	29.402961
  96	9.6000e-002	1.1378	29.802163
  97	9.7000e-002	1.1514	30.199213
  98	9.8000e-002	1.1633	30.593574
  99	9.9000e-002	1.1787	30.976097
 100	1.0000e-001	1.1881	31.361849
 101	1.0100e-001	1.2025	31.733075
 102	1.0200e-001	1.2124	32.110757
 103	1.0300e-001	1.2254	32.471761
 104	1.0400e-001	1.2342	32.832764
 105	1.0500e-001	1.2489	33.178166
 106	1.0600e-001	1.2604	33.511731
 107	1.0700e-001	1.2735	33.832922
 108	1.0800e-001	1.2822	34.138510
 109	1.0900e-001	1.2967	34.428497
 110	1.1000e-001	1.3066	34.680823
 111	1.1100e-001	1.3174	34.930459
 112	1.1200e-001	1.3327	35.144048
 113	1.1300e-001	1.3437	35.338269
 114	1.1400e-001	1.3551	35.512046
 115	1.1500e-001	1.3681	35.669682
 116	1.1600e-001	1.3800	35.805260
 117	1.1700e-001	1.3900	35.924698
 118	1.1800e-001	1.4045	36.033376
 119	1.1900e-001	1.4167	36.126989
 120	1.2000e-001	1.4279	36.209842
 121	1.2100e-001	1.4391	36.308836
 122	1.2200e-001	1.4520	36.377701
 123	1.2300e-001	1.4628	36.451946
 124	1.2400e-001	1.4749	36.520811
 125	1.2500e-001	1.4877	36.578378
 126	1.2600e-001	1.4996	36.653699
 127	1.2700e-001	1.5127	36.705886
 128	1.2800e-001	1.5245	36.762915
 129	1.2900e-001	1.5350	36.807032
 130	1.3000e-001	1.5482	36.862984
 131	1.3100e-001	1.5574	36.915709
 132	1.3200e-001	1.5725	36.963592
 133	1.3300e-001	1.5837	37.009323
 134	1.3400e-001	1.5977	37.052363
 135	1.3500e-001	1.6087	37.091638
 136	1.3600e-001	1.6181	37.152971
 137	1.3700e-001	1.6323	37.186865
 138	1.3800e-001	1.6430	37.225064
 139	1.3900e-001	1.6583	37.265415
 140	1.4000e-001	1.6698	37.311683
 141	1.4100e-001	1.6798	37.339122
 142	1.4200e-001	1.6929	37.395613
 143	1.4300e-001	1.7049	37.434887
 144	1.4400e-001	1.7150	37.465554
 145	1.4500e-001	1.7276	37.501600
 146	1.4600e-001	1.7399	37.542489
 147	1.4700e-001	1.7522	37.579073
 148	1.4800e-001	1.7638	37.607050
 149	1.4900e-001	1.7751	37.643634
 150	1.5000e-001	1.7868	37.674301
 151	1.5100e-001	1.8011	37.710886
 152	1.5200e-001	1.8112	37.745318
 153	1.5300e-001	1.8243	37.759844
 154	1.5400e-001	1.8360	37.797505
 155	1.5500e-001	1.8488	37.849154
 156	1.5600e-001	1.8580	37.870674
 157	1.5700e-001	1.8719	37.907797
 158	1.5800e-001	1.8837	37.929317
 159	1.5900e-001	1.8974	37.958369
 160	1.6000e-001	1.9087	37.996030
 161	1.6100e-001	1.9179	38.025082
 162	1.6200e-001	1.9314	38.050369
 163	1.6300e-001	1.9447	38.079421
 164	1.6400e-001	1.9580	38.113854
 165	1.6500e-001	1.9695	38.140754
 166	1.6600e-001	1.9814	38.170883
 167	1.6700e-001	1.9930	38.192403
 168	1.6800e-001	2.0044	38.227374
 169	1.6900e-001	2.0136	38.258578
 170	1.7000e-001	2.0275	38.276870
 171	1.7100e-001	2.0409	38.291935
 172	1.7200e-001	2.0527	38.333361
 173	1.7300e-001	2.0637	38.358110
 174	1.7400e-001	2.0765	38.403302
 175	1.7500e-001	2.0892	38.417828
 176	1.7600e-001	2.1001	38.439349
 177	1.7700e-001	2.1139	38.464097
 178	1.7800e-001	2.1241	38.491536
 179	1.7900e-001	2.1356	38.527044
 180	1.8000e-001	2.1506	38.544798
 181	1.8100e-001	2.1621	38.574927
 182	1.8200e-001	2.1725	38.594295
 183	1.8300e-001	2.1823	38.620120
 184	1.8400e-001	2.1951	38.649710
 185	1.8500e-001	2.2085	38.669616
 186	1.8600e-001	2.2207	38.689523
 187	1.8700e-001	2.2313	38.720189
 188	1.8800e-001	2.2432	38.748166
 189	1.8900e-001	2.2553	38.762692
 190	1.9000e-001	2.2677	38.786364
 191	1.9100e-001	2.2783	38.819183
 192	1.9200e-001	2.2944	38.851463
 193	1.9300e-001	2.3037	38.862761
 194	1.9400e-001	2.3154	38.891814
 195	1.9500e-001	2.3295	38.908492
 196	1.9600e-001	2.3396	38.928398
 197	1.9700e-001	2.3528	38.966597
 198	1.9800e-001	2.3641	38.986503
 199	1.9900e-001	2.3757	38.998339
 200	2.0000e-001	2.3867	39.026316
 201	2.0100e-001	2.3979	39.051602
 202	2.0200e-001	2.4117	39.070433
 203	2.0300e-001	2.4254	39.088187
 204	2.0400e-001	2.4360	39.119929
 205	2.0500e-001	2.4459	39.141450
 206	2.0600e-001	2.4622	39.159204
 207	2.0700e-001	2.4740	39.166198
 208	2.0800e-001	2.4857	39.201169
 209	2.0900e-001	2.4955	39.219461
 210	2.1000e-001	2.5111	39.268958
 211	2.1100e-001	2.5201	39.278642
 212	2.1200e-001	2.5318	39.293706
 213	2.1300e-001	2.5438	39.320606
 214	2.1400e-001	2.5575	39.337823
 215	2.1500e-001	2.5674	39.354501
 216	2.1600e-001	2.5816	39.378711
 217	2.1700e-001	2.5917	39.401846
 218	2.1800e-001	2.6035	39.422828
 219	2.1900e-001	2.6178	39.444348
 220	2.2000e-001	2.6256	39.461027
 221	2.2100e-001	2.6418	39.482547
 222	2.2200e-001	2.6526	39.500839
 223	2.2300e-001	2.6653	39.528278
 224	2.2400e-001	2.6758	39.560020
 225	2.2500e-001	2.6868	39.571856
 226	2.2600e-001	2.6993	39.585306
 227	2.2700e-001	2.7139	39.617587
 228	2.2800e-001	2.7255	39.614359
 229	2.2900e-001	2.7386	39.652020
 230	2.3000e-001	2.7471	39.673002
 231	2.3100e-001	2.7627	39.690756
 232	2.3200e-001	2.7741	39.706358
 233	2.3300e-001	2.7837	39.731107
 234	2.3400e-001	2.7969	39.753165
 235	2.3500e-001	2.8077	39.772533
 236	2.3600e-001	2.8208	39.794054
 237	2.3700e-001	2.8311	39.820416
 238	2.3800e-001	2.8427	39.821492
 239	2.3900e-001	2.8569	39.855387
 240	2.4000e-001	2.8694	39.868837
 241	2.4100e-001	2.8780	39.884977
 242	2.4200e-001	2.8934	39.904883
 243	2.4300e-001	2.9054	39.931784
 244	2.4400e-001	2.9160	39.951152
 245	2.4500e-001	2.9309	39.959760
 246	2.4600e-001	2.9347	39.984509
 247	2.4700e-001	2.9532	40.007105
 248	2.4800e-001	2.9640	40.015713
 249	2.4900e-001	2.9781	40.045842
 250	2.5000e-001	2.9884	40.053374
 251	2.5100e-001	3.0008	40.080274
 252	2.5200e-001	2.9890	40.075432
 253	2.5300e-001	2.9781	40.068976
 254	2.5400e-001	2.9652	40.044766
 255	2.5500e-001	2.9513	40.028625
 256	2.5600e-001	2.9405	40.013561
 257	2.5700e-001	2.9280	39.995269
 258	2.5800e-001	2.9163	39.975363
 259	2.5900e-001	2.9042	39.971596
 260	2.6000e-001	2.8921	39.965678
 261	2.6100e-001	2.8809	39.937702
 262	2.6200e-001	2.8689	39.931784
 263	2.6300e-001	2.8577	39.904345
 264	2.6400e-001	2.8432	39.885515
 265	2.6500e-001	2.8333	39.879059
 266	2.6600e-001	2.8197	39.869375
 267	2.6700e-001	2.8090	39.844626
 268	2.6800e-001	2.7979	39.832790
 269	2.6900e-001	2.7859	39.819340
 270	2.7000e-001	2.7716	39.804276
 271	2.7100e-001	2.7598	39.789212
 272	2.7200e-001	2.7505	39.776299
 273	2.7300e-001	2.7364	39.759083
 274	2.7400e-001	2.7237	39.727341
 275	2.7500e-001	2.7139	39.730569
 276	2.7600e-001	2.7004	39.717119
 277	2.7700e-001	2.6898	39.688604
 278	2.7800e-001	2.6771	39.686452
 279	2.7900e-001	2.6632	39.671926
 280	2.8000e-001	2.6506	39.642335
 281	2.8100e-001	2.6392	39.635879
 282	2.8200e-001	2.6274	39.616511
 283	2.8300e-001	2.6160	39.602523
 284	2.8400e-001	2.6031	39.578312
 285	2.8500e-001	2.5906	39.576160
 286	2.8600e-001	2.5784	39.563248
 287	2.8700e-001	2.5664	39.525050
 288	2.8800e-001	2.5584	39.525050
 289	2.8900e-001	2.5430	39.518593
 290	2.9000e-001	2.5324	39.487389
 291	2.9100e-001	2.5216	39.477705
 292	2.9200e-001	2.5076	39.461565
 293	2.9300e-001	2.4944	39.433050
 294	2.9400e-001	2.4872	39.420676
 295	2.9500e-001	2.4720	39.403998
 296	2.9600e-001	2.4603	39.386781
 297	2.9700e-001	2.4475	39.364185
 298	2.9800e-001	2.4364	39.357191
 299	2.9900e-001	2.4238	39.342127
 300	3.0000e-001	2.4098	39.327062
 301	3.0100e-001	2.3999	39.306618
 302	3.0200e-001	2.3865	39.291016
 303	3.0300e-001	2.3767	39.267344
 304	3.0400e-001	2.3649	39.249589
 305	3.0500e-001	2.3520	39.239905
 306	3.0600e-001	2.3404	39.218923
 307	3.0700e-001	2.3274	39.199017
 308	3.0800e-001	2.3167	39.190408
 309	3.0900e-001	2.3037	39.160818
 310	3.1000e-001	2.2922	39.151672
 311	3.1100e-001	2.2820	39.132303
 312	3.1200e-001	2.2685	39.107017
 313	3.1300e-001	2.2562	39.097871
 314	3.1400e-001	2.2442	39.079041
 315	3.1500e-001	2.2338	39.071509
 316	3.1600e-001	2.2206	39.042456
 317	3.1700e-001	2.2077	39.018784
 318	3.1800e-001	2.1978	39.010714
 319	3.1900e-001	2.1854	38.990807
 320	3.2000e-001	2.1719	38.965521
 321	3.2100e-001	2.1593	38.966059
 322	3.2200e-001	2.1477	38.936468
 323	3.2300e-001	2.1368	38.915486
 324	3.2400e-001	2.1246	38.897194
 325	3.2500e-001	2.1144	38.892890
 326	3.2600e-001	2.0976	38.858457
 327	3.2700e-001	2.0883	38.846621
 328	3.2800e-001	2.0763	38.831019
 329	3.2900e-001	2.0636	38.817031
 330	3.3000e-001	2.0515	38.790668
 331	3.3100e-001	2.0418	38.778832
 332	3.3200e-001	2.0284	38.760540
 333	3.3300e-001	2.0169	38.726107
 334	3.3400e-001	2.0036	38.716961
 335	3.3500e-001	1.9928	38.698131
 336	3.3600e-001	1.9807	38.674996
 337	3.3700e-001	1.9701	38.668540
 338	3.3800e-001	1.9573	38.655628
 339	3.3900e-001	1.9444	38.623348
 340	3.4000e-001	1.9321	38.605055
 341	3.4100e-001	1.9187	38.597523
 342	3.4200e-001	1.9087	38.564167
 343	3.4300e-001	1.8973	38.546950
 344	3.4400e-001	1.8860	38.530272
 345	3.4500e-001	1.8707	38.505524
 346	3.4600e-001	1.8569	38.493688
 347	3.4700e-001	1.8468	38.471629
 348	3.4800e-001	1.8356	38.451723
 349	3.4900e-001	1.8243	38.426437
 350	3.5000e-001	1.8144	38.402764
 351	3.5100e-001	1.8005	38.402764
 352	3.5200e-001	1.7896	38.373712
 353	3.5300e-001	1.7777	38.352191
 354	3.5400e-001	1.7640	38.338203
 355	3.5500e-001	1.7534	38.311841
 356	3.5600e-001	1.7393	38.287630
 357	3.5700e-001	1.7292	38.266110
 358	3.5800e-001	1.7148	38.247280
 359	3.5900e-001	1.7038	38.224683
 360	3.6000e-001	1.6914	38.216075
 361	3.6100e-001	1.6783	38.187561
 362	3.6200e-001	1.6666	38.167117
 363	3.6300e-001	1.6550	38.140754
 364	3.6400e-001	1.6458	38.116544
 365	3.6500e-001	1.6317	38.097714
 366	3.6600e-001	1.6204	38.083725
 367	3.6700e-001	1.6120	38.055211
 368	3.6800e-001	1.5951	38.038533
 369	3.6900e-001	1.5830	38.017550
 370	3.7000e-001	1.5696	38.000872
 371	3.7100e-001	1.5582	37.978276
 372	3.7200e-001	1.5488	37.956755
 373	3.7300e-001	1.5371	37.933621
 374	3.7400e-001	1.5232	37.914253
 375	3.7500e-001	1.5129	37.891656
 376	3.7600e-001	1.4999	37.870136
 377	3.7700e-001	1.4875	37.840008
 378	3.7800e-001	1.4727	37.816873
 379	3.7900e-001	1.4633	37.802885
 380	3.8000e-001	1.4500	37.772756
 381	3.8100e-001	1.4403	37.748546
 382	3.8200e-001	1.4275	37.737786
 383	3.8300e-001	1.4137	37.714114
 384	3.8400e-001	1.4029	37.690979
 385	3.8500e-001	1.3931	37.656009
 386	3.8600e-001	1.3782	37.637178
 387	3.8700e-001	1.3668	37.612968
 388	3.8800e-001	1.3557	37.590372
 389	3.8900e-001	1.3437	37.569389
 390	3.9000e-001	1.3325	37.542489
 391	3.9100e-001	1.3210	37.520969
 392	3.9200e-001	1.3082	37.506442
 393	3.9300e-001	1.2960	37.461788
 394	3.9400e-001	1.2835	37.442419
 395	3.9500e-001	1.2706	37.429507
 396	3.9600e-001	1.2599	37.396689
 397	3.9700e-001	1.2479	37.375168
 398	3.9800e-001	1.2342	37.349344
 399	3.9900e-001	1.2241	37.315449
 400	4.0000e-001	1.2125	37.286935
 401	4.0100e-001	1.1974	37.270257
 402	4.0200e-001	1.1878	37.247122
 403	4.0300e-001	1.1757	37.217532
 404	4.0400e-001	1.1638	37.193860
 405	4.0500e-001	1.1530	37.175029
 406	4.0600e-001	1.1407	37.149205
 407	4.0700e-001	1.1292	37.116924
 408	4.0800e-001	1.1187	37.092714
 409	4.0900e-001	1.1050	37.056667
 410	4.1000e-001	1.0896	37.035147
 411	4.1100e-001	1.0792	37.004481
 412	4.1200e-001	1.0684	36.976504
 413	4.1300e-001	1.0564	36.954446
 414	4.1400e-001	1.0440	36.929697
 415	4.1500e-001	1.0318	36.894727
 416	4.1600e-001	1.0196	36.867827
 417	4.1700e-001	1.0071	36.844154
 418	4.1800e-001	0.9955	36.806494
 419	4.1900e-001	0.9839	36.772599
 420	4.2000e-001	0.9703	36.746775
 421	4.2100e-001	0.9586	36.716646
 422	4.2200e-001	0.9502	36.685980
 423	4.2300e-001	0.9363	36.646167
 424	4.2400e-001	0.9225	36.620343
 425	4.2500e-001	0.9124	36.590752
 426	4.2600e-001	0.9004	36.562776
 427	4.2700e-001	0.8871	36.521349
 428	4.2800e-001	0.8771	36.483151
 429	4.2900e-001	0.8632	36.454098
 430	4.3000e-001	0.8537	36.426660
 431	4.3100e-001	0.8398	36.384695
 432	4.3200e-001	0.8266	36.343806
 433	4.3300e-001	0.8170	36.319596
 434	4.3400e-001	0.8028	36.284087
 435	4.3500e-001	0.7924	36.235129
 436	4.3600e-001	0.7803	36.194778
 437	4.3700e-001	0.7674	36.161960
 438	4.3800e-001	0.7556	36.115153
 439	4.3900e-001	0.7427	36.080720
 440	4.4000e-001	0.7298	36.038218
 441	4.4100e-001	0.7195	36.003247
 442	4.4200e-001	0.7081	35.957516
 443	4.4300e-001	0.6953	35.912324
 444	4.4400e-001	0.6861	35.881657
 445	4.4500e-001	0.6728	35.828932
 446	4.4600e-001	0.6604	35.783202
 447	4.4700e-001	0.6488	35.726173
 448	4.4800e-001	0.6348	35.685284
 449	4.4900e-001	0.6252	35.629331
 450	4.5000e-001	0.6107	35.588981
 451	4.5100e-001	0.5985	35.526572
 452	4.5200e-001	0.5887	35.480303
 453	4.5300e-001	0.5771	35.418432
 454	4.5400e-001	0.5652	35.363017
 455	4.5500e-001	0.5518	35.301146
 456	4.5600e-001	0.5415	35.239813
 457	4.5700e-001	0.5280	35.163416
 458	4.5800e-001	0.5170	35.109077
 459	4.5900e-001	0.5022	35.039674
 460	4.6000e-001	0.4932	34.976727
 461	4.6100e-001	0.4802	34.904634
 462	4.6200e-001	0.4678	34.826623
 463	4.6300e-001	0.4562	34.747536
 464	4.6400e-001	0.4449	34.657150
 465	4.6500e-001	0.4305	34.564075
 466	4.6600e-001	0.4208	34.479070
 467	4.6700e-001	0.4088	34.396216
 468	4.6800e-001	0.3973	34.280545
 469	4.6900e-001	0.3824	34.189621
 470	4.7000e-001	0.3740	34.070721
 471	4.7100e-001	0.3595	33.960430
 472	4.7200e-001	0.3496	33.820547
 473	4.7300e-001	0.3355	33.708104
 474	4.7400e-001	0.3244	33.558537
 475	4.7500e-001	0.3130	33.427263
 476	4.7600e-001	0.3004	33.259943
 477	4.7700e-001	0.2879	33.096926
 478	4.7800e-001	0.2762	32.923150
 479	4.7900e-001	0.2627	32.734309
 480	4.8000e-001	0.2541	32.534708
 481	4.8100e-001	0.2409	32.318428
 482	4.8200e-001	0.2298	32.101611
 483	4.8300e-001	0.2159	31.858431
 484	4.8400e-001	0.2036	31.604491
 485	4.8500e-001	0.1937	31.336025
 486	4.8600e-001	0.1796	31.060565
 487	4.8700e-001	0.1687	30.766812
 488	4.8800e-001	0.1582	30.441855
 489	4.8900e-001	0.1433	30.114208
 490	4.9000e-001	0.1307	29.767731
 491	4.9100e-001	0.1234	29.391125
 492	4.9200e-001	0.1086	29.004835
 493	4.9300e-001	0.0973	28.603481
 494	4.9400e-001	0.0854	28.177916
 495	4.9500e-001	0.0731	27.745358
 496	4.9600e-001	0.0600	27.302039
 497	4.9700e-001	0.0467	26.810837
 498	4.9800e-001	0.0386	26.305109
 499	4.9900e-001	0.0240	25.800458
 500	5.0000e-001	0.0120	25.256531
 501	5.0100e-001	-0.0002	24.703997
 502	5.0200e-001	-0.0101	24.141778
 503	5.0300e-001	-0.0246	23.559115
 504	5.0400e-001	-0.0331	22.941481
 505	5.0500e-001	-0.0477	22.330842
 506	5.0600e-001	-0.0585	21.687384
 507	5.0700e-001	-0.0687	21.026710
 508	5.0800e-001	-0.0805	20.355275
 509	5.0900e-001	-0.0950	19.665549
 510	5.1000e-001	-0.1044	18.952688
 511	5.1100e-001	-0.1184	18.234447
 512	5.1200e-001	-0.1295	17.493609
 513	5.1300e-001	-0.1421	16.746854
 514	5.1400e-001	-0.1556	15.980730
 515	5.1500e-001	-0.1666	15.204384
 516	5.1600e-001	-0.1787	14.403828
 517	5.1700e-001	-0.1914	13.585517
 518	5.1800e-001	-0.2041	12.775276
 519	5.1900e-001	-0.2124	11.944592
 520	5.2000e-001	-0.2261	11.096690
 521	5.2100e-001	-0.2390	10.243947
 522	5.2200e-001	-0.2515	9.392280
 523	5.2300e-001	-0.2622	8.524473
 524	5.2400e-001	-0.2744	7.639987
 525	5.2500e-001	-0.2832	6.757115
 526	5.2600e-001	-0.2965	5.861332
 527	5.2700e-001	-0.3081	4.967700
 528	5.2800e-001	-0.3210	4.067612
 529	5.2900e-001	-0.3331	3.161068
 530	5.3000e-001	-0.3455	2.262056
 531	5.3100e-001	-0.3580	1.365734
 532	5.3200e-001	-0.3714	0.472102
 533	5.3300e-001	-0.3825	-0.431752
 534	5.3400e-001	-0.3941	-1.309781
 535	5.3500e-001	-0.4044	-2.203413
 536	5.3600e-001	-0.4158	-3.080367
 537	5.3700e-001	-0.4292	-3.947098
 538	5.3800e-001	-0.4431	-4.785853
 539	5.3900e-001	-0.4550	-5.634830
 540	5.4000e-001	-0.4645	-6.466053
 541	5.4100e-001	-0.4772	-7.266071
 542	5.4200e-001	-0.4893	-8.061786
 543	5.4300e-001	-0.5030	-8.840284
 544	5.4400e-001	-0.5135	-9.589729
 545	5.4500e-001	-0.5280	-10.335409
 546	5.4600e-001	-0.5365	-11.064948
 547	5.4700e-001	-0.5486	-11.764897
 548	5.4800e-001	-0.5625	-12.448705
 549	5.4900e-001	-0.5737	-13.124444
 550	5.5000e-001	-0.5840	-13.765750
 551	5.5100e-001	-0.5983	-14.403289
 552	5.5200e-001	-0.6113	-15.026841
 553	5.5300e-001	-0.6253	-15.638557
 554	5.5400e-001	-0.6364	-16.211535
 555	5.5500e-001	-0.6477	-16.792046
 556	5.5600e-001	-0.6554	-17.356955
 557	5.5700e-001	-0.6703	-17.891735
 558	5.5800e-001	-0.6846	-18.426516
 559	5.5900e-001	-0.6936	-18.945156
 560	5.6000e-001	-0.7073	-19.450883
 561	5.6100e-001	-0.7196	-19.941009
 562	5.6200e-001	-0.7299	-20.444047
 563	5.6300e-001	-0.7412	-20.914266
 564	5.6400e-001	-0.7552	-21.362965
 565	5.6500e-001	-0.7677	-21.816506
 566	5.6600e-001	-0.7797	-22.260901
 567	5.6700e-001	-0.7926	-22.684313
 568	5.6800e-001	-0.8030	-23.116872
 569	5.6900e-001	-0.8149	-23.537595
 570	5.7000e-001	-0.8273	-23.917428
 571	5.7100e-001	-0.8384	-24.325239
 572	5.7200e-001	-0.8527	-24.729283
 573	5.7300e-001	-0.8634	-25.102123
 574	5.7400e-001	-0.8779	-25.465278
 575	5.7500e-001	-0.8897	-25.842960
 576	5.7600e-001	-0.8983	-26.185671
 577	5.7700e-001	-0.9133	-26.521389
 578	5.7800e-001	-0.9219	-26.868404
 579	5.7900e-001	-0.9338	-27.205197
 580	5.8000e-001	-0.9475	-27.507558
 581	5.8100e-001	-0.9599	-27.826597
 582	5.8200e-001	-0.9698	-28.137566
 583	5.8300e-001	-0.9846	-28.420020
 584	5.8400e-001	-0.9980	-28.710545
 585	5.8500e-001	-1.0052	-28.988157
 586	5.8600e-001	-1.0191	-29.265769
 587	5.8700e-001	-1.0324	-29.513791
 588	5.8800e-001	-1.0448	-29.772573
 589	5.8900e-001	-1.0570	-30.025437
 590	5.9000e-001	-1.0679	-30.248172
 591	5.9100e-001	-1.0802	-30.491890
 592	5.9200e-001	-1.0921	-30.712473
 593	5.9300e-001	-1.1032	-30.909922
 594	5.9400e-001	-1.1157	-31.122436
 595	5.9500e-001	-1.1275	-31.325803
 596	5.9600e-001	-1.1408	-31.514106
 597	5.9700e-001	-1.1533	-31.700795
 598	5.9800e-001	-1.1647	-31.896630
 599	5.9900e-001	-1.1750	-32.058570
 600	6.0000e-001	-1.1874	-32.215669
 601	6.0100e-001	-1.2017	-32.393211
 602	6.0200e-001	-1.2122	-32.532556
 603	6.0300e-001	-1.2250	-32.684812
 604	6.0400e-001	-1.2332	-32.838144
 605	6.0500e-001	-1.2473	-32.978564
 606	6.0600e-001	-1.2601	-33.107148
 607	6.0700e-001	-1.2749	-33.257253
 608	6.0800e-001	-1.2852	-33.386913
 609	6.0900e-001	-1.2950	-33.483216
 610	6.1000e-001	-1.3082	-33.615028
 611	6.1100e-001	-1.3207	-33.730700
 612	6.1200e-001	-1.3319	-33.837764
 613	6.1300e-001	-1.3432	-33.947517
 614	6.1400e-001	-1.3576	-34.063189
 615	6.1500e-001	-1.3670	-34.162183
 616	6.1600e-001	-1.3795	-34.253644
 617	6.1700e-001	-1.3917	-34.363398
 618	6.1800e-001	-1.4030	-34.452169
 619	6.1900e-001	-1.4166	-34.531794
 620	6.2000e-001	-1.4304	-34.636706
 621	6.2100e-001	-1.4411	-34.719559
 622	6.2200e-001	-1.4530	-34.795957
 623	6.2300e-001	-1.4634	-34.887418
 624	6.2400e-001	-1.4744	-34.968119
 625	6.2500e-001	-1.4906	-35.041288
 626	6.2600e-001	-1.5007	-35.116071
 627	6.2700e-001	-1.5131	-35.201615
 628	6.2800e-001	-1.5257	-35.264562
 629	6.2900e-001	-1.5336	-35.335041
 630	6.3000e-001	-1.5485	-35.418432
 631	6.3100e-001	-1.5592	-35.480841
 632	6.3200e-001	-1.5709	-35.533028
 633	6.3300e-001	-1.5830	-35.618571
 634	6.3400e-001	-1.5952	-35.673986
 635	6.3500e-001	-1.6084	-35.738547
 636	6.3600e-001	-1.6185	-35.804722
 637	6.3700e-001	-1.6328	-35.874125
 638	6.3800e-001	-1.6452	-35.929540
 639	6.3900e-001	-1.6560	-35.989797
 640	6.4000e-001	-1.6672	-36.054896
 641	6.4100e-001	-1.6792	-36.107083
 642	6.4200e-001	-1.6911	-36.159270
 643	6.4300e-001	-1.7058	-36.222217
 644	6.4400e-001	-1.7147	-36.270637
 645	6.4500e-001	-1.7278	-36.322824
 646	6.4600e-001	-1.7416	-36.390075
 647	6.4700e-001	-1.7511	-36.438496
 648	6.4800e-001	-1.7657	-36.479923
 649	6.4900e-001	-1.7767	-36.542331
 650	6.5000e-001	-1.7871	-36.593442
 651	6.5100e-001	-1.7982	-36.631103
 652	6.5200e-001	-1.8136	-36.696202
 653	6.5300e-001	-1.8235	-36.750541
 654	6.5400e-001	-1.8348	-36.782821
 655	6.5500e-001	-1.8469	-36.835546
 656	6.5600e-001	-1.8605	-36.892037
 657	6.5700e-001	-1.8729	-36.932926
 658	6.5800e-001	-1.8845	-36.979732
 659	6.5900e-001	-1.8951	-37.030843
 660	6.6000e-001	-1.9084	-37.071732
 661	6.6100e-001	-1.9199	-37.105626
 662	6.6200e-001	-1.9324	-37.164807
 663	6.6300e-001	-1.9433	-37.218608
 664	6.6400e-001	-1.9569	-37.246046
 665	6.6500e-001	-1.9680	-37.303613
 666	6.6600e-001	-1.9788	-37.345040
 667	6.6700e-001	-1.9910	-37.374092
 668	6.6800e-001	-2.0046	-37.432735
 669	6.6900e-001	-2.0164	-37.473086
 670	6.7000e-001	-2.0289	-37.508056
 671	6.7100e-001	-2.0408	-37.545179
 672	6.7200e-001	-2.0521	-37.596290
 673	6.7300e-001	-2.0644	-37.640406
 674	6.7400e-001	-2.0786	-37.667307
 675	6.7500e-001	-2.0872	-37.725412
 676	6.7600e-001	-2.0993	-37.760920
 677	6.7700e-001	-2.1148	-37.780827
 678	6.7800e-001	-2.1248	-37.834627
 679	6.7900e-001	-2.1301	-37.858838
 680	6.8000e-001	-2.1488	-37.897036
 681	6.8100e-001	-2.1590	-37.942229
 682	6.8200e-001	-2.1726	-37.993878
 683	6.8300e-001	-2.1828	-38.019702
 684	6.8400e-001	-2.1945	-38.056287
 685	6.8500e-001	-2.2068	-38.100942
 686	6.8600e-001	-2.2198	-38.126228
 687	6.8700e-001	-2.2323	-38.165503
 688	6.8800e-001	-2.2446	-38.203701
 689	6.8900e-001	-2.2577	-38.238134
 690	6.9000e-001	-2.2696	-38.263958
 691	6.9100e-001	-2.2807	-38.316683
 692	6.9200e-001	-2.2942	-38.347887
 693	6.9300e-001	-2.3060	-38.371022
 694	6.9400e-001	-2.3160	-38.417828
 695	6.9500e-001	-2.3268	-38.451185
 696	6.9600e-001	-2.3396	-38.475933
 697	6.9700e-001	-2.3485	-38.502296
 698	6.9800e-001	-2.3622	-38.547488
 699	6.9900e-001	-2.3776	-38.584611
 700	7.0000e-001	-2.3893	-38.618506
 701	7.0100e-001	-2.4010	-38.663160
 702	7.0200e-001	-2.4132	-38.680377
 703	7.0300e-001	-2.4235	-38.717499
 704	7.0400e-001	-2.4379	-38.755160
 705	7.0500e-001	-2.4485	-38.776680
 706	7.0600e-001	-2.4615	-38.807346
 707	7.0700e-001	-2.4728	-38.849849
 708	7.0800e-001	-2.4833	-38.882130
 709	7.0900e-001	-2.4975	-38.905264
 710	7.1000e-001	-2.5077	-38.941849
 711	7.1100e-001	-2.5216	-38.973053
 712	7.1200e-001	-2.5325	-39.000491
 713	7.1300e-001	-2.5428	-39.029544
 714	7.1400e-001	-2.5571	-39.068819
 715	7.1500e-001	-2.5637	-39.089263
 716	7.1600e-001	-2.5801	-39.118853
 717	7.1700e-001	-2.5918	-39.155976
 718	7.1800e-001	-2.6016	-39.176420
 719	7.1900e-001	-2.6160	-39.208163
 720	7.2000e-001	-2.6289	-39.254969
 721	7.2100e-001	-2.6419	-39.268958
 722	7.2200e-001	-2.6508	-39.298010
 723	7.2300e-001	-2.6647	-39.327062
 724	7.2400e-001	-2.6773	-39.359881
 725	7.2500e-001	-2.6880	-39.379787
 726	7.2600e-001	-2.7015	-39.419062
 727	7.2700e-001	-2.7100	-39.444886
 728	7.2800e-001	-2.7251	-39.471787
 729	7.2900e-001	-2.7380	-39.500839
 730	7.3000e-001	-2.7481	-39.537962
 731	7.3100e-001	-2.7606	-39.568090
 732	7.3200e-001	-2.7718	-39.577774
 733	7.3300e-001	-2.7890	-39.618663
 734	7.3400e-001	-2.7956	-39.646639
 735	7.3500e-001	-2.8088	-39.658476
 736	7.3600e-001	-2.8198	-39.699902
 737	7.3700e-001	-2.8301	-39.729493
 738	7.3800e-001	-2.8440	-39.745095
 739	7.3900e-001	-2.8575	-39.783294
 740	7.4000e-001	-2.8682	-39.810194
 741	7.4100e-001	-2.8794	-39.833866
 742	7.4200e-001	-2.8926	-39.858615
 743	7.4300e-001	-2.9048	-39.896813
 744	7.4400e-001	-2.9155	-39.911878
 745	7.4500e-001	-2.9278	-39.929632
 746	7.4600e-001	-2.9390	-39.967292
 747	7.4700e-001	-2.9527	-39.985585
 748	7.4800e-001	-2.9642	-40.003877
 749	7.4900e-001	-2.9774	-40.045842
 750	7.5000e-001	-2.9903	-40.078660
 751	7.5100e-001	-3.0019	-40.087806
 752	7.5200e-001	-2.9887	-40.085654
 753	7.5300e-001	-2.9767	-40.080812
 754	7.5400e-001	-2.9639	-40.047456
 755	7.5500e-001	-2.9546	-40.038847
 756	7.5600e-001	-2.9427	-40.032929
 757	7.5700e-001	-2.9288	-40.003877
 758	7.5800e-001	-2.9179	-39.989351
 759	7.5900e-001	-2.9041	-39.986661
 760	7.6000e-001	-2.8926	-39.956532
 761	7.6100e-001	-2.8806	-39.943620
 762	7.6200e-001	-2.8693	-39.934474
 763	7.6300e-001	-2.8540	-39.917258
 764	7.6400e-001	-2.8424	-39.899503
 765	7.6500e-001	-2.8320	-39.881211
 766	7.6600e-001	-2.8199	-39.866147
 767	7.6700e-001	-2.8068	-39.831176
 768	7.6800e-001	-2.7976	-39.812884
 769	7.6900e-001	-2.7831	-39.803738
 770	7.7000e-001	-2.7722	-39.777375
 771	7.7100e-001	-2.7617	-39.758007
 772	7.7200e-001	-2.7467	-39.749937
 773	7.7300e-001	-2.7371	-39.738101
 774	7.7400e-001	-2.7255	-39.698826
 775	7.7500e-001	-2.7129	-39.693446
 776	7.7600e-001	-2.7016	-39.673002
 777	7.7700e-001	-2.6899	-39.640721
 778	7.7800e-001	-2.6764	-39.631575
 779	7.7900e-001	-2.6643	-39.624043
 780	7.8000e-001	-2.6531	-39.585306
 781	7.8100e-001	-2.6377	-39.575622
 782	7.8200e-001	-2.6292	-39.570242
 783	7.8300e-001	-2.6156	-39.527740
 784	7.8400e-001	-2.6035	-39.512137
 785	7.8500e-001	-2.5909	-39.498149
 786	7.8600e-001	-2.5813	-39.471787
 787	7.8700e-001	-2.5678	-39.441120
 788	7.8800e-001	-2.5575	-39.434664
 789	7.8900e-001	-2.5449	-39.414758
 790	7.9000e-001	-2.5318	-39.377635
 791	7.9100e-001	-2.5201	-39.376559
 792	7.9200e-001	-2.5098	-39.359343
 793	7.9300e-001	-2.4982	-39.326524
 794	7.9400e-001	-2.4857	-39.301776
 795	7.9500e-001	-2.4722	-39.285636
 796	7.9600e-001	-2.4602	-39.262502
 797	7.9700e-001	-2.4485	-39.236677
 798	7.9800e-001	-2.4347	-39.229145
 799	7.9900e-001	-2.4234	-39.202245
 800	8.0000e-001	-2.4129	-39.167812
 801	8.0100e-001	-2.4010	-39.158128
 802	8.0200e-001	-2.3885	-39.136070
 803	8.0300e-001	-2.3752	-39.104327
 804	8.0400e-001	-2.3647	-39.091415
 805	8.0500e-001	-2.3517	-39.077427
 806	8.0600e-001	-2.3396	-39.048374
 807	8.0700e-001	-2.3279	-39.018246
 808	8.0800e-001	-2.3155	-38.994573
 809	8.0900e-001	-2.3036	-38.977895
 810	8.1000e-001	-2.2926	-38.948305
 811	8.1100e-001	-2.2798	-38.932164
 812	8.1200e-001	-2.2684	-38.902574
 813	8.1300e-001	-2.2554	-38.876212
 814	8.1400e-001	-2.2425	-38.858457
 815	8.1500e-001	-2.2319	-38.836399
 816	8.1600e-001	-2.2209	-38.811113
 817	8.1700e-001	-2.2095	-38.790668
 818	8.1800e-001	-2.1959	-38.763230
 819	8.1900e-001	-2.1828	-38.732563
 820	8.2000e-001	-2.1734	-38.718037
 821	8.2100e-001	-2.1604	-38.686295
 822	8.2200e-001	-2.1503	-38.659932
 823	8.2300e-001	-2.1365	-38.636260
 824	8.2400e-001	-2.1244	-38.616354
 825	8.2500e-001	-2.1124	-38.588915
 826	8.2600e-001	-2.1014	-38.564167
 827	8.2700e-001	-2.0882	-38.542646
 828	8.2800e-001	-2.0757	-38.520588
 829	8.2900e-001	-2.0662	-38.482927
 830	8.3000e-001	-2.0509	-38.465173
 831	8.3100e-001	-2.0411	-38.436659
 832	8.3200e-001	-2.0262	-38.402764
 833	8.3300e-001	-2.0164	-38.381244
 834	8.3400e-001	-2.0071	-38.351115
 835	8.3500e-001	-1.9926	-38.323139
 836	8.3600e-001	-1.9772	-38.301619
 837	8.3700e-001	-1.9665	-38.275794
 838	8.3800e-001	-1.9575	-38.247280
 839	8.3900e-001	-1.9466	-38.216613
 840	8.4000e-001	-1.9325	-38.194555
 841	8.4100e-001	-1.9210	-38.164965
 842	8.4200e-001	-1.9081	-38.134836
 843	8.4300e-001	-1.8962	-38.110626
 844	8.4400e-001	-1.8829	-38.082111
 845	8.4500e-001	-1.8720	-38.047679
 846	8.4600e-001	-1.8599	-38.029386
 847	8.4700e-001	-1.8478	-37.998182
 848	8.4800e-001	-1.8372	-37.967515
 849	8.4900e-001	-1.8248	-37.935235
 850	8.5000e-001	-1.8115	-37.905645
 851	8.5100e-001	-1.7999	-37.877130
 852	8.5200e-001	-1.7897	-37.858838
 853	8.5300e-001	-1.7775	-37.824405
 854	8.5400e-001	-1.7628	-37.785669
 855	8.5500e-001	-1.7536	-37.765762
 856	8.5600e-001	-1.7415	-37.730792
 857	8.5700e-001	-1.7299	-37.688827
 858	8.5800e-001	-1.7142	-37.665155
 859	8.5900e-001	-1.7024	-37.642020
 860	8.6000e-001	-1.6910	-37.604360
 861	8.6100e-001	-1.6824	-37.579612
 862	8.6200e-001	-1.6653	-37.560243
 863	8.6300e-001	-1.6554	-37.505904
 864	8.6400e-001	-1.6433	-37.471472
 865	8.6500e-001	-1.6306	-37.450490
 866	8.6600e-001	-1.6194	-37.412829
 867	8.6700e-001	-1.6089	-37.389157
 868	8.6800e-001	-1.5968	-37.349882
 869	8.6900e-001	-1.5838	-37.320291
 870	8.7000e-001	-1.5716	-37.282093
 871	8.7100e-001	-1.5603	-37.248198
 872	8.7200e-001	-1.5492	-37.215380
 873	8.7300e-001	-1.5363	-37.182561
 874	8.7400e-001	-1.5266	-37.137369
 875	8.7500e-001	-1.5125	-37.113158
 876	8.7600e-001	-1.4981	-37.077650
 877	8.7700e-001	-1.4868	-37.044831
 878	8.7800e-001	-1.4761	-37.014703
 879	8.7900e-001	-1.4627	-36.968434
 880	8.8000e-001	-1.4532	-36.935616
 881	8.8100e-001	-1.4387	-36.879125
 882	8.8200e-001	-1.4261	-36.866212
 883	8.8300e-001	-1.4172	-36.818330
 884	8.8400e-001	-1.4040	-36.785511
 885	8.8500e-001	-1.3904	-36.754307
 886	8.8600e-001	-1.3815	-36.705886
 887	8.8700e-001	-1.3686	-36.670915
 888	8.8800e-001	-1.3563	-36.635407
 889	8.8900e-001	-1.3431	-36.593442
 890	8.9000e-001	-1.3332	-36.545560
 891	8.9100e-001	-1.3219	-36.513817
 892	8.9200e-001	-1.3066	-36.469700
 893	8.9300e-001	-1.2962	-36.427736
 894	8.9400e-001	-1.2827	-36.394917
 895	8.9500e-001	-1.2711	-36.350263
 896	8.9600e-001	-1.2609	-36.300228
 897	8.9700e-001	-1.2492	-36.264181
 898	8.9800e-001	-1.2373	-36.229749
 899	8.9900e-001	-1.2251	-36.179176
 900	9.0000e-001	-1.2119	-36.131831
 901	9.0100e-001	-1.1984	-36.088252
 902	9.0200e-001	-1.1884	-36.045750
 903	9.0300e-001	-1.1765	-35.999481
 904	9.0400e-001	-1.1636	-35.963973
 905	9.0500e-001	-1.1541	-35.912324
 906	9.0600e-001	-1.1385	-35.863365
 907	9.0700e-001	-1.1269	-35.813330
 908	9.0800e-001	-1.1147	-35.771366
 909	9.0900e-001	-1.1043	-35.717565
 910	9.1000e-001	-1.0929	-35.677214
 911	9.1100e-001	-1.0799	-35.632021
 912	9.1200e-001	-1.0665	-35.572302
 913	9.1300e-001	-1.0561	-35.528724
 914	9.1400e-001	-1.0423	-35.478151
 915	9.1500e-001	-1.0339	-35.418432
 916	9.1600e-001	-1.0223	-35.374853
 917	9.1700e-001	-1.0098	-35.319977
 918	9.1800e-001	-0.9949	-35.252188
 919	9.1900e-001	-0.9857	-35.200539
 920	9.2000e-001	-0.9727	-35.150504
 921	9.2100e-001	-0.9608	-35.099931
 922	9.2200e-001	-0.9495	-35.032142
 923	9.2300e-001	-0.9364	-34.985873
 924	9.2400e-001	-0.9244	-34.924540
 925	9.2500e-001	-0.9125	-34.859441
 926	9.2600e-001	-0.8989	-34.800261
 927	9.2700e-001	-0.8862	-34.743770
 928	9.2800e-001	-0.8743	-34.678671
 929	9.2900e-001	-0.8631	-34.629712
 930	9.3000e-001	-0.8522	-34.559233
 931	9.3100e-001	-0.8401	-34.494134
 932	9.3200e-001	-0.8283	-34.419889
 933	9.3300e-001	-0.8164	-34.363398
 934	9.3400e-001	-0.8038	-34.300451
 935	9.3500e-001	-0.7912	-34.214370
 936	9.3600e-001	-0.7810	-34.162721
 937	9.3700e-001	-0.7661	-34.082019
 938	9.3800e-001	-0.7545	-34.000780
 939	9.3900e-001	-0.7437	-33.931377
 940	9.4000e-001	-0.7313	-33.866278
 941	9.4100e-001	-0.7212	-33.773741
 942	9.4200e-001	-0.7104	-33.709180
 943	9.4300e-001	-0.6969	-33.617180
 944	9.4400e-001	-0.6847	-33.531637
 945	9.4500e-001	-0.6700	-33.447170
 946	9.4600e-001	-0.6580	-33.368082
 947	9.4700e-001	-0.6486	-33.296527
 948	9.4800e-001	-0.6364	-33.186774
 949	9.4900e-001	-0.6245	-33.098540
 950	9.5000e-001	-0.6120	-32.998471
 951	9.5100e-001	-0.5994	-32.904319
 952	9.5200e-001	-0.5875	-32.818776
 953	9.5300e-001	-0.5745	-32.703642
 954	9.5400e-001	-0.5627	-32.610567
 955	9.5500e-001	-0.5499	-32.505117
 956	9.5600e-001	-0.5400	-32.381375
 957	9.5700e-001	-0.5279	-32.264627
 958	9.5800e-001	-0.5183	-32.162944
 959	9.5900e-001	-0.5067	-32.033822
 960	9.6000e-001	-0.4922	-31.916536
 961	9.6100e-001	-0.4817	-31.789028
 962	9.6200e-001	-0.4639	-31.669052
 963	9.6300e-001	-0.4565	-31.538316
 964	9.6400e-001	-0.4453	-31.398972
 965	9.6500e-001	-0.4333	-31.251558
 966	9.6600e-001	-0.4201	-31.115442
 967	9.6700e-001	-0.4086	-30.962109
 968	9.6800e-001	-0.3956	-30.804473
 969	9.6900e-001	-0.3841	-30.646836
 970	9.7000e-001	-0.3718	-30.490276
 971	9.7100e-001	-0.3587	-30.317037
 972	9.7200e-001	-0.3486	-30.143261
 973	9.7300e-001	-0.3356	-29.970022
 974	9.7400e-001	-0.3219	-29.781719
 975	9.7500e-001	-0.3123	-29.592340
 976	9.7600e-001	-0.2999	-29.392739
 977	9.7700e-001	-0.2882	-29.201746
 978	9.7800e-001	-0.2775	-28.984929
 979	9.7900e-001	-0.2664	-28.780486
 980	9.8000e-001	-0.2512	-28.559364
 981	9.8100e-001	-0.2378	-28.340395
 982	9.8200e-001	-0.2298	-28.100443
 983	9.8300e-001	-0.2129	-27.857801
 984	9.8400e-001	-0.2052	-27.618388
 985	9.8500e-001	-0.1958	-27.368214
 986	9.8600e-001	-0.1807	-27.122882
 987	9.8700e-001	-0.1675	-26.852264
 988	9.8800e-001	-0.1571	-26.587564
 989	9.8900e-001	-0.1427	-26.299729
 990	9.9000e-001	-0.1293	-26.013509
 991	9.9100e-001	-0.1212	-25.709534
 992	9.9200e-001	-0.1069	-25.411478
 993	9.9300e-001	-0.0971	-25.098357
 994	9.9400e-001	-0.0833	-24.776090
 995	9.9500e-001	-0.0710	-24.462969
 996	9.9600e-001	-0.0597	-24.121872
 997	9.9700e-001	-0.0468	-23.781850
 998	9.9800e-001	-0.0364	-23.428379
 999	9.9900e-001	-0.0237	-23.078674
1000	1.0000e+000	-0.0121	-22.711752
1001	1.0010e+000	-0.0011	-22.327076
1002	1.0020e+000	0.0113	-21.956388
1003	1.0030e+000	0.0253	-21.579244
1004	1.0040e+000	0.0340	-21.181656
1005	1.0050e+000	0.0471	-20.784068
1006	1.0060e+000	0.0596	-20.373030
1007	1.0070e+000	0.0727	-19.944775
1008	1.0080e+000	0.0826	-19.515444
1009	1.0090e+000	0.0942	-19.085576
1010	1.0100e+000	0.1063	-18.639029
1011	1.0110e+000	0.1196	-18.182260
1012	1.0120e+000	0.1307	-17.727643
1013	1.0130e+000	0.1455	-17.255272
1014	1.0140e+000	0.1547	-16.784514
1015	1.0150e+000	0.1656	-16.290085
1016	1.0160e+000	0.1781	-15.806415
1017	1.0170e+000	0.1910	-15.296921
1018	1.0180e+000	0.2007	-14.787427
1019	1.0190e+000	0.2153	-14.277396
1020	1.0200e+000	0.2271	-13.747995
1021	1.0210e+000	0.2399	-13.219133
1022	1.0220e+000	0.2498	-12.681125
1023	1.0230e+000	0.2638	-12.131818
1024	1.0240e+000	0.2766	-11.572290
1025	1.0250e+000	0.2860	-10.993931
1026	1.0260e+000	0.2970	-10.426332
1027	1.0270e+000	0.3103	-9.836675
1028	1.0280e+000	0.3201	-9.235720
1029	1.0290e+000	0.3344	-8.636378
1030	1.0300e+000	0.3454	-8.024125
1031	1.0310e+000	0.3577	-7.394655
1032	1.0320e+000	0.3699	-6.775946
1033	1.0330e+000	0.3815	-6.134102
1034	1.0340e+000	0.3962	-5.478808
1035	1.0350e+000	0.4071	-4.823514
1036	1.0360e+000	0.4188	-4.173599
1037	1.0370e+000	0.4317	-3.487639
1038	1.0380e+000	0.4426	-2.808672
1039	1.0390e+000	0.4552	-2.125402
1040	1.0400e+000	0.4652	-1.444821
1041	1.0410e+000	0.4781	-0.732498
1042	1.0420e+000	0.4896	-0.032550
1043	1.0430e+000	0.5036	0.679774
1044	1.0440e+000	0.5145	1.400705
1045	1.0450e+000	0.5249	2.108724
1046	1.0460e+000	0.5401	2.824275
1047	1.0470e+000	0.5485	3.573182
1048	1.0480e+000	0.5597	4.258605
1049	1.0490e+000	0.5727	4.984916
1050	1.0500e+000	0.5865	5.704233
1051	1.0510e+000	0.5964	6.404720
1052	1.0520e+000	0.6100	7.132107
1053	1.0530e+000	0.6234	7.832594
1054	1.0540e+000	0.6341	8.543841
1055	1.0550e+000	0.6466	9.235720
1056	1.0560e+000	0.6582	9.923832
1057	1.0570e+000	0.6702	10.612483
1058	1.0580e+000	0.6842	11.272081
1059	1.0590e+000	0.6973	11.942977
1060	1.0600e+000	0.7066	12.596120
1061	1.0610e+000	0.7185	13.236887
1062	1.0620e+000	0.7319	13.876579
1063	1.0630e+000	0.7449	14.493675
1064	1.0640e+000	0.7555	15.117227
1065	1.0650e+000	0.7663	15.717106
1066	1.0660e+000	0.7790	16.312681
1067	1.0670e+000	0.7897	16.885660
1068	1.0680e+000	0.8037	17.460791
1069	1.0690e+000	0.8133	18.024085
1070	1.0700e+000	0.8267	18.570164
1071	1.0710e+000	0.8394	19.103868
1072	1.0720e+000	0.8555	19.640262
1073	1.0730e+000	0.8620	20.157288
1074	1.0740e+000	0.8755	20.668934
1075	1.0750e+000	0.8880	21.167130
1076	1.0760e+000	0.9006	21.668554
1077	1.0770e+000	0.9111	22.150609
1078	1.0780e+000	0.9217	22.627823
1079	1.0790e+000	0.9334	23.078135
1080	1.0800e+000	0.9444	23.552121
1081	1.0810e+000	0.9592	24.004586
1082	1.0820e+000	0.9705	24.452747
1083	1.0830e+000	0.9843	24.890147
1084	1.0840e+000	0.9964	25.322168
1085	1.0850e+000	1.0071	25.746119
1086	1.0860e+000	1.0207	26.173835
1087	1.0870e+000	1.0327	26.595096
1088	1.0880e+000	1.0448	27.005596
1089	1.0890e+000	1.0569	27.423629
1090	1.0900e+000	1.0670	27.827135
1091	1.0910e+000	1.0815	28.222033
1092	1.0920e+000	1.0921	28.641141
1093	1.0930e+000	1.1029	29.037116
1094	1.0940e+000	1.1148	29.434166
1095	1.0950e+000	1.1261	29.826374
1096	1.0960e+000	1.1407	30.213740
1097	1.0970e+000	1.1497	30.609714
1098	1.0980e+000	1.1625	30.992776
1099	1.0990e+000	1.1739	31.388212
1100	1.1000e+000	1.1881	31.753520
1101	1.1010e+000	1.1990	32.136043
1102	1.1020e+000	1.2132	32.492743
1103	1.1030e+000	1.2231	32.849442
1104	1.1040e+000	1.2376	33.194844
1105	1.1050e+000	1.2472	33.531637
1106	1.1060e+000	1.2582	33.845834
1107	1.1070e+000	1.2685	34.141738
1108	1.1080e+000	1.2840	34.418275
1109	1.1090e+000	1.2966	34.684051
1110	1.1100e+000	1.3074	34.924540
1111	1.1110e+000	1.3191	35.139206
1112	1.1120e+000	1.3340	35.343649
1113	1.1130e+000	1.3433	35.507203
1114	1.1140e+000	1.3570	35.666992
1115	1.1150e+000	1.3674	35.799880
1116	1.1160e+000	1.3830	35.922546
1117	1.1170e+000	1.3908	36.025305
1118	1.1180e+000	1.4033	36.133983
1119	1.1190e+000	1.4142	36.209842
1120	1.1200e+000	1.4267	36.305608
1121	1.1210e+000	1.4392	36.387385
1122	1.1220e+000	1.4501	36.443876
1123	1.1230e+000	1.4639	36.512741
1124	1.1240e+000	1.4751	36.567080
1125	1.1250e+000	1.4884	36.637559
1126	1.1260e+000	1.5009	36.694588
1127	1.1270e+000	1.5111	36.750003
1128	1.1280e+000	1.5231	36.816716
1129	1.1290e+000	1.5350	36.853838
1130	1.1300e+000	1.5480	36.931311
1131	1.1310e+000	1.5604	36.945838
1132	1.1320e+000	1.5718	37.002867
1133	1.1330e+000	1.5822	37.041065
1134	1.1340e+000	1.5985	37.088948
1135	1.1350e+000	1.6084	37.128761
1136	1.1360e+000	1.6187	37.178795
1137	1.1370e+000	1.6312	37.219146
1138	1.1380e+000	1.6450	37.249812
1139	1.1390e+000	1.6570	37.306841
1140	1.1400e+000	1.6681	37.344502
1141	1.1410e+000	1.6810	37.374092
1142	1.1420e+000	1.6904	37.418747
1143	1.1430e+000	1.7029	37.445109
1144	1.1440e+000	1.7155	37.487074
1145	1.1450e+000	1.7295	37.523121
1146	1.1460e+000	1.7401	37.561857
1147	1.1470e+000	1.7524	37.592524
1148	1.1480e+000	1.7634	37.625880
1149	1.1490e+000	1.7738	37.664617
1150	1.1500e+000	1.7881	37.702815
1151	1.1510e+000	1.8000	37.720570
1152	1.1520e+000	1.8130	37.767914
1153	1.1530e+000	1.8224	37.793739
1154	1.1540e+000	1.8346	37.827633
1155	1.1550e+000	1.8494	37.862604
1156	1.1560e+000	1.8578	37.890580
1157	1.1570e+000	1.8707	37.913715
1158	1.1580e+000	1.8835	37.944381
1159	1.1590e+000	1.8941	37.980966
1160	1.1600e+000	1.9068	38.007328
1161	1.1610e+000	1.9217	38.039609
1162	1.1620e+000	1.9304	38.068661
1163	1.1630e+000	1.9460	38.100404
1164	1.1640e+000	1.9574	38.121386
1165	1.1650e+000	1.9659	38.160122
1166	1.1660e+000	1.9780	38.192941
1167	1.1670e+000	1.9903	38.211771
1168	1.1680e+000	2.0042	38.242976
1169	1.1690e+000	2.0164	38.258578
1170	1.1700e+000	2.0297	38.298929
1171	1.1710e+000	2.0388	38.319911
1172	1.1720e+000	2.0526	38.353805
1173	1.1730e+000	2.0640	38.374250
1174	1.1740e+000	2.0763	38.403302
1175	1.1750e+000	2.0889	38.429127
1176	1.1760e+000	2.1003	38.456027
1177	1.1770e+000	2.1136	38.477547
1178	1.1780e+000	2.1257	38.503910
1179	1.1790e+000	2.1355	38.532962
1180	1.1800e+000	2.1478	38.545336
1181	1.1810e+000	2.1603	38.587301
1182	1.1820e+000	2.1719	38.608283
1183	1.1830e+000	2.1854	38.624962
1184	1.1840e+000	2.1953	38.663698
1185	1.1850e+000	2.2066	38.688447
1186	1.1860e+000	2.2218	38.708353
1187	1.1870e+000	2.2317	38.726107
1188	1.1880e+000	2.2444	38.760540
1189	1.1890e+000	2.2563	38.777218
1190	1.1900e+000	2.2675	38.798738
1191	1.1910e+000	2.2805	38.825639
1192	1.1920e+000	2.2913	38.851463
1193	1.1930e+000	2.3027	38.867065
1194	1.1940e+000	2.3153	38.899346
1195	1.1950e+000	2.3280	38.932164
1196	1.1960e+000	2.3402	38.943463
1197	1.1970e+000	2.3492	38.967135
1198	1.1980e+000	2.3628	38.995649
1199	1.1990e+000	2.3742	39.020398
1200	1.2000e+000	2.3878	39.038690
1201	1.2010e+000	2.4011	39.065590
1202	1.2020e+000	2.4123	39.091415
1203	1.2030e+000	2.4212	39.101637
1204	1.2040e+000	2.4373	39.127461
1205	1.2050e+000	2.4486	39.154362
1206	1.2060e+000	2.4604	39.169964
1207	1.2070e+000	2.4718	39.199555
1208	1.2080e+000	2.4820	39.220537
1209	1.2090e+000	2.4973	39.238291
1210	1.2100e+000	2.5053	39.265730
1211	1.2110e+000	2.5212	39.281332
1212	1.2120e+000	2.5354	39.300700
1213	1.2130e+000	2.5447	39.299086
1214	1.2140e+000	2.5572	39.342127
1215	1.2150e+000	2.5677	39.365261
1216	1.2160e+000	2.5819	39.381401
1217	1.2170e+000	2.5945	39.401846
1218	1.2180e+000	2.6028	39.431436
1219	1.2190e+000	2.6158	39.442734
1220	1.2200e+000	2.6309	39.473401
1221	1.2210e+000	2.6405	39.490079
1222	1.2220e+000	2.6526	39.506219
1223	1.2230e+000	2.6654	39.533120
1224	1.2240e+000	2.6766	39.552488
1225	1.2250e+000	2.6871	39.577236
1226	1.2260e+000	2.7002	39.591763
1227	1.2270e+000	2.7128	39.615973
1228	1.2280e+000	2.7255	39.632651
1229	1.2290e+000	2.7363	39.654172
1230	1.2300e+000	2.7464	39.678920
1231	1.2310e+000	2.7608	39.710124
1232	1.2320e+000	2.7711	39.713352
1233	1.2330e+000	2.7837	39.734873
1234	1.2340e+000	2.7969	39.756393
1235	1.2350e+000	2.8076	39.776299
1236	1.2360e+000	2.8202	39.801586
1237	1.2370e+000	2.8304	39.829562
1238	1.2380e+000	2.8482	39.847855
1239	1.2390e+000	2.8578	39.859691
1240	1.2400e+000	2.8683	39.871527
1241	1.2410e+000	2.8777	39.887129
1242	1.2420e+000	2.8920	39.911340
1243	1.2430e+000	2.9055	39.929094
1244	1.2440e+000	2.9160	39.951690
1245	1.2450e+000	2.9292	39.962988
1246	1.2460e+000	2.9417	39.996883
1247	1.2470e+000	2.9530	40.013023
1248	1.2480e+000	2.9656	40.021631
1249	1.2490e+000	2.9765	40.058216
1250	1.2500e+000	2.9877	40.065748
1251	1.2510e+000	2.9980	40.086192
1252	1.2520e+000	2.9888	40.068438
1253	1.2530e+000	2.9767	40.059292
1254	1.2540e+000	2.9662	40.045304
1255	1.2550e+000	2.9531	40.027549
1256	1.2560e+000	2.9475	40.032391
1257	1.2570e+000	2.9285	40.004415
1258	1.2580e+000	2.9156	39.988813
1259	1.2590e+000	2.9034	39.965140
1260	1.2600e+000	2.8915	39.961374
1261	1.2610e+000	2.8828	39.936088
1262	1.2620e+000	2.8693	39.935012
1263	1.2630e+000	2.8571	39.908111
1264	1.2640e+000	2.8451	39.900579
1265	1.2650e+000	2.8331	39.891971
1266	1.2660e+000	2.8182	39.867761
1267	1.2670e+000	2.8079	39.860767
1268	1.2680e+000	2.7950	39.834942
1269	1.2690e+000	2.7842	39.826872
1270	1.2700e+000	2.7737	39.804814
1271	1.2710e+000	2.7592	39.792978
1272	1.2720e+000	2.7470	39.778451
1273	1.2730e+000	2.7357	39.760697
1274	1.2740e+000	2.7280	39.752089
1275	1.2750e+000	2.7121	39.734335
1276	1.2760e+000	2.7015	39.718195
1277	1.2770e+000	2.6877	39.693446
1278	1.2780e+000	2.6759	39.679996
1279	1.2790e+000	2.6636	39.682148
1280	1.2800e+000	2.6534	39.655248
1281	1.2810e+000	2.6402	39.636955
1282	1.2820e+000	2.6304	39.626733
1283	1.2830e+000	2.6160	39.600909
1284	1.2840e+000	2.6045	39.583154
1285	1.2850e+000	2.5916	39.582616
1286	1.2860e+000	2.5818	39.555716
1287	1.2870e+000	2.5696	39.534196
1288	1.2880e+000	2.5551	39.532582
1289	1.2890e+000	2.5443	39.508909
1290	1.2900e+000	2.5326	39.485775
1291	1.2910e+000	2.5181	39.473401
1292	1.2920e+000	2.5103	39.469097
1293	1.2930e+000	2.4951	39.436278
1294	1.2940e+000	2.4846	39.422828
1295	1.2950e+000	2.4723	39.419600
1296	1.2960e+000	2.4589	39.374407
1297	1.2970e+000	2.4471	39.373331
1298	1.2980e+000	2.4366	39.367413
1299	1.2990e+000	2.4247	39.348045
1300	1.3000e+000	2.4107	39.322758
1301	1.3010e+000	2.3997	39.313074
1302	1.3020e+000	2.3887	39.299086
1303	1.3030e+000	2.3764	39.275952
1304	1.3040e+000	2.3635	39.254969
1305	1.3050e+000	2.3521	39.240443
1306	1.3060e+000	2.3390	39.215157
1307	1.3070e+000	2.3280	39.207087
1308	1.3080e+000	2.3179	39.178034
1309	1.3090e+000	2.3038	39.177496
1310	1.3100e+000	2.2937	39.142526
1311	1.3110e+000	2.2786	39.144678
1312	1.3120e+000	2.2699	39.121005
1313	1.3130e+000	2.2549	39.094643
1314	1.3140e+000	2.2444	39.088725
1315	1.3150e+000	2.2334	39.072047
1316	1.3160e+000	2.2199	39.044070
1317	1.3170e+000	2.2047	39.028468
1318	1.3180e+000	2.1951	39.016632
1319	1.3190e+000	2.1829	38.994035
1320	1.3200e+000	2.1725	38.971439
1321	1.3210e+000	2.1617	38.967135
1322	1.3220e+000	2.1461	38.945615
1323	1.3230e+000	2.1339	38.916562
1324	1.3240e+000	2.1248	38.911720
1325	1.3250e+000	2.1128	38.880516
1326	1.3260e+000	2.1003	38.844469
1327	1.3270e+000	2.0868	38.850925
1328	1.3280e+000	2.0721	38.826177
1329	1.3290e+000	2.0636	38.811113
1330	1.3300e+000	2.0515	38.791744
1331	1.3310e+000	2.0393	38.782598
1332	1.3320e+000	2.0284	38.753008
1333	1.3330e+000	2.0150	38.732025
1334	1.3340e+000	2.0049	38.717499
1335	1.3350e+000	1.9926	38.695979
1336	1.3360e+000	1.9779	38.677148
1337	1.3370e+000	1.9661	38.666926
1338	1.3380e+000	1.9571	38.651862
1339	1.3390e+000	1.9444	38.613125
1340	1.3400e+000	1.9295	38.600751
1341	1.3410e+000	1.9207	38.586763
1342	1.3420e+000	1.9085	38.565243
1343	1.3430e+000	1.8984	38.552331
1344	1.3440e+000	1.8830	38.522740
1345	1.3450e+000	1.8714	38.505524
1346	1.3460e+000	1.8571	38.478623
1347	1.3470e+000	1.8463	38.470015
1348	1.3480e+000	1.8359	38.456565
1349	1.3490e+000	1.8239	38.418904
1350	1.3500e+000	1.8105	38.412448
1351	1.3510e+000	1.7988	38.403840
1352	1.3520e+000	1.7912	38.370484
1353	1.3530e+000	1.7747	38.347887
1354	1.3540e+000	1.7632	38.334437
1355	1.3550e+000	1.7517	38.304847
1356	1.3560e+000	1.7390	38.287630
1357	1.3570e+000	1.7250	38.273642
1358	1.3580e+000	1.7158	38.252660
1359	1.3590e+000	1.7029	38.224683
1360	1.3600e+000	1.6897	38.213385
1361	1.3610e+000	1.6784	38.191327
1362	1.3620e+000	1.6675	38.173035
1363	1.3630e+000	1.6548	38.142906
1364	1.3640e+000	1.6418	38.131608
1365	1.3650e+000	1.6327	38.098790
1366	1.3660e+000	1.6177	38.074041
1367	1.3670e+000	1.6068	38.070275
1368	1.3680e+000	1.5949	38.044451
1369	1.3690e+000	1.5811	38.018626
1370	1.3700e+000	1.5711	38.001948
1371	1.3710e+000	1.5586	37.989036
1372	1.3720e+000	1.5472	37.950837
1373	1.3730e+000	1.5345	37.932545
1374	1.3740e+000	1.5231	37.911025
1375	1.3750e+000	1.5124	37.887352
1376	1.3760e+000	1.5005	37.874978
1377	1.3770e+000	1.4867	37.853458
1378	1.3780e+000	1.4745	37.827095
1379	1.3790e+000	1.4607	37.803961
1380	1.3800e+000	1.4514	37.775447
1381	1.3810e+000	1.4400	37.764686
1382	1.3820e+000	1.4285	37.734558
1383	1.3830e+000	1.4143	37.710348
1384	1.3840e+000	1.4027	37.688827
1385	1.3850e+000	1.3896	37.661389
1386	1.3860e+000	1.3817	37.644711
1387	1.3870e+000	1.3681	37.615658
1388	1.3880e+000	1.3545	37.597904
1389	1.3890e+000	1.3440	37.576383
1390	1.3900e+000	1.3322	37.555939
1391	1.3910e+000	1.3216	37.521507
1392	1.3920e+000	1.3055	37.499986
1393	1.3930e+000	1.2954	37.467706
1394	1.3940e+000	1.2826	37.458022
1395	1.3950e+000	1.2726	37.425741
1396	1.3960e+000	1.2592	37.407987
1397	1.3970e+000	1.2495	37.376244
1398	1.3980e+000	1.2387	37.349344
1399	1.3990e+000	1.2220	37.325672
1400	1.4000e+000	1.2138	37.310069
1401	1.4010e+000	1.1992	37.261649
1402	1.4020e+000	1.1877	37.257883
1403	1.4030e+000	1.1758	37.232058
1404	1.4040e+000	1.1646	37.194936
1405	1.4050e+000	1.1511	37.174491
1406	1.4060e+000	1.1398	37.149743
1407	1.4070e+000	1.1279	37.123380
1408	1.4080e+000	1.1167	37.088410
1409	1.4090e+000	1.1023	37.069580
1410	1.4100e+000	1.0934	37.045369
1411	1.4110e+000	1.0806	37.007171
1412	1.4120e+000	1.0677	36.986188
1413	1.4130e+000	1.0582	36.954984
1414	1.4140e+000	1.0413	36.923779
1415	1.4150e+000	1.0310	36.890961
1416	1.4160e+000	1.0205	36.875897
1417	1.4170e+000	1.0075	36.842540
1418	1.4180e+000	0.9946	36.815102
1419	1.4190e+000	0.9832	36.773675
1420	1.4200e+000	0.9717	36.744085
1421	1.4210e+000	0.9598	36.721488
1422	1.4220e+000	0.9473	36.697278
1423	1.4230e+000	0.9361	36.658003
1424	1.4240e+000	0.9252	36.624647
1425	1.4250e+000	0.9100	36.591290
1426	1.4260e+000	0.8985	36.562776
1427	1.4270e+000	0.8871	36.529419
1428	1.4280e+000	0.8765	36.495525
1429	1.4290e+000	0.8650	36.469162
1430	1.4300e+000	0.8527	36.427198
1431	1.4310e+000	0.8382	36.396531
1432	1.4320e+000	0.8287	36.361023
1433	1.4330e+000	0.8131	36.315292
1434	1.4340e+000	0.8040	36.288930
1435	1.4350e+000	0.7928	36.251269
1436	1.4360e+000	0.7805	36.211456
1437	1.4370e+000	0.7681	36.179176
1438	1.4380e+000	0.7561	36.130755
1439	1.4390e+000	0.7464	36.094709
1440	1.4400e+000	0.7304	36.062428
1441	1.4410e+000	0.7206	36.020463
1442	1.4420e+000	0.7079	35.967201
1443	1.4430e+000	0.6956	35.922008
1444	1.4440e+000	0.6838	35.881657
1445	1.4450e+000	0.6718	35.837003
1446	1.4460e+000	0.6586	35.786430
1447	1.4470e+000	0.6519	35.733705
1448	1.4480e+000	0.6345	35.692816
1449	1.4490e+000	0.6232	35.643858
1450	1.4500e+000	0.6121	35.595975
1451	1.4510e+000	0.5997	35.531952
1452	1.4520e+000	0.5882	35.487835
1453	1.4530e+000	0.5779	35.431344
1454	1.4540e+000	0.5646	35.362479
1455	1.4550e+000	0.5507	35.314059
1456	1.4560e+000	0.5374	35.237123
1457	1.4570e+000	0.5290	35.178480
1458	1.4580e+000	0.5156	35.128446
1459	1.4590e+000	0.5029	35.055277
1460	1.4600e+000	0.4896	34.976189
1461	1.4610e+000	0.4761	34.910552
1462	1.4620e+000	0.4702	34.826623
1463	1.4630e+000	0.4566	34.749150
1464	1.4640e+000	0.4447	34.682437
1465	1.4650e+000	0.4307	34.590975
1466	1.4660e+000	0.4186	34.495210
1467	1.4670e+000	0.4064	34.403210
1468	1.4680e+000	0.3951	34.309597
1469	1.4690e+000	0.3844	34.196077
1470	1.4700e+000	0.3706	34.087400
1471	1.4710e+000	0.3593	33.979260
1472	1.4720e+000	0.3465	33.858746
1473	1.4730e+000	0.3342	33.723706
1474	1.4740e+000	0.3250	33.588128
1475	1.4750e+000	0.3139	33.432643
1476	1.4760e+000	0.2979	33.284153
1477	1.4770e+000	0.2872	33.124365
1478	1.4780e+000	0.2766	32.949512
1479	1.4790e+000	0.2644	32.764437
1480	1.4800e+000	0.2535	32.565912
1481	1.4810e+000	0.2403	32.367925
1482	1.4820e+000	0.2276	32.147880
1483	1.4830e+000	0.2164	31.900396
1484	1.4840e+000	0.2048	31.658830
1485	1.4850e+000	0.1931	31.397896
1486	1.4860e+000	0.1816	31.112214
1487	1.4870e+000	0.1672	30.825993
1488	1.4880e+000	0.1575	30.525785
1489	1.4890e+000	0.1422	30.185225
1490	1.4900e+000	0.1320	29.841976
1491	1.4910e+000	0.1192	29.487967
1492	1.4920e+000	0.1070	29.093068
1493	1.4930e+000	0.0932	28.679878
1494	1.4940e+000	0.0848	28.274220
1495	1.4950e+000	0.0729	27.828749
1496	1.4960e+000	0.0599	27.367138
1497	1.4970e+000	0.0461	26.899609
1498	1.4980e+000	0.0380	26.398723
1499	1.4990e+000	0.0237	25.889767
1500	1.5000e+000	0.0121	25.366823
1501	1.5010e+000	0.0015	24.811060
1502	1.5020e+000	-0.0089	24.245076
1503	1.5030e+000	-0.0226	23.648424
1504	1.5040e+000	-0.0333	23.051235
1505	1.5050e+000	-0.0476	22.444900
1506	1.5060e+000	-0.0587	21.806822
1507	1.5070e+000	-0.0690	21.155294
1508	1.5080e+000	-0.0826	20.482245
1509	1.5090e+000	-0.0954	19.797899
1510	1.5100e+000	-0.1051	19.097412
1511	1.5110e+000	-0.1179	18.373253
1512	1.5120e+000	-0.1299	17.646404
1513	1.5130e+000	-0.1417	16.905028
1514	1.5140e+000	-0.1555	16.142670
1515	1.5150e+000	-0.1643	15.360944
1516	1.5160e+000	-0.1786	14.583522
1517	1.5170e+000	-0.1894	13.773282
1518	1.5180e+000	-0.2021	12.953357
1519	1.5190e+000	-0.2144	12.126976
1520	1.5200e+000	-0.2263	11.283917
1521	1.5210e+000	-0.2364	10.434402
1522	1.5220e+000	-0.2505	9.574127
1523	1.5230e+000	-0.2612	8.724074
1524	1.5240e+000	-0.2722	7.833132
1525	1.5250e+000	-0.2859	6.952412
1526	1.5260e+000	-0.2973	6.070079
1527	1.5270e+000	-0.3098	5.184517
1528	1.5280e+000	-0.3210	4.278511
1529	1.5290e+000	-0.3339	3.375733
1530	1.5300e+000	-0.3456	2.492323
1531	1.5310e+000	-0.3576	1.582013
1532	1.5320e+000	-0.3699	0.686230
1533	1.5330e+000	-0.3847	-0.199870
1534	1.5340e+000	-0.3959	-1.096192
1535	1.5350e+000	-0.4050	-1.978526
1536	1.5360e+000	-0.4185	-2.859245
1537	1.5370e+000	-0.4316	-3.728129
1538	1.5380e+000	-0.4413	-4.576568
1539	1.5390e+000	-0.4533	-5.422317
1540	1.5400e+000	-0.4681	-6.244393
1541	1.5410e+000	-0.4792	-7.049254
1542	1.5420e+000	-0.4882	-7.846582
1543	1.5430e+000	-0.5035	-8.628846
1544	1.5440e+000	-0.5149	-9.386362
1545	1.5450e+000	-0.5251	-10.111059
1546	1.5460e+000	-0.5368	-10.856739
1547	1.5470e+000	-0.5508	-11.572290
1548	1.5480e+000	-0.5621	-12.257712
1549	1.5490e+000	-0.5759	-12.929147
1550	1.5500e+000	-0.5878	-13.600581
1551	1.5510e+000	-0.5972	-14.230051
1552	1.5520e+000	-0.6108	-14.843918
1553	1.5530e+000	-0.6236	-15.461014
1554	1.5540e+000	-0.6349	-16.048519
1555	1.5550e+000	-0.6468	-16.615042
1556	1.5560e+000	-0.6576	-17.180488
1557	1.5570e+000	-0.6702	-17.728719
1558	1.5580e+000	-0.6814	-18.258119
1559	1.5590e+000	-0.6945	-18.791823
1560	1.5600e+000	-0.7064	-19.286791
1561	1.5610e+000	-0.7185	-19.781221
1562	1.5620e+000	-0.7299	-20.271346
1563	1.5630e+000	-0.7424	-20.752864
1564	1.5640e+000	-0.7548	-21.215013
1565	1.5650e+000	-0.7681	-21.673396
1566	1.5660e+000	-0.7772	-22.117253
1567	1.5670e+000	-0.7921	-22.551963
1568	1.5680e+000	-0.8047	-22.973762
1569	1.5690e+000	-0.8148	-23.406859
1570	1.5700e+000	-0.8282	-23.798529
1571	1.5710e+000	-0.8407	-24.197731
1572	1.5720e+000	-0.8523	-24.589939
1573	1.5730e+000	-0.8640	-24.964931
1574	1.5740e+000	-0.8731	-25.337770
1575	1.5750e+000	-0.8873	-25.710072
1576	1.5760e+000	-0.8990	-26.072152
1577	1.5770e+000	-0.9116	-26.412711
1578	1.5780e+000	-0.9258	-26.752194
1579	1.5790e+000	-0.9368	-27.074999
1580	1.5800e+000	-0.9484	-27.402646
1581	1.5810e+000	-0.9613	-27.723299
1582	1.5820e+000	-0.9716	-28.024584
1583	1.5830e+000	-0.9837	-28.318874
1584	1.5840e+000	-0.9964	-28.615855
1585	1.5850e+000	-1.0081	-28.890239
1586	1.5860e+000	-1.0210	-29.168390
1587	1.5870e+000	-1.0295	-29.421253
1588	1.5880e+000	-1.0439	-29.673579
1589	1.5890e+000	-1.0549	-29.934513
1590	1.5900e+000	-1.0669	-30.165319
1591	1.5910e+000	-1.0798	-30.403657
1592	1.5920e+000	-1.0926	-30.624778
1593	1.5930e+000	-1.1057	-30.829221
1594	1.5940e+000	-1.1173	-31.046039
1595	1.5950e+000	-1.1287	-31.246178
1596	1.5960e+000	-1.1402	-31.438247
1597	1.5970e+000	-1.1515	-31.627088
1598	1.5980e+000	-1.1620	-31.816466
1599	1.5990e+000	-1.1761	-31.996161
1600	1.6000e+000	-1.1872	-32.160254
1601	1.6010e+000	-1.2012	-32.324884
1602	1.6020e+000	-1.2118	-32.486825
1603	1.6030e+000	-1.2238	-32.627245
1604	1.6040e+000	-1.2363	-32.781653
1605	1.6050e+000	-1.2485	-32.926378
1606	1.6060e+000	-1.2602	-33.051734
1607	1.6070e+000	-1.2714	-33.187850
1608	1.6080e+000	-1.2825	-33.322352
1609	1.6090e+000	-1.2975	-33.442866
1610	1.6100e+000	-1.3085	-33.562303
1611	1.6110e+000	-1.3205	-33.688197
1612	1.6120e+000	-1.3322	-33.796875
1613	1.6130e+000	-1.3443	-33.892103
1614	1.6140e+000	-1.3559	-34.013692
1615	1.6150e+000	-1.3671	-34.118066
1616	1.6160e+000	-1.3782	-34.211679
1617	1.6170e+000	-1.3947	-34.318205
1618	1.6180e+000	-1.4043	-34.419351
1619	1.6190e+000	-1.4165	-34.495748
1620	1.6200e+000	-1.4268	-34.598507
1621	1.6210e+000	-1.4401	-34.685127
1622	1.6220e+000	-1.4518	-34.769594
1623	1.6230e+000	-1.4638	-34.842225
1624	1.6240e+000	-1.4749	-34.929921
1625	1.6250e+000	-1.4876	-35.004166
1626	1.6260e+000	-1.4994	-35.082715
1627	1.6270e+000	-1.5122	-35.161802
1628	1.6280e+000	-1.5249	-35.229591
1629	1.6290e+000	-1.5367	-35.312982
1630	1.6300e+000	-1.5491	-35.384538
1631	1.6310e+000	-1.5610	-35.455017
1632	1.6320e+000	-1.5751	-35.516888
1633	1.6330e+000	-1.5858	-35.584677
1634	1.6340e+000	-1.5962	-35.651928
1635	1.6350e+000	-1.6082	-35.720255
1636	1.6360e+000	-1.6218	-35.776208
1637	1.6370e+000	-1.6308	-35.848301
1638	1.6380e+000	-1.6442	-35.902640
1639	1.6390e+000	-1.6571	-35.959668
1640	1.6400e+000	-1.6684	-36.022615
1641	1.6410e+000	-1.6794	-36.089328
1642	1.6420e+000	-1.6908	-36.115153
1643	1.6430e+000	-1.7026	-36.200696
1644	1.6440e+000	-1.7152	-36.252883
1645	1.6450e+000	-1.7277	-36.298614
1646	1.6460e+000	-1.7403	-36.361561
1647	1.6470e+000	-1.7514	-36.409443
1648	1.6480e+000	-1.7641	-36.461630
1649	1.6490e+000	-1.7754	-36.515431
1650	1.6500e+000	-1.7875	-36.571922
1651	1.6510e+000	-1.8003	-36.611735
1652	1.6520e+000	-1.8129	-36.659079
1653	1.6530e+000	-1.8260	-36.719336
1654	1.6540e+000	-1.8356	-36.762915
1655	1.6550e+000	-1.8488	-36.817792
1656	1.6560e+000	-1.8596	-36.857604
1657	1.6570e+000	-1.8728	-36.910329
1658	1.6580e+000	-1.8833	-36.957136
1659	1.6590e+000	-1.8964	-37.004481
1660	1.6600e+000	-1.9065	-37.051287
1661	1.6610e+000	-1.9238	-37.095942
1662	1.6620e+000	-1.9336	-37.141673
1663	1.6630e+000	-1.9432	-37.182561
1664	1.6640e+000	-1.9565	-37.230444
1665	1.6650e+000	-1.9690	-37.274023
1666	1.6660e+000	-1.9807	-37.322444
1667	1.6670e+000	-1.9923	-37.361180
1668	1.6680e+000	-2.0038	-37.396151
1669	1.6690e+000	-2.0160	-37.448875
1670	1.6700e+000	-2.0280	-37.484384
1671	1.6710e+000	-2.0406	-37.511822
1672	1.6720e+000	-2.0512	-37.566161
1673	1.6730e+000	-2.0636	-37.619962
1674	1.6740e+000	-2.0786	-37.654395
1675	1.6750e+000	-2.0894	-37.690979
1676	1.6760e+000	-2.1009	-37.735634
1677	1.6770e+000	-2.1132	-37.767376
1678	1.6780e+000	-2.1243	-37.805037
1679	1.6790e+000	-2.1361	-37.855072
1680	1.6800e+000	-2.1492	-37.888428
1681	1.6810e+000	-2.1606	-37.925013
1682	1.6820e+000	-2.1733	-37.963749
1683	1.6830e+000	-2.1829	-38.006790
1684	1.6840e+000	-2.1964	-38.039071
1685	1.6850e+000	-2.2096	-38.076193
1686	1.6860e+000	-2.2192	-38.118158
1687	1.6870e+000	-2.2349	-38.164427
1688	1.6880e+000	-2.2431	-38.180567
1689	1.6890e+000	-2.2510	-38.206929
1690	1.6900e+000	-2.2689	-38.255350
1691	1.6910e+000	-2.2810	-38.286554
1692	1.6920e+000	-2.2899	-38.332823
1693	1.6930e+000	-2.3050	-38.369408
1694	1.6940e+000	-2.3182	-38.393618
1695	1.6950e+000	-2.3280	-38.437197
1696	1.6960e+000	-2.3403	-38.470553
1697	1.6970e+000	-2.3530	-38.499068
1698	1.6980e+000	-2.3631	-38.532962
1699	1.6990e+000	-2.3753	-38.576003
1700	1.7000e+000	-2.3883	-38.598599
1701	1.7010e+000	-2.4010	-38.629266
1702	1.7020e+000	-2.4110	-38.673920
1703	1.7030e+000	-2.4246	-38.699207
1704	1.7040e+000	-2.4351	-38.725031
1705	1.7050e+000	-2.4460	-38.783674
1706	1.7060e+000	-2.4596	-38.794972
1707	1.7070e+000	-2.4686	-38.806808
1708	1.7080e+000	-2.4848	-38.866527
1709	1.7090e+000	-2.4961	-38.897194
1710	1.7100e+000	-2.5068	-38.916024
1711	1.7110e+000	-2.5217	-38.953147
1712	1.7120e+000	-2.5331	-38.984889
1713	1.7130e+000	-2.5440	-39.008024
1714	1.7140e+000	-2.5565	-39.041918
1715	1.7150e+000	-2.5668	-39.088725
1716	1.7160e+000	-2.5795	-39.110245
1717	1.7170e+000	-2.5927	-39.134994
1718	1.7180e+000	-2.6044	-39.175882
1719	1.7190e+000	-2.6155	-39.199017
1720	1.7200e+000	-2.6295	-39.215695
1721	1.7210e+000	-2.6391	-39.259273
1722	1.7220e+000	-2.6541	-39.292092
1723	1.7230e+000	-2.6659	-39.317378
1724	1.7240e+000	-2.6767	-39.349659
1725	1.7250e+000	-2.6880	-39.363109
1726	1.7260e+000	-2.7011	-39.405074
1727	1.7270e+000	-2.7147	-39.435202
1728	1.7280e+000	-2.7238	-39.469635
1729	1.7290e+000	-2.7370	-39.494921
1730	1.7300e+000	-2.7486	-39.519669
1731	1.7310e+000	-2.7593	-39.557330
1732	1.7320e+000	-2.7717	-39.572932
1733	1.7330e+000	-2.7859	-39.596067
1734	1.7340e+000	-2.7977	-39.633727
1735	1.7350e+000	-2.8088	-39.662780
1736	1.7360e+000	-2.8197	-39.683224
1737	1.7370e+000	-2.8339	-39.714966
1738	1.7380e+000	-2.8440	-39.741867
1739	1.7390e+000	-2.8551	-39.760697
1740	1.7400e+000	-2.8690	-39.788674
1741	1.7410e+000	-2.8801	-39.825258
1742	1.7420e+000	-2.8939	-39.832252
1743	1.7430e+000	-2.9072	-39.873141
1744	1.7440e+000	-2.9165	-39.910264
1745	1.7450e+000	-2.9295	-39.919410
1746	1.7460e+000	-2.9418	-39.939316
1747	1.7470e+000	-2.9530	-39.979129
1748	1.7480e+000	-2.9651	-40.007643
1749	1.7490e+000	-2.9762	-40.021631
1750	1.7500e+000	-2.9900	-40.055526
1751	1.7510e+000	-3.0019	-40.086192
1752	1.7520e+000	-2.9892	-40.063058
1753	1.7530e+000	-2.9794	-40.061982
1754	1.7540e+000	-2.9630	-40.046918
1755	1.7550e+000	-2.9543	-40.027549
1756	1.7560e+000	-2.9429	-40.016251
1757	1.7570e+000	-2.9288	-40.001187
1758	1.7580e+000	-2.9153	-39.992041
1759	1.7590e+000	-2.9043	-39.963526
1760	1.7600e+000	-2.8931	-39.946310
1761	1.7610e+000	-2.8825	-39.931246
1762	1.7620e+000	-2.8685	-39.904883
1763	1.7630e+000	-2.8557	-39.890895
1764	1.7640e+000	-2.8442	-39.876369
1765	1.7650e+000	-2.8336	-39.862919
1766	1.7660e+000	-2.8210	-39.837094
1767	1.7670e+000	-2.8065	-39.830100
1768	1.7680e+000	-2.7975	-39.808580
1769	1.7690e+000	-2.7836	-39.784908
1770	1.7700e+000	-2.7718	-39.776837
1771	1.7710e+000	-2.7626	-39.753165
1772	1.7720e+000	-2.7470	-39.727341
1773	1.7730e+000	-2.7364	-39.708510
1774	1.7740e+000	-2.7258	-39.693446
1775	1.7750e+000	-2.7122	-39.675692
1776	1.7760e+000	-2.6989	-39.664394
1777	1.7770e+000	-2.6890	-39.640183
1778	1.7780e+000	-2.6757	-39.611669
1779	1.7790e+000	-2.6630	-39.589611
1780	1.7800e+000	-2.6535	-39.590149
1781	1.7810e+000	-2.6413	-39.556792
1782	1.7820e+000	-2.6284	-39.528816
1783	1.7830e+000	-2.6154	-39.520745
1784	1.7840e+000	-2.6066	-39.504605
1785	1.7850e+000	-2.5937	-39.476091
1786	1.7860e+000	-2.5791	-39.464255
1787	1.7870e+000	-2.5681	-39.440044
1788	1.7880e+000	-2.5568	-39.409378
1789	1.7890e+000	-2.5440	-39.393238
1790	1.7900e+000	-2.5314	-39.380863
1791	1.7910e+000	-2.5179	-39.346431
1792	1.7920e+000	-2.5091	-39.328677
1793	1.7930e+000	-2.4980	-39.320068
1794	1.7940e+000	-2.4848	-39.290478
1795	1.7950e+000	-2.4714	-39.265192
1796	1.7960e+000	-2.4599	-39.254969
1797	1.7970e+000	-2.4478	-39.232911
1798	1.7980e+000	-2.4366	-39.197402
1799	1.7990e+000	-2.4226	-39.188794
1800	1.8000e+000	-2.4123	-39.168350
1801	1.8010e+000	-2.4011	-39.137146
1802	1.8020e+000	-2.3904	-39.114011
1803	1.8030e+000	-2.3763	-39.104865
1804	1.8040e+000	-2.3650	-39.076889
1805	1.8050e+000	-2.3528	-39.053216
1806	1.8060e+000	-2.3425	-39.026854
1807	1.8070e+000	-2.3291	-39.009638
1808	1.8080e+000	-2.3173	-38.982737
1809	1.8090e+000	-2.3055	-38.968749
1810	1.8100e+000	-2.2928	-38.939697
1811	1.8110e+000	-2.2808	-38.908492
1812	1.8120e+000	-2.2680	-38.886434
1813	1.8130e+000	-2.2560	-38.865989
1814	1.8140e+000	-2.2451	-38.844469
1815	1.8150e+000	-2.2321	-38.815417
1816	1.8160e+000	-2.2202	-38.796048
1817	1.8170e+000	-2.2083	-38.769686
1818	1.8180e+000	-2.1961	-38.743861
1819	1.8190e+000	-2.1864	-38.726645
1820	1.8200e+000	-2.1734	-38.710505
1821	1.8210e+000	-2.1621	-38.669616
1822	1.8220e+000	-2.1488	-38.650786
1823	1.8230e+000	-2.1379	-38.629266
1824	1.8240e+000	-2.1275	-38.597523
1825	1.8250e+000	-2.1123	-38.579769
1826	1.8260e+000	-2.1004	-38.556097
1827	1.8270e+000	-2.0912	-38.530810
1828	1.8280e+000	-2.0733	-38.497992
1829	1.8290e+000	-2.0618	-38.482389
1830	1.8300e+000	-2.0534	-38.444729
1831	1.8310e+000	-2.0399	-38.414062
1832	1.8320e+000	-2.0269	-38.396308
1833	1.8330e+000	-2.0174	-38.366180
1834	1.8340e+000	-2.0055	-38.339279
1835	1.8350e+000	-1.9954	-38.319373
1836	1.8360e+000	-1.9790	-38.287630
1837	1.8370e+000	-1.9689	-38.253198
1838	1.8380e+000	-1.9569	-38.236520
1839	1.8390e+000	-1.9476	-38.208005
1840	1.8400e+000	-1.9324	-38.173573
1841	1.8410e+000	-1.9212	-38.141292
1842	1.8420e+000	-1.9065	-38.131070
1843	1.8430e+000	-1.8945	-38.091257
1844	1.8440e+000	-1.8848	-38.062743
1845	1.8450e+000	-1.8733	-38.037995
1846	1.8460e+000	-1.8597	-38.007328
1847	1.8470e+000	-1.8494	-37.977738
1848	1.8480e+000	-1.8369	-37.955141
1849	1.8490e+000	-1.8255	-37.917481
1850	1.8500e+000	-1.8130	-37.890042
1851	1.8510e+000	-1.7999	-37.857762
1852	1.8520e+000	-1.7892	-37.831937
1853	1.8530e+000	-1.7767	-37.799657
1854	1.8540e+000	-1.7662	-37.787821
1855	1.8550e+000	-1.7518	-37.745318
1856	1.8560e+000	-1.7410	-37.713038
1857	1.8570e+000	-1.7263	-37.683985
1858	1.8580e+000	-1.7142	-37.653857
1859	1.8590e+000	-1.7036	-37.624804
1860	1.8600e+000	-1.6931	-37.589834
1861	1.8610e+000	-1.6792	-37.561319
1862	1.8620e+000	-1.6688	-37.530653
1863	1.8630e+000	-1.6550	-37.488688
1864	1.8640e+000	-1.6457	-37.460174
1865	1.8650e+000	-1.6340	-37.426817
1866	1.8660e+000	-1.6187	-37.391847
1867	1.8670e+000	-1.6086	-37.360642
1868	1.8680e+000	-1.5929	-37.332128
1869	1.8690e+000	-1.5829	-37.296619
1870	1.8700e+000	-1.5740	-37.252502
1871	1.8710e+000	-1.5597	-37.232058
1872	1.8720e+000	-1.5465	-37.203544
1873	1.8730e+000	-1.5363	-37.161041
1874	1.8740e+000	-1.5244	-37.129299
1875	1.8750e+000	-1.5126	-37.091638
1876	1.8760e+000	-1.4985	-37.057205
1877	1.8770e+000	-1.4874	-37.016855
1878	1.8780e+000	-1.4749	-36.986188
1879	1.8790e+000	-1.4657	-36.945838
1880	1.8800e+000	-1.4525	-36.911405
1881	1.8810e+000	-1.4415	-36.878049
1882	1.8820e+000	-1.4276	-36.833932
1883	1.8830e+000	-1.4162	-36.796809
1884	1.8840e+000	-1.4046	-36.763453
1885	1.8850e+000	-1.3898	-36.729020
1886	1.8860e+000	-1.3815	-36.681138
1887	1.8870e+000	-1.3681	-36.646167
1888	1.8880e+000	-1.3544	-36.606354
1889	1.8890e+000	-1.3462	-36.562238
1890	1.8900e+000	-1.3335	-36.538027
1891	1.8910e+000	-1.3215	-36.488531
1892	1.8920e+000	-1.3070	-36.451946
1893	1.8930e+000	-1.2950	-36.404601
1894	1.8940e+000	-1.2845	-36.375011
1895	1.8950e+000	-1.2733	-36.328204
1896	1.8960e+000	-1.2622	-36.277631
1897	1.8970e+000	-1.2495	-36.236205
1898	1.8980e+000	-1.2356	-36.201772
1899	1.8990e+000	-1.2244	-36.148509
1900	1.9000e+000	-1.2141	-36.110849
1901	1.9010e+000	-1.2000	-36.075878
1902	1.9020e+000	-1.1882	-36.014007
1903	1.9030e+000	-1.1761	-35.981189
1904	1.9040e+000	-1.1620	-35.937072
1905	1.9050e+000	-1.1527	-35.887037
1906	1.9060e+000	-1.1381	-35.827856
1907	1.9070e+000	-1.1264	-35.805260
1908	1.9080e+000	-1.1153	-35.746079
1909	1.9090e+000	-1.1053	-35.691740
1910	1.9100e+000	-1.0904	-35.651390
1911	1.9110e+000	-1.0831	-35.595975
1912	1.9120e+000	-1.0655	-35.537870
1913	1.9130e+000	-1.0545	-35.505051
1914	1.9140e+000	-1.0427	-35.452865
1915	1.9150e+000	-1.0326	-35.394760
1916	1.9160e+000	-1.0185	-35.342573
1917	1.9170e+000	-1.0065	-35.301146
1918	1.9180e+000	-0.9960	-35.236047
1919	1.9190e+000	-0.9869	-35.193007
1920	1.9200e+000	-0.9714	-35.130598
1921	1.9210e+000	-0.9587	-35.071417
1922	1.9220e+000	-0.9498	-34.997710
1923	1.9230e+000	-0.9354	-34.956821
1924	1.9240e+000	-0.9238	-34.898716
1925	1.9250e+000	-0.9126	-34.837921
1926	1.9260e+000	-0.9009	-34.778740
1927	1.9270e+000	-0.8899	-34.724401
1928	1.9280e+000	-0.8787	-34.649080
1929	1.9290e+000	-0.8655	-34.584519
1930	1.9300e+000	-0.8520	-34.527490
1931	1.9310e+000	-0.8382	-34.458087
1932	1.9320e+000	-0.8289	-34.395678
1933	1.9330e+000	-0.8188	-34.340263
1934	1.9340e+000	-0.8051	-34.252030
1935	1.9350e+000	-0.7903	-34.189083
1936	1.9360e+000	-0.7798	-34.124522
1937	1.9370e+000	-0.7681	-34.052429
1938	1.9380e+000	-0.7561	-33.965810
1939	1.9390e+000	-0.7424	-33.900173
1940	1.9400e+000	-0.7300	-33.822161
1941	1.9410e+000	-0.7211	-33.747378
1942	1.9420e+000	-0.7091	-33.670443
1943	1.9430e+000	-0.6966	-33.585438
1944	1.9440e+000	-0.6835	-33.495590
1945	1.9450e+000	-0.6718	-33.405743
1946	1.9460e+000	-0.6633	-33.339030
1947	1.9470e+000	-0.6512	-33.242727
1948	1.9480e+000	-0.6357	-33.152879
1949	1.9490e+000	-0.6236	-33.056576
1950	1.9500e+000	-0.6133	-32.966728
1951	1.9510e+000	-0.5990	-32.862893
1952	1.9520e+000	-0.5862	-32.763899
1953	1.9530e+000	-0.5751	-32.672438
1954	1.9540e+000	-0.5643	-32.555152
1955	1.9550e+000	-0.5522	-32.457234
1956	1.9560e+000	-0.5392	-32.343177
1957	1.9570e+000	-0.5297	-32.223201
1958	1.9580e+000	-0.5167	-32.099459
1959	1.9590e+000	-0.5048	-31.999927
1960	1.9600e+000	-0.4911	-31.877261
1961	1.9610e+000	-0.4795	-31.731461
1962	1.9620e+000	-0.4655	-31.616865
1963	1.9630e+000	-0.4569	-31.493661
1964	1.9640e+000	-0.4427	-31.336563
1965	1.9650e+000	-0.4305	-31.206903
1966	1.9660e+000	-0.4208	-31.056261
1967	1.9670e+000	-0.4092	-30.902390
1968	1.9680e+000	-0.3950	-30.749596
1969	1.9690e+000	-0.3841	-30.597340
1970	1.9700e+000	-0.3722	-30.427867
1971	1.9710e+000	-0.3596	-30.255704
1972	1.9720e+000	-0.3503	-30.086770
1973	1.9730e+000	-0.3348	-29.909765
1974	1.9740e+000	-0.3239	-29.720386
1975	1.9750e+000	-0.3124	-29.532621
1976	1.9760e+000	-0.3009	-29.338938
1977	1.9770e+000	-0.2880	-29.125349
1978	1.9780e+000	-0.2745	-28.936508
1979	1.9790e+000	-0.2643	-28.716463
1980	1.9800e+000	-0.2515	-28.493189
1981	1.9810e+000	-0.2404	-28.268302
1982	1.9820e+000	-0.2287	-28.037496
1983	1.9830e+000	-0.2174	-27.788936
1984	1.9840e+000	-0.2045	-27.544680
1985	1.9850e+000	-0.1909	-27.305267
1986	1.9860e+000	-0.1817	-27.043795
1987	1.9870e+000	-0.1667	-26.773177
1988	1.9880e+000	-0.1563	-26.505786
1989	1.9890e+000	-0.1453	-26.231402
1990	1.9900e+000	-0.1333	-25.926351
1991	1.9910e+000	-0.1207	-25.639055
1992	1.9920e+000	-0.1068	-25.337770
1993	1.9930e+000	-0.0963	-25.016041
1994	1.9940e+000	-0.0855	-24.689470
1995	1.9950e+000	-0.0727	-24.376888
1996	1.9960e+000	-0.0613	-24.042784
1997	1.9970e+000	-0.0494	-23.690927
1998	1.9980e+000	-0.0352	-23.352520
1999	1.9990e+000	-0.0244	-22.998510
2000	2.0000e+000	-0.0127	-22.621366
2001	2.0010e+000	-0.0001	-22.246913

Center data before PMax,±Pr and ±Vc Calc.

PMax (µC/cm2):	4.01e+001
Pr (µC/cm2):	2.47e+001
-Pr (µC/cm2):	-2.22e+001
Vc:	4.90e-001
-Vc:	-3.81e-001
C (Max-Eff) (nF):	1.05e+000
Vert. (±Pr) Shift (µC/cm2):	1.24e+000
Horiz. Shift (±Vc):	5.44e-002
Offset (µC/cm2):	1.52e+001

A (Loop Area - µC/cm2·Volts):	6.40e+001



Hysteresis Version: 5.12.0 - Radiant Technologies, Inc., 1999 - 11/30/16

