»»»»»»»»»»»»»»»»»»»»»»»»»»»»»»»»»»»» Hysteresis ««««««««««««««««««««««««««««««««««««
»»»  Executed Version:	5.12.0
»»»  Vision Version:	5.12.5 (R)
»»»  Vision Compiled:	2/24/17
»»»  Driver Version:	5.12.4
»»»  Windows Version:	Windows 7
»»»  Processor Information:	x86 (AMD or Intel) - 2 Processors
»»»  Tester Name:	PMF0910-256
»»»  Tester S/N:	PMF0910-256
»»»  Internal Amp Type:	 RTI 100V      
»»»  Internal Amp S/N:	 iAB1-0000     
»»»  Execution Count:	1
»»»»»»»»»»»»»»»»»»»»»»»»»»»»»»»»»»»»»»»»»»««««««««««««««««««««««««««««««««««««««««««

Stored:	8/4/2017 - 8:49:20
Configured:	08/03/17 01:23:53 PM
Executed:	08/04/17 08:48:24 AM

»»»»»»»»»»»»»»»»»»»»»»»»»»»»»»»»»»» Sample Info ««««««««««««««««««««««««««««««««««««
Sample Name:	63
Lot Name:	
Wafer Name:	
Die Row/Column:	1/1
Capacitor Number:	1
Sample Area (cm2):	4.91e-006
Sample Thickness (µm):	1.00e-001

Mux Loop Adjustment:	Disabled

Amplifier:	Internal

»»»»»»»»»»»»»»»»»»»»»»»»»»»»»»»»»»» Tester Info «««««««««««««««««««««««««««««««««««
Tester Name:	PMF0910-256
Tester Serial Number:	PMF0910-256
Return Signal Amp. Level:	16.67 [Index: 1]

»»»»»»»»»»»»»»»»»»»»»»»»»»»»»»»» Hysteresis Info ««««««««««««««««««««««««««««««««««
Task Name:	Hyst-2
Volts:	3.00
Field:	300.00 (kV/cm)
Hysteresis Period (ms):	2.00e+000
Preset:	Enabled
Preset Delay (ms):	1.00e+003
Profile:	Double Bipolar

»»»»»»»»»»»»»»»»»»»»»»»»»»»»»»»»»»»»»» Data «««««««««««««««««««««««««««««««««««««««
Points:	2001

Valid Data

Point	Time (ms)	Drive Voltage	Measured Polarization
   1	1.0000e-003	-0.0018	-20.720240
   2	2.0000e-003	0.0091	-20.713751
   3	3.0000e-003	0.0234	-20.641450
   4	4.0000e-003	0.0341	-20.591396
   5	5.0000e-003	0.0456	-20.556172
   6	6.0000e-003	0.0585	-20.488506
   7	7.0000e-003	0.0716	-20.522802
   8	8.0000e-003	0.0828	-20.275311
   9	9.0000e-003	0.0925	-20.240087
  10	1.0000e-002	0.1060	-20.181690
  11	1.1000e-002	0.1192	-20.067677
  12	1.2000e-002	0.1308	-19.982399
  13	1.3000e-002	0.1444	-19.880437
  14	1.4000e-002	0.1546	-19.763643
  15	1.5000e-002	0.1675	-19.613479
  16	1.6000e-002	0.1788	-19.481855
  17	1.7000e-002	0.1883	-19.344668
  18	1.8000e-002	0.2048	-19.205628
  19	1.9000e-002	0.2122	-19.012825
  20	2.0000e-002	0.2270	-18.849685
  21	2.1000e-002	0.2390	-18.688398
  22	2.2000e-002	0.2532	-18.497450
  23	2.3000e-002	0.2633	-18.302793
  24	2.4000e-002	0.2754	-18.137799
  25	2.5000e-002	0.2824	-17.928312
  26	2.6000e-002	0.3003	-17.503775
  27	2.7000e-002	0.3113	-17.359174
  28	2.8000e-002	0.3209	-17.227549
  29	2.9000e-002	0.3348	-17.025477
  30	3.0000e-002	0.3458	-16.867898
  31	3.1000e-002	0.3578	-16.692707
  32	3.2000e-002	0.3703	-16.504540
  33	3.3000e-002	0.3816	-16.315445
  34	3.4000e-002	0.3963	-16.092980
  35	3.5000e-002	0.4043	-15.894616
  36	3.6000e-002	0.4205	-15.676787
  37	3.7000e-002	0.4305	-15.430222
  38	3.8000e-002	0.4419	-15.223516
  39	3.9000e-002	0.4544	-15.016809
  40	4.0000e-002	0.4650	-14.814737
  41	4.1000e-002	0.4783	-14.569099
  42	4.2000e-002	0.4881	-14.354978
  43	4.3000e-002	0.5035	-14.128805
  44	4.4000e-002	0.5137	-13.667192
  45	4.5000e-002	0.5283	-13.510540
  46	4.6000e-002	0.5378	-13.364084
  47	4.7000e-002	0.5525	-13.192601
  48	4.8000e-002	0.5639	-12.993310
  49	4.9000e-002	0.5761	-12.788458
  50	5.0000e-002	0.5873	-12.609559
  51	5.1000e-002	0.5969	-12.406560
  52	5.2000e-002	0.6116	-12.164630
  53	5.3000e-002	0.6221	-11.961632
  54	5.4000e-002	0.6342	-11.713213
  55	5.5000e-002	0.6472	-11.474064
  56	5.6000e-002	0.6588	-11.272919
  57	5.7000e-002	0.6718	-11.065286
  58	5.8000e-002	0.6826	-10.866921
  59	5.9000e-002	0.6960	-10.638895
  60	6.0000e-002	0.7053	-10.431262
  61	6.1000e-002	0.7191	-10.217140
  62	6.2000e-002	0.7290	-9.765723
  63	6.3000e-002	0.7413	-9.641513
  64	6.4000e-002	0.7549	-9.471884
  65	6.5000e-002	0.7684	-9.266105
  66	6.6000e-002	0.7781	-9.095549
  67	6.7000e-002	0.7928	-8.871231
  68	6.8000e-002	0.8023	-8.682136
  69	6.9000e-002	0.8121	-8.457818
  70	7.0000e-002	0.8272	-8.242769
  71	7.1000e-002	0.8381	-8.016597
  72	7.2000e-002	0.8515	-7.796913
  73	7.3000e-002	0.8611	-7.577229
  74	7.4000e-002	0.8744	-7.371450
  75	7.5000e-002	0.8878	-7.148986
  76	7.6000e-002	0.8990	-6.933937
  77	7.7000e-002	0.9095	-6.717034
  78	7.8000e-002	0.9227	-6.489008
  79	7.9000e-002	0.9345	-6.261909
  80	8.0000e-002	0.9448	-5.804930
  81	8.1000e-002	0.9583	-5.654766
  82	8.2000e-002	0.9719	-5.472160
  83	8.3000e-002	0.9843	-5.253404
  84	8.4000e-002	0.9945	-5.051332
  85	8.5000e-002	1.0056	-4.822379
  86	8.6000e-002	1.0182	-4.621234
  87	8.7000e-002	1.0281	-4.393208
  88	8.8000e-002	1.0403	-4.142009
  89	8.9000e-002	1.0542	-3.925106
  90	9.0000e-002	1.0683	-3.691518
  91	9.1000e-002	1.0793	-3.427342
  92	9.2000e-002	1.0901	-3.200243
  93	9.3000e-002	1.1028	-2.919382
  94	9.4000e-002	1.1158	-2.692282
  95	9.5000e-002	1.1255	-2.420691
  96	9.6000e-002	1.1386	-2.150952
  97	9.7000e-002	1.1509	-1.913657
  98	9.8000e-002	1.1655	-1.403843
  99	9.9000e-002	1.1760	-1.193429
 100	1.0000e-001	1.1880	-0.967257
 101	1.0100e-001	1.1987	-0.709569
 102	1.0200e-001	1.2107	-0.465785
 103	1.0300e-001	1.2231	-0.198828
 104	1.0400e-001	1.2350	0.068130
 105	1.0500e-001	1.2476	0.339722
 106	1.0600e-001	1.2611	0.661368
 107	1.0700e-001	1.2717	0.964476
 108	1.0800e-001	1.2824	1.274072
 109	1.0900e-001	1.2958	1.653188
 110	1.1000e-001	1.3081	1.990593
 111	1.1100e-001	1.3187	2.340047
 112	1.1200e-001	1.3305	2.693209
 113	1.1300e-001	1.3413	3.088084
 114	1.1400e-001	1.3546	3.506131
 115	1.1500e-001	1.3686	3.871344
 116	1.1600e-001	1.3806	4.541518
 117	1.1700e-001	1.3899	4.917853
 118	1.1800e-001	1.3997	5.358147
 119	1.1900e-001	1.4151	5.805857
 120	1.2000e-001	1.4275	6.321233
 121	1.2100e-001	1.4413	6.863490
 122	1.2200e-001	1.4511	7.409454
 123	1.2300e-001	1.4621	8.061089
 124	1.2400e-001	1.4740	8.676574
 125	1.2500e-001	1.4883	9.368995
 126	1.2600e-001	1.4982	10.103127
 127	1.2700e-001	1.5114	10.887314
 128	1.2800e-001	1.5234	11.708578
 129	1.2900e-001	1.5337	12.540039
 130	1.3000e-001	1.5456	13.448435
 131	1.3100e-001	1.5598	14.430059
 132	1.3200e-001	1.5703	15.431149
 133	1.3300e-001	1.5833	16.505467
 134	1.3400e-001	1.5942	17.877330
 135	1.3500e-001	1.6051	18.965552
 136	1.3600e-001	1.6209	20.166859
 137	1.3700e-001	1.6313	21.371875
 138	1.3800e-001	1.6433	22.610260
 139	1.3900e-001	1.6566	23.885722
 140	1.4000e-001	1.6691	25.160258
 141	1.4100e-001	1.6802	26.450551
 142	1.4200e-001	1.6891	27.707475
 143	1.4300e-001	1.7023	28.957910
 144	1.4400e-001	1.7140	30.149022
 145	1.4500e-001	1.7278	31.261343
 146	1.4600e-001	1.7418	32.335661
 147	1.4700e-001	1.7523	33.301527
 148	1.4800e-001	1.7612	34.163577
 149	1.4900e-001	1.7770	34.949617
 150	1.5000e-001	1.7871	35.671700
 151	1.5100e-001	1.7992	36.316846
 152	1.5200e-001	1.8100	37.084349
 153	1.5300e-001	1.8217	37.509812
 154	1.5400e-001	1.8344	37.922298
 155	1.5500e-001	1.8468	38.303268
 156	1.5600e-001	1.8598	38.611937
 157	1.5700e-001	1.8721	38.947488
 158	1.5800e-001	1.8819	39.189418
 159	1.5900e-001	1.8964	39.415590
 160	1.6000e-001	1.9087	39.646397
 161	1.6100e-001	1.9183	39.854957
 162	1.6200e-001	1.9302	40.035709
 163	1.6300e-001	1.9413	40.212754
 164	1.6400e-001	1.9529	40.362917
 165	1.6500e-001	1.9678	40.509373
 166	1.6600e-001	1.9806	40.619678
 167	1.6700e-001	1.9946	40.760572
 168	1.6800e-001	2.0029	40.893124
 169	1.6900e-001	2.0137	40.979329
 170	1.7000e-001	2.0300	41.147104
 171	1.7100e-001	2.0396	41.227748
 172	1.7200e-001	2.0498	41.313953
 173	1.7300e-001	2.0628	41.380692
 174	1.7400e-001	2.0760	41.453920
 175	1.7500e-001	2.0867	41.518805
 176	1.7600e-001	2.0994	41.553102
 177	1.7700e-001	2.1118	41.617060
 178	1.7800e-001	2.1249	41.685653
 179	1.7900e-001	2.1365	41.779274
 180	1.8000e-001	2.1461	41.823767
 181	1.8100e-001	2.1589	41.876602
 182	1.8200e-001	2.1713	41.945195
 183	1.8300e-001	2.1844	41.996177
 184	1.8400e-001	2.1952	42.034181
 185	1.8500e-001	2.2089	42.103701
 186	1.8600e-001	2.2169	42.169513
 187	1.8700e-001	2.2318	42.189906
 188	1.8800e-001	2.2434	42.252938
 189	1.8900e-001	2.2568	42.286307
 190	1.9000e-001	2.2679	42.342850
 191	1.9100e-001	2.2794	42.373439
 192	1.9200e-001	2.2892	42.412370
 193	1.9300e-001	2.3042	42.444813
 194	1.9400e-001	2.3151	42.473548
 195	1.9500e-001	2.3286	42.526383
 196	1.9600e-001	2.3372	42.550484
 197	1.9700e-001	2.3497	42.581999
 198	1.9800e-001	2.3619	42.665424
 199	1.9900e-001	2.3744	42.702501
 200	2.0000e-001	2.3881	42.717332
 201	2.0100e-001	2.3991	42.765533
 202	2.0200e-001	2.4120	42.789633
 203	2.0300e-001	2.4228	42.810025
 204	2.0400e-001	2.4361	42.859153
 205	2.0500e-001	2.4464	42.895303
 206	2.0600e-001	2.4587	42.924038
 207	2.0700e-001	2.4709	42.947212
 208	2.0800e-001	2.4837	43.016732
 209	2.0900e-001	2.4954	43.030636
 210	2.1000e-001	2.5098	43.045467
 211	2.1100e-001	2.5195	43.098302
 212	2.1200e-001	2.5314	43.090887
 213	2.1300e-001	2.5430	43.148357
 214	2.1400e-001	2.5557	43.183580
 215	2.1500e-001	2.5661	43.207681
 216	2.1600e-001	2.5784	43.268858
 217	2.1700e-001	2.5909	43.274420
 218	2.1800e-001	2.6022	43.305936
 219	2.1900e-001	2.6183	43.321694
 220	2.2000e-001	2.6289	43.362479
 221	2.2100e-001	2.6404	43.381944
 222	2.2200e-001	2.6517	43.419022
 223	2.2300e-001	2.6637	43.440341
 224	2.2400e-001	2.6755	43.480199
 225	2.2500e-001	2.6865	43.493177
 226	2.2600e-001	2.7012	43.557135
 227	2.2700e-001	2.7107	43.569185
 228	2.2800e-001	2.7244	43.613678
 229	2.2900e-001	2.7345	43.619240
 230	2.3000e-001	2.7478	43.631290
 231	2.3100e-001	2.7631	43.669294
 232	2.3200e-001	2.7734	43.694321
 233	2.3300e-001	2.7825	43.738814
 234	2.3400e-001	2.7993	43.770330
 235	2.3500e-001	2.8097	43.771257
 236	2.3600e-001	2.8178	43.828727
 237	2.3700e-001	2.8333	43.850973
 238	2.3800e-001	2.8443	43.865804
 239	2.3900e-001	2.8548	43.896393
 240	2.4000e-001	2.8667	43.948302
 241	2.4100e-001	2.8791	43.990941
 242	2.4200e-001	2.8913	43.990941
 243	2.4300e-001	2.9052	44.017822
 244	2.4400e-001	2.9153	44.086415
 245	2.4500e-001	2.9282	44.068803
 246	2.4600e-001	2.9408	44.107734
 247	2.4700e-001	2.9514	44.139250
 248	2.4800e-001	2.9642	44.127200
 249	2.4900e-001	2.9744	44.181889
 250	2.5000e-001	2.9865	44.194866
 251	2.5100e-001	2.9996	44.226382
 252	2.5200e-001	2.9891	44.282925
 253	2.5300e-001	2.9754	44.234724
 254	2.5400e-001	2.9646	44.230090
 255	2.5500e-001	2.9503	44.207843
 256	2.5600e-001	2.9398	44.200428
 257	2.5700e-001	2.9287	44.224528
 258	2.5800e-001	2.9175	44.172620
 259	2.5900e-001	2.9037	44.172620
 260	2.6000e-001	2.8916	44.159643
 261	2.6100e-001	2.8778	44.134615
 262	2.6200e-001	2.8683	44.122565
 263	2.6300e-001	2.8558	44.110515
 264	2.6400e-001	2.8446	44.125346
 265	2.6500e-001	2.8298	44.101246
 266	2.6600e-001	2.8201	44.048411
 267	2.6700e-001	2.8089	44.071584
 268	2.6800e-001	2.7959	44.050264
 269	2.6900e-001	2.7814	44.053972
 270	2.7000e-001	2.7728	44.063241
 271	2.7100e-001	2.7597	44.034506
 272	2.7200e-001	2.7478	44.012260
 273	2.7300e-001	2.7325	43.980744
 274	2.7400e-001	2.7247	43.970548
 275	2.7500e-001	2.7122	43.945521
 276	2.7600e-001	2.6992	43.941813
 277	2.7700e-001	2.6853	43.934398
 278	2.7800e-001	2.6753	43.918640
 279	2.7900e-001	2.6642	43.884343
 280	2.8000e-001	2.6517	43.899174
 281	2.8100e-001	2.6371	43.870439
 282	2.8200e-001	2.6280	43.857462
 283	2.8300e-001	2.6168	43.850973
 284	2.8400e-001	2.6040	43.814823
 285	2.8500e-001	2.5927	43.788869
 286	2.8600e-001	2.5771	43.788869
 287	2.8700e-001	2.5671	43.779599
 288	2.8800e-001	2.5573	43.766622
 289	2.8900e-001	2.5464	43.729545
 290	2.9000e-001	2.5315	43.712860
 291	2.9100e-001	2.5200	43.718422
 292	2.9200e-001	2.5056	43.654463
 293	2.9300e-001	2.4939	43.678563
 294	2.9400e-001	2.4817	43.661879
 295	2.9500e-001	2.4701	43.636851
 296	2.9600e-001	2.4598	43.636851
 297	2.9700e-001	2.4457	43.609043
 298	2.9800e-001	2.4366	43.618313
 299	2.9900e-001	2.4245	43.604409
 300	3.0000e-001	2.4107	43.566404
 301	3.0100e-001	2.3988	43.578455
 302	3.0200e-001	2.3890	43.514496
 303	3.0300e-001	2.3742	43.504300
 304	3.0400e-001	2.3621	43.455172
 305	3.0500e-001	2.3502	43.459807
 306	3.0600e-001	2.3358	43.443122
 307	3.0700e-001	2.3275	43.409752
 308	3.0800e-001	2.3158	43.416241
 309	3.0900e-001	2.3048	43.404191
 310	3.1000e-001	2.2925	43.372675
 311	3.1100e-001	2.2797	43.355990
 312	3.1200e-001	2.2659	43.335598
 313	3.1300e-001	2.2553	43.325401
 314	3.1400e-001	2.2427	43.305009
 315	3.1500e-001	2.2307	43.311497
 316	3.1600e-001	2.2208	43.300374
 317	3.1700e-001	2.2058	43.257735
 318	3.1800e-001	2.1954	43.243831
 319	3.1900e-001	2.1852	43.224365
 320	3.2000e-001	2.1743	43.156699
 321	3.2100e-001	2.1603	43.180799
 322	3.2200e-001	2.1484	43.172457
 323	3.2300e-001	2.1371	43.128891
 324	3.2400e-001	2.1212	43.136307
 325	3.2500e-001	2.1100	43.113133
 326	3.2600e-001	2.0984	43.111279
 327	3.2700e-001	2.0883	43.070494
 328	3.2800e-001	2.0766	43.057517
 329	3.2900e-001	2.0641	43.059371
 330	3.3000e-001	2.0521	43.010243
 331	3.3100e-001	2.0370	42.983362
 332	3.3200e-001	2.0257	42.981508
 333	3.3300e-001	2.0141	42.940723
 334	3.3400e-001	2.0039	42.935162
 335	3.3500e-001	1.9913	42.917550
 336	3.3600e-001	1.9794	42.896230
 337	3.3700e-001	1.9682	42.897157
 338	3.3800e-001	1.9547	42.826710
 339	3.3900e-001	1.9427	42.847103
 340	3.4000e-001	1.9312	42.822076
 341	3.4100e-001	1.9193	42.807245
 342	3.4200e-001	1.9054	42.798902
 343	3.4300e-001	1.8960	42.780364
 344	3.4400e-001	1.8849	42.749775
 345	3.4500e-001	1.8702	42.728455
 346	3.4600e-001	1.8595	42.696939
 347	3.4700e-001	1.8470	42.683962
 348	3.4800e-001	1.8332	42.660789
 349	3.4900e-001	1.8256	42.638543
 350	3.5000e-001	1.8131	42.622785
 351	3.5100e-001	1.7990	42.591269
 352	3.5200e-001	1.7866	42.567169
 353	3.5300e-001	1.7756	42.556045
 354	3.5400e-001	1.7633	42.558826
 355	3.5500e-001	1.7500	42.536580
 356	3.5600e-001	1.7399	42.502283
 357	3.5700e-001	1.7257	42.484671
 358	3.5800e-001	1.7147	42.470767
 359	3.5900e-001	1.7035	42.455009
 360	3.6000e-001	1.6904	42.426274
 361	3.6100e-001	1.6771	42.402174
 362	3.6200e-001	1.6689	42.375293
 363	3.6300e-001	1.6553	42.361389
 364	3.6400e-001	1.6443	42.333581
 365	3.6500e-001	1.6326	42.294650
 366	3.6600e-001	1.6189	42.297430
 367	3.6700e-001	1.6077	42.258499
 368	3.6800e-001	1.5969	42.251084
 369	3.6900e-001	1.5816	42.209372
 370	3.7000e-001	1.5701	42.216787
 371	3.7100e-001	1.5616	42.173221
 372	3.7200e-001	1.5483	42.163025
 373	3.7300e-001	1.5350	42.152829
 374	3.7400e-001	1.5217	42.129655
 375	3.7500e-001	1.5114	42.092578
 376	3.7600e-001	1.5012	42.056427
 377	3.7700e-001	1.4887	42.054574
 378	3.7800e-001	1.4745	42.035108
 379	3.7900e-001	1.4647	41.998957
 380	3.8000e-001	1.4510	41.980419
 381	3.8100e-001	1.4379	41.970222
 382	3.8200e-001	1.4268	41.922022
 383	3.8300e-001	1.4149	41.917387
 384	3.8400e-001	1.4033	41.884944
 385	3.8500e-001	1.3905	41.874748
 386	3.8600e-001	1.3778	41.854356
 387	3.8700e-001	1.3690	41.831182
 388	3.8800e-001	1.3533	41.795032
 389	3.8900e-001	1.3412	41.761662
 390	3.9000e-001	1.3312	41.766297
 391	3.9100e-001	1.3168	41.729219
 392	3.9200e-001	1.3046	41.696777
 393	3.9300e-001	1.2964	41.660626
 394	3.9400e-001	1.2821	41.650430
 395	3.9500e-001	1.2716	41.630964
 396	3.9600e-001	1.2601	41.605010
 397	3.9700e-001	1.2475	41.563298
 398	3.9800e-001	1.2352	41.548467
 399	3.9900e-001	1.2247	41.509536
 400	4.0000e-001	1.2117	41.492851
 401	4.0100e-001	1.1987	41.469678
 402	4.0200e-001	1.1858	41.443723
 403	4.0300e-001	1.1741	41.427966
 404	4.0400e-001	1.1613	41.389034
 405	4.0500e-001	1.1522	41.345468
 406	4.0600e-001	1.1372	41.333418
 407	4.0700e-001	1.1272	41.303756
 408	4.0800e-001	1.1149	41.293560
 409	4.0900e-001	1.1021	41.257409
 410	4.1000e-001	1.0904	41.222186
 411	4.1100e-001	1.0789	41.207355
 412	4.1200e-001	1.0667	41.171205
 413	4.1300e-001	1.0548	41.142470
 414	4.1400e-001	1.0417	41.121150
 415	4.1500e-001	1.0297	41.083146
 416	4.1600e-001	1.0198	41.065534
 417	4.1700e-001	1.0069	41.019187
 418	4.1800e-001	0.9929	40.988598
 419	4.1900e-001	0.9813	40.960790
 420	4.2000e-001	0.9724	40.920005
 421	4.2100e-001	0.9588	40.910736
 422	4.2200e-001	0.9468	40.830093
 423	4.2300e-001	0.9352	40.817115
 424	4.2400e-001	0.9220	40.793015
 425	4.2500e-001	0.9127	40.755938
 426	4.2600e-001	0.8966	40.718860
 427	4.2700e-001	0.8890	40.689198
 428	4.2800e-001	0.8757	40.627094
 429	4.2900e-001	0.8630	40.620605
 430	4.3000e-001	0.8496	40.562208
 431	4.3100e-001	0.8367	40.547377
 432	4.3200e-001	0.8288	40.499177
 433	4.3300e-001	0.8171	40.450049
 434	4.3400e-001	0.8044	40.389798
 435	4.3500e-001	0.7910	40.357356
 436	4.3600e-001	0.7796	40.329548
 437	4.3700e-001	0.7661	40.276712
 438	4.3800e-001	0.7572	40.215535
 439	4.3900e-001	0.7415	40.184946
 440	4.4000e-001	0.7317	40.087618
 441	4.4100e-001	0.7180	40.016244
 442	4.4200e-001	0.7066	39.981947
 443	4.4300e-001	0.6934	39.935600
 444	4.4400e-001	0.6853	39.888327
 445	4.4500e-001	0.6715	39.846615
 446	4.4600e-001	0.6593	39.778948
 447	4.4700e-001	0.6461	39.727040
 448	4.4800e-001	0.6343	39.662155
 449	4.4900e-001	0.6233	39.605611
 450	4.5000e-001	0.6136	39.542580
 451	4.5100e-001	0.5975	39.462864
 452	4.5200e-001	0.5843	39.424859
 453	4.5300e-001	0.5738	39.323823
 454	4.5400e-001	0.5624	39.258011
 455	4.5500e-001	0.5479	39.196833
 456	4.5600e-001	0.5375	39.105067
 457	4.5700e-001	0.5267	39.016081
 458	4.5800e-001	0.5148	38.875187
 459	4.5900e-001	0.5018	38.739854
 460	4.6000e-001	0.4896	38.665699
 461	4.6100e-001	0.4794	38.588764
 462	4.6200e-001	0.4662	38.511828
 463	4.6300e-001	0.4575	38.419135
 464	4.6400e-001	0.4417	38.315318
 465	4.6500e-001	0.4322	38.214282
 466	4.6600e-001	0.4167	38.090073
 467	4.6700e-001	0.4049	38.013137
 468	4.6800e-001	0.3943	37.895417
 469	4.6900e-001	0.3819	37.767500
 470	4.7000e-001	0.3709	37.677587
 471	4.7100e-001	0.3561	37.506104
 472	4.7200e-001	0.3475	37.393018
 473	4.7300e-001	0.3329	37.232658
 474	4.7400e-001	0.3213	37.091764
 475	4.7500e-001	0.3117	36.962920
 476	4.7600e-001	0.2991	36.704305
 477	4.7700e-001	0.2853	36.494818
 478	4.7800e-001	0.2771	36.387293
 479	4.7900e-001	0.2640	36.262157
 480	4.8000e-001	0.2502	36.144437
 481	4.8100e-001	0.2370	35.973880
 482	4.8200e-001	0.2265	35.841329
 483	4.8300e-001	0.2146	35.707850
 484	4.8400e-001	0.2029	35.515975
 485	4.8500e-001	0.1901	35.349126
 486	4.8600e-001	0.1778	35.186913
 487	4.8700e-001	0.1675	35.003380
 488	4.8800e-001	0.1534	34.825408
 489	4.8900e-001	0.1391	34.608505
 490	4.9000e-001	0.1314	34.416630
 491	4.9100e-001	0.1185	34.219193
 492	4.9200e-001	0.1065	33.965213
 493	4.9300e-001	0.0944	33.793730
 494	4.9400e-001	0.0823	33.457252
 495	4.9500e-001	0.0690	33.163414
 496	4.9600e-001	0.0583	33.029935
 497	4.9700e-001	0.0457	32.814886
 498	4.9800e-001	0.0362	32.621157
 499	4.9900e-001	0.0229	32.359761
 500	5.0000e-001	0.0117	32.148420
 501	5.0100e-001	-0.0029	31.901855
 502	5.0200e-001	-0.0131	31.633044
 503	5.0300e-001	-0.0253	31.364233
 504	5.0400e-001	-0.0365	31.133426
 505	5.0500e-001	-0.0497	30.821976
 506	5.0600e-001	-0.0605	30.531846
 507	5.0700e-001	-0.0707	30.236153
 508	5.0800e-001	-0.0841	29.943242
 509	5.0900e-001	-0.0980	29.627157
 510	5.1000e-001	-0.1093	29.313853
 511	5.1100e-001	-0.1208	28.988499
 512	5.1200e-001	-0.1307	28.552840
 513	5.1300e-001	-0.1447	28.129230
 514	5.1400e-001	-0.1572	27.800168
 515	5.1500e-001	-0.1681	27.451641
 516	5.1600e-001	-0.1776	27.109602
 517	5.1700e-001	-0.1929	26.718435
 518	5.1800e-001	-0.2039	26.276287
 519	5.1900e-001	-0.2174	25.855459
 520	5.2000e-001	-0.2281	25.435557
 521	5.2100e-001	-0.2399	25.000825
 522	5.2200e-001	-0.2536	24.535504
 523	5.2300e-001	-0.2663	24.055351
 524	5.2400e-001	-0.2771	23.557587
 525	5.2500e-001	-0.2876	23.053335
 526	5.2600e-001	-0.2985	22.560205
 527	5.2700e-001	-0.3120	22.040195
 528	5.2800e-001	-0.3276	21.484961
 529	5.2900e-001	-0.3373	20.968658
 530	5.3000e-001	-0.3521	20.275311
 531	5.3100e-001	-0.3589	19.594014
 532	5.3200e-001	-0.3735	19.053611
 533	5.3300e-001	-0.3864	18.485399
 534	5.3400e-001	-0.3978	17.893088
 535	5.3500e-001	-0.4097	17.247014
 536	5.3600e-001	-0.4198	16.651922
 537	5.3700e-001	-0.4343	16.028095
 538	5.3800e-001	-0.4452	15.420953
 539	5.3900e-001	-0.4573	14.781368
 540	5.4000e-001	-0.4689	14.143636
 541	5.4100e-001	-0.4801	13.494782
 542	5.4200e-001	-0.4945	12.857051
 543	5.4300e-001	-0.5051	12.202635
 544	5.4400e-001	-0.5165	11.574173
 545	5.4500e-001	-0.5286	10.916976
 546	5.4600e-001	-0.5396	10.243094
 547	5.4700e-001	-0.5534	9.622048
 548	5.4800e-001	-0.5643	8.870304
 549	5.4900e-001	-0.5766	8.212180
 550	5.5000e-001	-0.5883	7.680119
 551	5.5100e-001	-0.6011	7.061854
 552	5.5200e-001	-0.6122	6.495496
 553	5.5300e-001	-0.6276	5.896696
 554	5.5400e-001	-0.6389	5.326631
 555	5.5500e-001	-0.6512	4.761201
 556	5.5600e-001	-0.6606	4.235629
 557	5.5700e-001	-0.6723	3.687811
 558	5.5800e-001	-0.6862	3.169654
 559	5.5900e-001	-0.6965	2.639447
 560	5.6000e-001	-0.7078	2.105533
 561	5.6100e-001	-0.7206	1.607769
 562	5.6200e-001	-0.7333	1.128543
 563	5.6300e-001	-0.7460	0.663222
 564	5.6400e-001	-0.7555	0.159896
 565	5.6500e-001	-0.7692	-0.280398
 566	5.6600e-001	-0.7813	-0.851390
 567	5.6700e-001	-0.7921	-1.325980
 568	5.6800e-001	-0.8058	-1.696754
 569	5.6900e-001	-0.8192	-2.128706
 570	5.7000e-001	-0.8299	-2.529142
 571	5.7100e-001	-0.8376	-2.919382
 572	5.7200e-001	-0.8528	-3.338356
 573	5.7300e-001	-0.8659	-3.726742
 574	5.7400e-001	-0.8772	-4.138301
 575	5.7500e-001	-0.8891	-4.522052
 576	5.7600e-001	-0.9018	-4.907657
 577	5.7700e-001	-0.9119	-5.271942
 578	5.7800e-001	-0.9265	-5.625105
 579	5.7900e-001	-0.9391	-6.027394
 580	5.8000e-001	-0.9502	-6.382410
 581	5.8100e-001	-0.9613	-6.715180
 582	5.8200e-001	-0.9720	-7.086881
 583	5.8300e-001	-0.9860	-7.406673
 584	5.8400e-001	-0.9943	-7.799694
 585	5.8500e-001	-1.0099	-8.241842
 586	5.8600e-001	-1.0233	-8.506945
 587	5.8700e-001	-1.0342	-8.819322
 588	5.8800e-001	-1.0441	-9.115941
 589	5.8900e-001	-1.0570	-9.445003
 590	5.9000e-001	-1.0703	-9.790750
 591	5.9100e-001	-1.0808	-10.105908
 592	5.9200e-001	-1.0942	-10.451655
 593	5.9300e-001	-1.1046	-10.720466
 594	5.9400e-001	-1.1167	-11.051381
 595	5.9500e-001	-1.1287	-11.357270
 596	5.9600e-001	-1.1422	-11.654816
 597	5.9700e-001	-1.1545	-11.959778
 598	5.9800e-001	-1.1656	-12.237858
 599	5.9900e-001	-1.1747	-12.551162
 600	6.0000e-001	-1.1881	-12.860758
 601	6.0100e-001	-1.2035	-13.161085
 602	6.0200e-001	-1.2155	-13.463266
 603	6.0300e-001	-1.2263	-13.887802
 604	6.0400e-001	-1.2372	-14.154760
 605	6.0500e-001	-1.2508	-14.406886
 606	6.0600e-001	-1.2616	-14.680332
 607	6.0700e-001	-1.2720	-14.969535
 608	6.0800e-001	-1.2856	-15.266155
 609	6.0900e-001	-1.2991	-15.548870
 610	6.1000e-001	-1.3089	-15.843635
 611	6.1100e-001	-1.3194	-16.083711
 612	6.1200e-001	-1.3326	-16.405358
 613	6.1300e-001	-1.3452	-16.628749
 614	6.1400e-001	-1.3577	-16.944834
 615	6.1500e-001	-1.3687	-17.239599
 616	6.1600e-001	-1.3807	-17.512118
 617	6.1700e-001	-1.3944	-17.812445
 618	6.1800e-001	-1.4029	-18.110918
 619	6.1900e-001	-1.4162	-18.415879
 620	6.2000e-001	-1.4317	-18.733818
 621	6.2100e-001	-1.4423	-19.156500
 622	6.2200e-001	-1.4527	-19.404919
 623	6.2300e-001	-1.4655	-19.641287
 624	6.2400e-001	-1.4781	-19.922149
 625	6.2500e-001	-1.4903	-20.221549
 626	6.2600e-001	-1.4998	-20.515387
 627	6.2700e-001	-1.5147	-20.836106
 628	6.2800e-001	-1.5244	-21.149410
 629	6.2900e-001	-1.5372	-21.493303
 630	6.3000e-001	-1.5481	-21.813096
 631	6.3100e-001	-1.5618	-22.167185
 632	6.3200e-001	-1.5744	-22.576890
 633	6.3300e-001	-1.5845	-22.979180
 634	6.3400e-001	-1.5982	-23.372200
 635	6.3500e-001	-1.6105	-23.812494
 636	6.3600e-001	-1.6216	-24.243519
 637	6.3700e-001	-1.6336	-24.706987
 638	6.3800e-001	-1.6473	-25.288175
 639	6.3900e-001	-1.6576	-25.886048
 640	6.4000e-001	-1.6684	-26.337465
 641	6.4100e-001	-1.6821	-26.865818
 642	6.4200e-001	-1.6930	-27.459056
 643	6.4300e-001	-1.7065	-28.075468
 644	6.4400e-001	-1.7160	-28.675195
 645	6.4500e-001	-1.7313	-29.347223
 646	6.4600e-001	-1.7400	-30.017397
 647	6.4700e-001	-1.7509	-30.682936
 648	6.4800e-001	-1.7633	-31.381845
 649	6.4900e-001	-1.7767	-32.029772
 650	6.5000e-001	-1.7874	-32.668431
 651	6.5100e-001	-1.7989	-33.272792
 652	6.5200e-001	-1.8117	-33.860469
 653	6.5300e-001	-1.8267	-34.418484
 654	6.5400e-001	-1.8398	-34.926444
 655	6.5500e-001	-1.8495	-35.377861
 656	6.5600e-001	-1.8613	-35.938657
 657	6.5700e-001	-1.8745	-36.343728
 658	6.5800e-001	-1.8831	-36.640347
 659	6.5900e-001	-1.8969	-36.961993
 660	6.6000e-001	-1.9120	-37.254905
 661	6.6100e-001	-1.9202	-37.544108
 662	6.6200e-001	-1.9326	-37.815700
 663	6.6300e-001	-1.9461	-38.077096
 664	6.6400e-001	-1.9579	-38.278241
 665	6.6500e-001	-1.9679	-38.471970
 666	6.6600e-001	-1.9812	-38.671261
 667	6.6700e-001	-1.9939	-38.859429
 668	6.6800e-001	-2.0047	-39.017935
 669	6.6900e-001	-2.0187	-39.186637
 670	6.7000e-001	-2.0289	-39.325677
 671	6.7100e-001	-2.0418	-39.492525
 672	6.7200e-001	-2.0516	-39.616735
 673	6.7300e-001	-2.0661	-39.746506
 674	6.7400e-001	-2.0768	-39.982874
 675	6.7500e-001	-2.0911	-40.051467
 676	6.7600e-001	-2.1017	-40.180311
 677	6.7700e-001	-2.1153	-40.273932
 678	6.7800e-001	-2.1246	-40.369406
 679	6.7900e-001	-2.1362	-40.506592
 680	6.8000e-001	-2.1475	-40.611336
 681	6.8100e-001	-2.1619	-40.709591
 682	6.8200e-001	-2.1724	-40.805992
 683	6.8300e-001	-2.1840	-40.895905
 684	6.8400e-001	-2.1977	-40.979329
 685	6.8500e-001	-2.2097	-41.047922
 686	6.8600e-001	-2.2224	-41.145250
 687	6.8700e-001	-2.2343	-41.237017
 688	6.8800e-001	-2.2453	-41.312099
 689	6.8900e-001	-2.2600	-41.380692
 690	6.9000e-001	-2.2703	-41.480801
 691	6.9100e-001	-2.2803	-41.558663
 692	6.9200e-001	-2.2907	-41.682873
 693	6.9300e-001	-2.3072	-41.732000
 694	6.9400e-001	-2.3171	-41.824694
 695	6.9500e-001	-2.3302	-41.873821
 696	6.9600e-001	-2.3416	-41.921095
 697	6.9700e-001	-2.3542	-42.011008
 698	6.9800e-001	-2.3651	-42.058281
 699	6.9900e-001	-2.3782	-42.114824
 700	7.0000e-001	-2.3891	-42.180637
 701	7.0100e-001	-2.4027	-42.217714
 702	7.0200e-001	-2.4126	-42.311334
 703	7.0300e-001	-2.4255	-42.328019
 704	7.0400e-001	-2.4361	-42.408663
 705	7.0500e-001	-2.4493	-42.481891
 706	7.0600e-001	-2.4635	-42.532872
 707	7.0700e-001	-2.4731	-42.572730
 708	7.0800e-001	-2.4882	-42.649666
 709	7.0900e-001	-2.4966	-42.676547
 710	7.1000e-001	-2.5053	-42.661716
 711	7.1100e-001	-2.5169	-42.792414
 712	7.1200e-001	-2.5327	-42.858226
 713	7.1300e-001	-2.5464	-42.856372
 714	7.1400e-001	-2.5581	-42.890669
 715	7.1500e-001	-2.5684	-42.989851
 716	7.1600e-001	-2.5830	-42.994486
 717	7.1700e-001	-2.5928	-43.055663
 718	7.1800e-001	-2.6066	-43.105718
 719	7.1900e-001	-2.6167	-43.140941
 720	7.2000e-001	-2.6311	-43.181726
 721	7.2100e-001	-2.6407	-43.235489
 722	7.2200e-001	-2.6535	-43.278128
 723	7.2300e-001	-2.6654	-43.309643
 724	7.2400e-001	-2.6785	-43.329109
 725	7.2500e-001	-2.6894	-43.404191
 726	7.2600e-001	-2.7023	-43.439414
 727	7.2700e-001	-2.7140	-43.477419
 728	7.2800e-001	-2.7267	-43.540450
 729	7.2900e-001	-2.7383	-43.564550
 730	7.3000e-001	-2.7499	-43.579381
 731	7.3100e-001	-2.7624	-43.612751
 732	7.3200e-001	-2.7726	-43.660025
 733	7.3300e-001	-2.7891	-43.746230
 734	7.3400e-001	-2.7979	-43.751791
 735	7.3500e-001	-2.8073	-43.815750
 736	7.3600e-001	-2.8207	-43.833362
 737	7.3700e-001	-2.8333	-43.876001
 738	7.3800e-001	-2.8448	-43.891759
 739	7.3900e-001	-2.8588	-43.941813
 740	7.4000e-001	-2.8700	-43.972402
 741	7.4100e-001	-2.8815	-44.005772
 742	7.4200e-001	-2.8912	-44.044703
 743	7.4300e-001	-2.9050	-44.086415
 744	7.4400e-001	-2.9208	-44.118858
 745	7.4500e-001	-2.9304	-44.155935
 746	7.4600e-001	-2.9424	-44.274583
 747	7.4700e-001	-2.9539	-44.260679
 748	7.4800e-001	-2.9637	-44.301464
 749	7.4900e-001	-2.9769	-44.321856
 750	7.5000e-001	-2.9873	-44.358934
 751	7.5100e-001	-3.0021	-44.397865
 752	7.5200e-001	-2.9897	-44.364495
 753	7.5300e-001	-2.9769	-44.387669
 754	7.5400e-001	-2.9668	-44.345957
 755	7.5500e-001	-2.9522	-44.345957
 756	7.5600e-001	-2.9392	-44.346884
 757	7.5700e-001	-2.9305	-44.316295
 758	7.5800e-001	-2.9189	-44.296829
 759	7.5900e-001	-2.9031	-44.303318
 760	7.6000e-001	-2.8932	-44.307952
 761	7.6100e-001	-2.8814	-44.285706
 762	7.6200e-001	-2.8701	-44.256971
 763	7.6300e-001	-2.8581	-44.269948
 764	7.6400e-001	-2.8448	-44.309806
 765	7.6500e-001	-2.8355	-44.236578
 766	7.6600e-001	-2.8203	-44.231017
 767	7.6700e-001	-2.8063	-44.220820
 768	7.6800e-001	-2.7967	-44.177254
 769	7.6900e-001	-2.7841	-44.180035
 770	7.7000e-001	-2.7769	-44.126273
 771	7.7100e-001	-2.7606	-44.139250
 772	7.7200e-001	-2.7504	-44.107734
 773	7.7300e-001	-2.7393	-44.074365
 774	7.7400e-001	-2.7235	-44.090123
 775	7.7500e-001	-2.7141	-44.073438
 776	7.7600e-001	-2.7027	-44.059534
 777	7.7700e-001	-2.6890	-44.053972
 778	7.7800e-001	-2.6761	-44.038214
 779	7.7900e-001	-2.6670	-44.006698
 780	7.8000e-001	-2.6540	-43.994648
 781	7.8100e-001	-2.6405	-43.969621
 782	7.8200e-001	-2.6286	-43.950155
 783	7.8300e-001	-2.6170	-43.901955
 784	7.8400e-001	-2.6051	-43.906589
 785	7.8500e-001	-2.5915	-43.876001
 786	7.8600e-001	-2.5817	-43.839850
 787	7.8700e-001	-2.5697	-43.844485
 788	7.8800e-001	-2.5578	-43.825019
 789	7.8900e-001	-2.5440	-43.805554
 790	7.9000e-001	-2.5328	-43.784234
 791	7.9100e-001	-2.5221	-43.763841
 792	7.9200e-001	-2.5079	-43.763841
 793	7.9300e-001	-2.4972	-43.721202
 794	7.9400e-001	-2.4854	-43.713787
 795	7.9500e-001	-2.4733	-43.678563
 796	7.9600e-001	-2.4603	-43.660952
 797	7.9700e-001	-2.4473	-43.633144
 798	7.9800e-001	-2.4374	-43.604409
 799	7.9900e-001	-2.4232	-43.564550
 800	8.0000e-001	-2.4134	-43.559916
 801	8.0100e-001	-2.4011	-43.521911
 802	8.0200e-001	-2.3893	-43.520058
 803	8.0300e-001	-2.3775	-43.516350
 804	8.0400e-001	-2.3655	-43.468149
 805	8.0500e-001	-2.3536	-43.478346
 806	8.0600e-001	-2.3399	-43.437560
 807	8.0700e-001	-2.3293	-43.412533
 808	8.0800e-001	-2.3161	-43.416241
 809	8.0900e-001	-2.3049	-43.381944
 810	8.1000e-001	-2.2914	-43.317059
 811	8.1100e-001	-2.2813	-43.312424
 812	8.1200e-001	-2.2675	-43.317059
 813	8.1300e-001	-2.2575	-43.283689
 814	8.1400e-001	-2.2422	-43.223438
 815	8.1500e-001	-2.2343	-43.219731
 816	8.1600e-001	-2.2201	-43.201192
 817	8.1700e-001	-2.2106	-43.165042
 818	8.1800e-001	-2.1964	-43.128891
 819	8.1900e-001	-2.1824	-43.114987
 820	8.2000e-001	-2.1735	-43.118695
 821	8.2100e-001	-2.1615	-43.069567
 822	8.2200e-001	-2.1477	-43.056590
 823	8.2300e-001	-2.1404	-43.035271
 824	8.2400e-001	-2.1268	-42.989851
 825	8.2500e-001	-2.1118	-42.996339
 826	8.2600e-001	-2.1017	-42.968531
 827	8.2700e-001	-2.0876	-42.920331
 828	8.2800e-001	-2.0760	-42.901792
 829	8.2900e-001	-2.0637	-42.875838
 830	8.3000e-001	-2.0522	-42.837834
 831	8.3100e-001	-2.0409	-42.820222
 832	8.3200e-001	-2.0287	-42.803537
 833	8.3300e-001	-2.0177	-42.785925
 834	8.3400e-001	-2.0064	-42.743286
 835	8.3500e-001	-1.9932	-42.739578
 836	8.3600e-001	-1.9814	-42.697866
 837	8.3700e-001	-1.9700	-42.673766
 838	8.3800e-001	-1.9585	-42.656154
 839	8.3900e-001	-1.9460	-42.617223
 840	8.4000e-001	-1.9344	-42.587561
 841	8.4100e-001	-1.9230	-42.569022
 842	8.4200e-001	-1.9095	-42.533799
 843	8.4300e-001	-1.8979	-42.516187
 844	8.4400e-001	-1.8864	-42.484671
 845	8.4500e-001	-1.8721	-42.434617
 846	8.4600e-001	-1.8623	-42.417932
 847	8.4700e-001	-1.8473	-42.374366
 848	8.4800e-001	-1.8375	-42.374366
 849	8.4900e-001	-1.8244	-42.314115
 850	8.5000e-001	-1.8121	-42.319677
 851	8.5100e-001	-1.8022	-42.291869
 852	8.5200e-001	-1.7882	-42.239034
 853	8.5300e-001	-1.7785	-42.248303
 854	8.5400e-001	-1.7650	-42.213079
 855	8.5500e-001	-1.7545	-42.132436
 856	8.5600e-001	-1.7422	-42.104628
 857	8.5700e-001	-1.7259	-42.112043
 858	8.5800e-001	-1.7167	-42.042523
 859	8.5900e-001	-1.7053	-42.008227
 860	8.6000e-001	-1.6956	-41.995250
 861	8.6100e-001	-1.6839	-41.986907
 862	8.6200e-001	-1.6692	-41.938707
 863	8.6300e-001	-1.6562	-41.913679
 864	8.6400e-001	-1.6454	-41.894214
 865	8.6500e-001	-1.6312	-41.854356
 866	8.6600e-001	-1.6205	-41.811717
 867	8.6700e-001	-1.6077	-41.794105
 868	8.6800e-001	-1.5955	-41.756100
 869	8.6900e-001	-1.5853	-41.717169
 870	8.7000e-001	-1.5751	-41.669896
 871	8.7100e-001	-1.5613	-41.644868
 872	8.7200e-001	-1.5472	-41.617060
 873	8.7300e-001	-1.5377	-41.519732
 874	8.7400e-001	-1.5260	-41.504901
 875	8.7500e-001	-1.5125	-41.474312
 876	8.7600e-001	-1.5009	-41.432600
 877	8.7700e-001	-1.4882	-41.405719
 878	8.7800e-001	-1.4764	-41.379765
 879	8.7900e-001	-1.4652	-41.358445
 880	8.8000e-001	-1.4515	-41.319514
 881	8.8100e-001	-1.4423	-41.304683
 882	8.8200e-001	-1.4305	-41.226821
 883	8.8300e-001	-1.4149	-41.180474
 884	8.8400e-001	-1.4062	-41.158227
 885	8.8500e-001	-1.3935	-41.113735
 886	8.8600e-001	-1.3787	-41.046995
 887	8.8700e-001	-1.3694	-41.001575
 888	8.8800e-001	-1.3558	-40.967279
 889	8.8900e-001	-1.3428	-40.939471
 890	8.9000e-001	-1.3328	-40.854193
 891	8.9100e-001	-1.3210	-40.755938
 892	8.9200e-001	-1.3080	-40.751303
 893	8.9300e-001	-1.2981	-40.663244
 894	8.9400e-001	-1.2850	-40.620605
 895	8.9500e-001	-1.2714	-40.602067
 896	8.9600e-001	-1.2612	-40.572405
 897	8.9700e-001	-1.2495	-40.515862
 898	8.9800e-001	-1.2370	-40.461172
 899	8.9900e-001	-1.2241	-40.404629
 900	9.0000e-001	-1.2119	-40.351794
 901	9.0100e-001	-1.2032	-40.268370
 902	9.0200e-001	-1.1885	-40.245197
 903	9.0300e-001	-1.1761	-40.185873
 904	9.0400e-001	-1.1633	-40.097814
 905	9.0500e-001	-1.1522	-40.063517
 906	9.0600e-001	-1.1395	-40.006047
 907	9.0700e-001	-1.1293	-39.942089
 908	9.0800e-001	-1.1188	-39.842907
 909	9.0900e-001	-1.1050	-39.680693
 910	9.1000e-001	-1.0948	-39.600977
 911	9.1100e-001	-1.0793	-39.545361
 912	9.1200e-001	-1.0705	-39.481402
 913	9.1300e-001	-1.0556	-39.425786
 914	9.1400e-001	-1.0454	-39.371097
 915	9.1500e-001	-1.0327	-39.308992
 916	9.1600e-001	-1.0220	-39.215372
 917	9.1700e-001	-1.0078	-39.164390
 918	9.1800e-001	-0.9967	-39.080966
 919	9.1900e-001	-0.9859	-38.992908
 920	9.2000e-001	-0.9715	-38.938218
 921	9.2100e-001	-0.9611	-38.809374
 922	9.2200e-001	-0.9480	-38.745416
 923	9.2300e-001	-0.9364	-38.644380
 924	9.2400e-001	-0.9252	-38.537782
 925	9.2500e-001	-0.9117	-38.447870
 926	9.2600e-001	-0.9008	-38.349615
 927	9.2700e-001	-0.8900	-38.065973
 928	9.2800e-001	-0.8776	-37.975133
 929	9.2900e-001	-0.8671	-37.874097
 930	9.3000e-001	-0.8529	-37.798088
 931	9.3100e-001	-0.8402	-37.718372
 932	9.3200e-001	-0.8294	-37.630313
 933	9.3300e-001	-0.8190	-37.547816
 934	9.3400e-001	-0.8035	-37.431022
 935	9.3500e-001	-0.7933	-37.321644
 936	9.3600e-001	-0.7819	-37.199288
 937	9.3700e-001	-0.7681	-37.079714
 938	9.3800e-001	-0.7552	-36.935112
 939	9.3900e-001	-0.7455	-36.818318
 940	9.4000e-001	-0.7328	-36.676497
 941	9.4100e-001	-0.7193	-36.532822
 942	9.4200e-001	-0.7111	-36.391001
 943	9.4300e-001	-0.6944	-36.236203
 944	9.4400e-001	-0.6832	-36.091601
 945	9.4500e-001	-0.6729	-35.695800
 946	9.4600e-001	-0.6599	-35.566956
 947	9.4700e-001	-0.6490	-35.475190
 948	9.4800e-001	-0.6377	-35.356542
 949	9.4900e-001	-0.6262	-35.202671
 950	9.5000e-001	-0.6137	-35.099781
 951	9.5100e-001	-0.5999	-34.939421
 952	9.5200e-001	-0.5918	-34.779988
 953	9.5300e-001	-0.5775	-34.602944
 954	9.5400e-001	-0.5657	-34.435169
 955	9.5500e-001	-0.5526	-34.231243
 956	9.5600e-001	-0.5417	-34.076445
 957	9.5700e-001	-0.5293	-33.896619
 958	9.5800e-001	-0.5161	-33.724209
 959	9.5900e-001	-0.5040	-33.527699
 960	9.6000e-001	-0.4917	-33.343239
 961	9.6100e-001	-0.4813	-33.168975
 962	9.6200e-001	-0.4684	-32.969684
 963	9.6300e-001	-0.4553	-32.526610
 964	9.6400e-001	-0.4453	-32.352346
 965	9.6500e-001	-0.4332	-32.147493
 966	9.6600e-001	-0.4205	-32.044603
 967	9.6700e-001	-0.4084	-31.850874
 968	9.6800e-001	-0.3969	-31.706272
 969	9.6900e-001	-0.3848	-31.515324
 970	9.7000e-001	-0.3727	-31.262270
 971	9.7100e-001	-0.3606	-31.088934
 972	9.7200e-001	-0.3495	-30.881300
 973	9.7300e-001	-0.3364	-30.645859
 974	9.7400e-001	-0.3249	-30.483645
 975	9.7500e-001	-0.3144	-30.253765
 976	9.7600e-001	-0.2987	-30.041497
 977	9.7700e-001	-0.2879	-29.847768
 978	9.7800e-001	-0.2760	-29.644769
 979	9.7900e-001	-0.2664	-29.429720
 980	9.8000e-001	-0.2514	-29.197986
 981	9.8100e-001	-0.2391	-28.746569
 982	9.8200e-001	-0.2285	-28.514835
 983	9.8300e-001	-0.2173	-28.268271
 984	9.8400e-001	-0.2039	-28.156111
 985	9.8500e-001	-0.1969	-27.960528
 986	9.8600e-001	-0.1796	-27.758456
 987	9.8700e-001	-0.1665	-27.585120
 988	9.8800e-001	-0.1577	-27.370071
 989	9.8900e-001	-0.1453	-27.146679
 990	9.9000e-001	-0.1310	-26.907530
 991	9.9100e-001	-0.1202	-26.695262
 992	9.9200e-001	-0.1094	-26.457040
 993	9.9300e-001	-0.0975	-26.245699
 994	9.9400e-001	-0.0835	-26.041773
 995	9.9500e-001	-0.0711	-25.783158
 996	9.9600e-001	-0.0601	-25.584794
 997	9.9700e-001	-0.0488	-25.354914
 998	9.9800e-001	-0.0384	-25.088884
 999	9.9900e-001	-0.0250	-24.650444
1000	1.0000e+000	-0.0130	-24.460422
1001	1.0010e+000	-0.0001	-24.232396
1002	1.0020e+000	0.0111	-24.076671
1003	1.0030e+000	0.0206	-23.906115
1004	1.0040e+000	0.0359	-23.706824
1005	1.0050e+000	0.0468	-23.514948
1006	1.0060e+000	0.0592	-23.273945
1007	1.0070e+000	0.0687	-23.077435
1008	1.0080e+000	0.0834	-22.845701
1009	1.0090e+000	0.0963	-22.588013
1010	1.0100e+000	0.1056	-22.393357
1011	1.0110e+000	0.1192	-22.167185
1012	1.0120e+000	0.1312	-21.932670
1013	1.0130e+000	0.1431	-21.721329
1014	1.0140e+000	0.1552	-21.478472
1015	1.0150e+000	0.1643	-21.240250
1016	1.0160e+000	0.1774	-21.012224
1017	1.0170e+000	0.1905	-20.610861
1018	1.0180e+000	0.2009	-20.419913
1019	1.0190e+000	0.2168	-20.137198
1020	1.0200e+000	0.2279	-20.074166
1021	1.0210e+000	0.2385	-19.883217
1022	1.0220e+000	0.2486	-19.683926
1023	1.0230e+000	0.2620	-19.499466
1024	1.0240e+000	0.2753	-19.244559
1025	1.0250e+000	0.2869	-18.998921
1026	1.0260e+000	0.2989	-18.770895
1027	1.0270e+000	0.3123	-18.549358
1028	1.0280e+000	0.3237	-18.326894
1029	1.0290e+000	0.3332	-18.084037
1030	1.0300e+000	0.3461	-17.862499
1031	1.0310e+000	0.3602	-17.618715
1032	1.0320e+000	0.3693	-17.397178
1033	1.0330e+000	0.3831	-17.173787
1034	1.0340e+000	0.3929	-16.917953
1035	1.0350e+000	0.4048	-16.527713
1036	1.0360e+000	0.4218	-16.308956
1037	1.0370e+000	0.4317	-16.151377
1038	1.0380e+000	0.4419	-15.927986
1039	1.0390e+000	0.4557	-15.713864
1040	1.0400e+000	0.4665	-15.482130
1041	1.0410e+000	0.4767	-15.279132
1042	1.0420e+000	0.4893	-15.027005
1043	1.0430e+000	0.5037	-14.791564
1044	1.0440e+000	0.5156	-14.554269
1045	1.0450e+000	0.5278	-14.327169
1046	1.0460e+000	0.5405	-14.098217
1047	1.0470e+000	0.5502	-13.845163
1048	1.0480e+000	0.5624	-13.621772
1049	1.0490e+000	0.5752	-13.379842
1050	1.0500e+000	0.5872	-13.147181
1051	1.0510e+000	0.5991	-12.923790
1052	1.0520e+000	0.6131	-12.674445
1053	1.0530e+000	0.6233	-12.280497
1054	1.0540e+000	0.6368	-12.073791
1055	1.0550e+000	0.6480	-11.800345
1056	1.0560e+000	0.6559	-11.672428
1057	1.0570e+000	0.6715	-11.456452
1058	1.0580e+000	0.6816	-11.225645
1059	1.0590e+000	0.6951	-11.019866
1060	1.0600e+000	0.7095	-10.800182
1061	1.0610e+000	0.7189	-10.557325
1062	1.0620e+000	0.7325	-10.332080
1063	1.0630e+000	0.7433	-10.104054
1064	1.0640e+000	0.7562	-9.879736
1065	1.0650e+000	0.7672	-9.663760
1066	1.0660e+000	0.7795	-9.423684
1067	1.0670e+000	0.7912	-9.186388
1068	1.0680e+000	0.8031	-8.963924
1069	1.0690e+000	0.8135	-8.722921
1070	1.0700e+000	0.8244	-8.490260
1071	1.0710e+000	0.8415	-8.125048
1072	1.0720e+000	0.8485	-7.893314
1073	1.0730e+000	0.8639	-7.694950
1074	1.0740e+000	0.8754	-7.507709
1075	1.0750e+000	0.8862	-7.288026
1076	1.0760e+000	0.8997	-7.078538
1077	1.0770e+000	0.9107	-6.842170
1078	1.0780e+000	0.9225	-6.641952
1079	1.0790e+000	0.9364	-6.405584
1080	1.0800e+000	0.9482	-6.146042
1081	1.0810e+000	0.9592	-5.930993
1082	1.0820e+000	0.9707	-5.686282
1083	1.0830e+000	0.9842	-5.439718
1084	1.0840e+000	0.9939	-5.203349
1085	1.0850e+000	1.0082	-4.949369
1086	1.0860e+000	1.0189	-4.713001
1087	1.0870e+000	1.0308	-4.472924
1088	1.0880e+000	1.0443	-4.220798
1089	1.0890e+000	1.0556	-3.866709
1090	1.0900e+000	1.0674	-3.615510
1091	1.0910e+000	1.0792	-3.410657
1092	1.0920e+000	1.0913	-3.199316
1093	1.0930e+000	1.1032	-2.924016
1094	1.0940e+000	1.1166	-2.678378
1095	1.0950e+000	1.1262	-2.435521
1096	1.0960e+000	1.1375	-2.170418
1097	1.0970e+000	1.1523	-1.889557
1098	1.0980e+000	1.1643	-1.607769
1099	1.0990e+000	1.1746	-1.334323
1100	1.1000e+000	1.1877	-1.059023
1101	1.1010e+000	1.2003	-0.757769
1102	1.1020e+000	1.2132	-0.479689
1103	1.1030e+000	1.2234	-0.196974
1104	1.1040e+000	1.2343	0.122819
1105	1.1050e+000	1.2466	0.425927
1106	1.1060e+000	1.2592	0.767039
1107	1.1070e+000	1.2688	1.207333
1108	1.1080e+000	1.2820	1.472436
1109	1.1090e+000	1.2944	1.813548
1110	1.1100e+000	1.3058	2.170418
1111	1.1110e+000	1.3192	2.547681
1112	1.1120e+000	1.3313	2.896208
1113	1.1130e+000	1.3433	3.304059
1114	1.1140e+000	1.3536	3.710057
1115	1.1150e+000	1.3654	4.116981
1116	1.1160e+000	1.3793	4.565618
1117	1.1170e+000	1.3909	5.036501
1118	1.1180e+000	1.4027	5.510165
1119	1.1190e+000	1.4165	6.025540
1120	1.1200e+000	1.4285	6.551112
1121	1.1210e+000	1.4398	7.149912
1122	1.1220e+000	1.4539	7.741297
1123	1.1230e+000	1.4610	8.407763
1124	1.1240e+000	1.4761	9.083499
1125	1.1250e+000	1.4887	9.927009
1126	1.1260e+000	1.5004	10.675973
1127	1.1270e+000	1.5121	11.461087
1128	1.1280e+000	1.5238	12.297182
1129	1.1290e+000	1.5369	13.244509
1130	1.1300e+000	1.5474	14.158467
1131	1.1310e+000	1.5583	15.153995
1132	1.1320e+000	1.5701	16.195870
1133	1.1330e+000	1.5794	17.285019
1134	1.1340e+000	1.5936	18.439980
1135	1.1350e+000	1.6026	19.603283
1136	1.1360e+000	1.6179	20.831472
1137	1.1370e+000	1.6315	22.093957
1138	1.1380e+000	1.6425	23.363858
1139	1.1390e+000	1.6534	24.689375
1140	1.1400e+000	1.6679	25.990791
1141	1.1410e+000	1.6787	27.291281
1142	1.1420e+000	1.6900	28.573232
1143	1.1430e+000	1.7063	29.958073
1144	1.1440e+000	1.7149	31.067614
1145	1.1450e+000	1.7264	32.124320
1146	1.1460e+000	1.7387	33.132825
1147	1.1470e+000	1.7525	34.052344
1148	1.1480e+000	1.7628	34.862486
1149	1.1490e+000	1.7760	35.592910
1150	1.1500e+000	1.7841	36.213030
1151	1.1510e+000	1.7979	36.818318
1152	1.1520e+000	1.8123	37.334621
1153	1.1530e+000	1.8247	37.788819
1154	1.1540e+000	1.8355	38.213355
1155	1.1550e+000	1.8481	38.579495
1156	1.1560e+000	1.8584	38.909483
1157	1.1570e+000	1.8709	39.191272
1158	1.1580e+000	1.8834	39.453594
1159	1.1590e+000	1.8961	39.700159
1160	1.1600e+000	1.9061	39.915208
1161	1.1610e+000	1.9193	40.146015
1162	1.1620e+000	1.9316	40.291543
1163	1.1630e+000	1.9434	40.440780
1164	1.1640e+000	1.9557	40.553866
1165	1.1650e+000	1.9656	40.709591
1166	1.1660e+000	1.9788	40.827312
1167	1.1670e+000	1.9917	40.920005
1168	1.1680e+000	2.0042	41.068315
1169	1.1690e+000	2.0148	41.148958
1170	1.1700e+000	2.0270	41.264825
1171	1.1710e+000	2.0410	41.356592
1172	1.1720e+000	2.0527	41.429819
1173	1.1730e+000	2.0626	41.527148
1174	1.1740e+000	2.0765	41.583691
1175	1.1750e+000	2.0850	41.648576
1176	1.1760e+000	2.1020	41.727365
1177	1.1770e+000	2.1085	41.768151
1178	1.1780e+000	2.1231	41.832109
1179	1.1790e+000	2.1377	41.898848
1180	1.1800e+000	2.1470	41.954465
1181	1.1810e+000	2.1580	41.990615
1182	1.1820e+000	2.1710	42.043450
1183	1.1830e+000	2.1835	42.125948
1184	1.1840e+000	2.1954	42.164879
1185	1.1850e+000	2.2083	42.195468
1186	1.1860e+000	2.2195	42.241814
1187	1.1870e+000	2.2296	42.282600
1188	1.1880e+000	2.2437	42.379001
1189	1.1890e+000	2.2560	42.384562
1190	1.1900e+000	2.2664	42.429055
1191	1.1910e+000	2.2814	42.478183
1192	1.1920e+000	2.2903	42.501356
1193	1.1930e+000	2.3026	42.548630
1194	1.1940e+000	2.3170	42.569022
1195	1.1950e+000	2.3288	42.621858
1196	1.1960e+000	2.3410	42.676547
1197	1.1970e+000	2.3495	42.670985
1198	1.1980e+000	2.3634	42.731236
1199	1.1990e+000	2.3759	42.766460
1200	1.2000e+000	2.3887	42.810025
1201	1.2010e+000	2.3970	42.867495
1202	1.2020e+000	2.4078	42.891596
1203	1.2030e+000	2.4227	42.904573
1204	1.2040e+000	2.4368	42.955554
1205	1.2050e+000	2.4480	42.980581
1206	1.2060e+000	2.4609	43.009316
1207	1.2070e+000	2.4724	43.046394
1208	1.2080e+000	2.4828	43.073275
1209	1.2090e+000	2.4943	43.114060
1210	1.2100e+000	2.5063	43.112206
1211	1.2110e+000	2.5193	43.160407
1212	1.2120e+000	2.5324	43.200265
1213	1.2130e+000	2.5441	43.233635
1214	1.2140e+000	2.5539	43.285543
1215	1.2150e+000	2.5655	43.279981
1216	1.2160e+000	2.5793	43.328182
1217	1.2170e+000	2.5904	43.367113
1218	1.2180e+000	2.6025	43.409752
1219	1.2190e+000	2.6170	43.417168
1220	1.2200e+000	2.6302	43.431072
1221	1.2210e+000	2.6379	43.473711
1222	1.2220e+000	2.6534	43.484834
1223	1.2230e+000	2.6638	43.512642
1224	1.2240e+000	2.6735	43.560843
1225	1.2250e+000	2.6861	43.604409
1226	1.2260e+000	2.6987	43.595139
1227	1.2270e+000	2.7103	43.661879
1228	1.2280e+000	2.7259	43.648902
1229	1.2290e+000	2.7360	43.717495
1230	1.2300e+000	2.7480	43.713787
1231	1.2310e+000	2.7613	43.780526
1232	1.2320e+000	2.7707	43.813896
1233	1.2330e+000	2.7837	43.819458
1234	1.2340e+000	2.7974	43.853754
1235	1.2350e+000	2.8091	43.869512
1236	1.2360e+000	2.8175	43.905663
1237	1.2370e+000	2.8306	43.934398
1238	1.2380e+000	2.8457	43.942740
1239	1.2390e+000	2.8564	43.971475
1240	1.2400e+000	2.8693	44.003918
1241	1.2410e+000	2.8767	44.008552
1242	1.2420e+000	2.8912	44.078072
1243	1.2430e+000	2.9043	44.097538
1244	1.2440e+000	2.9169	44.117004
1245	1.2450e+000	2.9275	44.153154
1246	1.2460e+000	2.9391	44.186524
1247	1.2470e+000	2.9539	44.200428
1248	1.2480e+000	2.9628	44.236578
1249	1.2490e+000	2.9761	44.279217
1250	1.2500e+000	2.9879	44.296829
1251	1.2510e+000	2.9992	44.309806
1252	1.2520e+000	2.9874	44.304245
1253	1.2530e+000	2.9749	44.313514
1254	1.2540e+000	2.9634	44.302391
1255	1.2550e+000	2.9517	44.281998
1256	1.2560e+000	2.9403	44.271802
1257	1.2570e+000	2.9257	44.250482
1258	1.2580e+000	2.9144	44.239359
1259	1.2590e+000	2.9031	44.243067
1260	1.2600e+000	2.8922	44.255117
1261	1.2610e+000	2.8788	44.230090
1262	1.2620e+000	2.8672	44.218040
1263	1.2630e+000	2.8548	44.205989
1264	1.2640e+000	2.8430	44.169839
1265	1.2650e+000	2.8315	44.161497
1266	1.2660e+000	2.8175	44.157789
1267	1.2670e+000	2.8052	44.149446
1268	1.2680e+000	2.7955	44.121638
1269	1.2690e+000	2.7826	44.100319
1270	1.2700e+000	2.7730	44.141104
1271	1.2710e+000	2.7608	44.129981
1272	1.2720e+000	2.7489	44.096611
1273	1.2730e+000	2.7355	44.109588
1274	1.2740e+000	2.7213	44.030799
1275	1.2750e+000	2.7125	44.030799
1276	1.2760e+000	2.6998	44.026164
1277	1.2770e+000	2.6881	43.993721
1278	1.2780e+000	2.6740	44.004845
1279	1.2790e+000	2.6646	43.976110
1280	1.2800e+000	2.6498	43.959425
1281	1.2810e+000	2.6392	43.948302
1282	1.2820e+000	2.6288	43.920493
1283	1.2830e+000	2.6155	43.912151
1284	1.2840e+000	2.6033	43.907516
1285	1.2850e+000	2.5927	43.891759
1286	1.2860e+000	2.5771	43.908443
1287	1.2870e+000	2.5663	43.876928
1288	1.2880e+000	2.5556	43.860243
1289	1.2890e+000	2.5423	43.849120
1290	1.2900e+000	2.5298	43.817604
1291	1.2910e+000	2.5211	43.812042
1292	1.2920e+000	2.5051	43.745303
1293	1.2930e+000	2.4947	43.745303
1294	1.2940e+000	2.4842	43.737887
1295	1.2950e+000	2.4715	43.718422
1296	1.2960e+000	2.4580	43.707298
1297	1.2970e+000	2.4461	43.689687
1298	1.2980e+000	2.4361	43.694321
1299	1.2990e+000	2.4222	43.677637
1300	1.3000e+000	2.4131	43.636851
1301	1.3010e+000	2.3994	43.642413
1302	1.3020e+000	2.3879	43.611824
1303	1.3030e+000	2.3774	43.592359
1304	1.3040e+000	2.3646	43.516350
1305	1.3050e+000	2.3486	43.561770
1306	1.3060e+000	2.3410	43.520985
1307	1.3070e+000	2.3269	43.511715
1308	1.3080e+000	2.3146	43.495030
1309	1.3090e+000	2.3038	43.491323
1310	1.3100e+000	2.2896	43.432926
1311	1.3110e+000	2.2803	43.444976
1312	1.3120e+000	2.2659	43.424583
1313	1.3130e+000	2.2575	43.411606
1314	1.3140e+000	2.2427	43.418095
1315	1.3150e+000	2.2318	43.403264
1316	1.3160e+000	2.2212	43.381944
1317	1.3170e+000	2.2081	43.359698
1318	1.3180e+000	2.1965	43.332817
1319	1.3190e+000	2.1846	43.306863
1320	1.3200e+000	2.1725	43.286470
1321	1.3210e+000	2.1593	43.256808
1322	1.3220e+000	2.1484	43.261443
1323	1.3230e+000	2.1349	43.225292
1324	1.3240e+000	2.1230	43.190996
1325	1.3250e+000	2.1099	43.166895
1326	1.3260e+000	2.0986	43.169676
1327	1.3270e+000	2.0871	43.188215
1328	1.3280e+000	2.0743	43.125183
1329	1.3290e+000	2.0625	43.143722
1330	1.3300e+000	2.0535	43.090887
1331	1.3310e+000	2.0383	43.075129
1332	1.3320e+000	2.0277	43.064933
1333	1.3330e+000	2.0147	43.025074
1334	1.3340e+000	2.0020	43.007463
1335	1.3350e+000	1.9920	42.982435
1336	1.3360e+000	1.9800	42.980581
1337	1.3370e+000	1.9687	42.953700
1338	1.3380e+000	1.9531	42.911988
1339	1.3390e+000	1.9421	42.921258
1340	1.3400e+000	1.9296	42.861007
1341	1.3410e+000	1.9199	42.876765
1342	1.3420e+000	1.9058	42.862861
1343	1.3430e+000	1.8938	42.861934
1344	1.3440e+000	1.8823	42.823003
1345	1.3450e+000	1.8707	42.824856
1346	1.3460e+000	1.8597	42.795195
1347	1.3470e+000	1.8464	42.770167
1348	1.3480e+000	1.8359	42.728455
1349	1.3490e+000	1.8233	42.723821
1350	1.3500e+000	1.8111	42.703428
1351	1.3510e+000	1.8001	42.666351
1352	1.3520e+000	1.7890	42.650593
1353	1.3530e+000	1.7733	42.629273
1354	1.3540e+000	1.7625	42.605173
1355	1.3550e+000	1.7492	42.589415
1356	1.3560e+000	1.7390	42.582926
1357	1.3570e+000	1.7256	42.578292
1358	1.3580e+000	1.7165	42.547703
1359	1.3590e+000	1.7044	42.507845
1360	1.3600e+000	1.6913	42.499502
1361	1.3610e+000	1.6785	42.456863
1362	1.3620e+000	1.6660	42.450375
1363	1.3630e+000	1.6560	42.444813
1364	1.3640e+000	1.6438	42.393832
1365	1.3650e+000	1.6289	42.399393
1366	1.3660e+000	1.6202	42.330800
1367	1.3670e+000	1.6083	42.319677
1368	1.3680e+000	1.5948	42.319677
1369	1.3690e+000	1.5824	42.275184
1370	1.3700e+000	1.5718	42.289088
1371	1.3710e+000	1.5573	42.254791
1372	1.3720e+000	1.5473	42.243668
1373	1.3730e+000	1.5359	42.209372
1374	1.3740e+000	1.5230	42.210299
1375	1.3750e+000	1.5097	42.176002
1376	1.3760e+000	1.4986	42.137998
1377	1.3770e+000	1.4886	42.143559
1378	1.3780e+000	1.4746	42.110190
1379	1.3790e+000	1.4630	42.079601
1380	1.3800e+000	1.4516	42.050866
1381	1.3810e+000	1.4391	42.030473
1382	1.3820e+000	1.4269	41.999884
1383	1.3830e+000	1.4143	41.983200
1384	1.3840e+000	1.4044	41.966515
1385	1.3850e+000	1.3930	41.947049
1386	1.3860e+000	1.3773	41.919241
1387	1.3870e+000	1.3663	41.920168
1388	1.3880e+000	1.3549	41.901629
1389	1.3890e+000	1.3406	41.849721
1390	1.3900e+000	1.3290	41.823767
1391	1.3910e+000	1.3180	41.819132
1392	1.3920e+000	1.3056	41.770931
1393	1.3930e+000	1.2936	41.778347
1394	1.3940e+000	1.2833	41.721804
1395	1.3950e+000	1.2689	41.698631
1396	1.3960e+000	1.2602	41.678238
1397	1.3970e+000	1.2473	41.654138
1398	1.3980e+000	1.2360	41.631891
1399	1.3990e+000	1.2234	41.627257
1400	1.4000e+000	1.2109	41.570713
1401	1.4010e+000	1.1978	41.561444
1402	1.4020e+000	1.1865	41.531782
1403	1.4030e+000	1.1736	41.507682
1404	1.4040e+000	1.1624	41.479874
1405	1.4050e+000	1.1518	41.459481
1406	1.4060e+000	1.1397	41.434454
1407	1.4070e+000	1.1295	41.374203
1408	1.4080e+000	1.1163	41.343614
1409	1.4090e+000	1.1050	41.350103
1410	1.4100e+000	1.0934	41.280583
1411	1.4110e+000	1.0803	41.289852
1412	1.4120e+000	1.0675	41.234236
1413	1.4130e+000	1.0552	41.214770
1414	1.4140e+000	1.0434	41.205501
1415	1.4150e+000	1.0298	41.180474
1416	1.4160e+000	1.0187	41.133200
1417	1.4170e+000	1.0062	41.097050
1418	1.4180e+000	0.9934	41.087780
1419	1.4190e+000	0.9834	41.026603
1420	1.4200e+000	0.9706	41.000649
1421	1.4210e+000	0.9583	40.967279
1422	1.4220e+000	0.9465	40.967279
1423	1.4230e+000	0.9351	40.884782
1424	1.4240e+000	0.9231	40.881074
1425	1.4250e+000	0.9123	40.810627
1426	1.4260e+000	0.8997	40.790234
1427	1.4270e+000	0.8879	40.772623
1428	1.4280e+000	0.8775	40.707737
1429	1.4290e+000	0.8628	40.682710
1430	1.4300e+000	0.8520	40.660463
1431	1.4310e+000	0.8356	40.576112
1432	1.4320e+000	0.8277	40.567770
1433	1.4330e+000	0.8154	40.551085
1434	1.4340e+000	0.8038	40.477857
1435	1.4350e+000	0.7929	40.429657
1436	1.4360e+000	0.7803	40.391652
1437	1.4370e+000	0.7664	40.346232
1438	1.4380e+000	0.7533	40.275785
1439	1.4390e+000	0.7439	40.239635
1440	1.4400e+000	0.7281	40.209046
1441	1.4410e+000	0.7201	40.156211
1442	1.4420e+000	0.7053	40.081129
1443	1.4430e+000	0.6944	40.053321
1444	1.4440e+000	0.6855	39.990289
1445	1.4450e+000	0.6696	39.941162
1446	1.4460e+000	0.6603	39.883692
1447	1.4470e+000	0.6473	39.846615
1448	1.4480e+000	0.6326	39.733528
1449	1.4490e+000	0.6229	39.642689
1450	1.4500e+000	0.6097	39.595415
1451	1.4510e+000	0.6012	39.531457
1452	1.4520e+000	0.5883	39.481402
1453	1.4530e+000	0.5746	39.409101
1454	1.4540e+000	0.5610	39.327531
1455	1.4550e+000	0.5502	39.251522
1456	1.4560e+000	0.5392	39.153267
1457	1.4570e+000	0.5295	39.088382
1458	1.4580e+000	0.5148	39.008665
1459	1.4590e+000	0.5033	38.910410
1460	1.4600e+000	0.4912	38.823278
1461	1.4610e+000	0.4764	38.700923
1462	1.4620e+000	0.4657	38.598033
1463	1.4630e+000	0.4549	38.496997
1464	1.4640e+000	0.4438	38.384838
1465	1.4650e+000	0.4343	38.283802
1466	1.4660e+000	0.4191	38.091927
1467	1.4670e+000	0.4068	37.985329
1468	1.4680e+000	0.3937	37.911174
1469	1.4690e+000	0.3797	37.783257
1470	1.4700e+000	0.3727	37.688710
1471	1.4710e+000	0.3586	37.570989
1472	1.4720e+000	0.3445	37.443072
1473	1.4730e+000	0.3346	37.312375
1474	1.4740e+000	0.3235	37.149234
1475	1.4750e+000	0.3105	37.040783
1476	1.4760e+000	0.2997	36.884131
1477	1.4770e+000	0.2871	36.741383
1478	1.4780e+000	0.2750	36.566192
1479	1.4790e+000	0.2631	36.413248
1480	1.4800e+000	0.2507	36.269573
1481	1.4810e+000	0.2396	36.109213
1482	1.4820e+000	0.2271	35.957196
1483	1.4830e+000	0.2151	35.791274
1484	1.4840e+000	0.2051	35.538221
1485	1.4850e+000	0.1912	35.363030
1486	1.4860e+000	0.1789	35.214721
1487	1.4870e+000	0.1660	35.061777
1488	1.4880e+000	0.1550	34.851362
1489	1.4890e+000	0.1436	34.664121
1490	1.4900e+000	0.1303	34.480588
1491	1.4910e+000	0.1178	34.259978
1492	1.4920e+000	0.1064	34.068102
1493	1.4930e+000	0.0929	33.858615
1494	1.4940e+000	0.0808	33.664886
1495	1.4950e+000	0.0684	33.428517
1496	1.4960e+000	0.0572	33.196783
1497	1.4970e+000	0.0439	32.953927
1498	1.4980e+000	0.0327	32.733316
1499	1.4990e+000	0.0219	32.492313
1500	1.5000e+000	0.0121	32.238333
1501	1.5010e+000	-0.0017	32.025138
1502	1.5020e+000	-0.0105	31.671976
1503	1.5030e+000	-0.0237	31.451365
1504	1.5040e+000	-0.0354	31.194604
1505	1.5050e+000	-0.0481	30.927647
1506	1.5060e+000	-0.0612	30.631028
1507	1.5070e+000	-0.0732	30.326066
1508	1.5080e+000	-0.0852	30.005347
1509	1.5090e+000	-0.0974	29.680919
1510	1.5100e+000	-0.1090	29.362054
1511	1.5110e+000	-0.1202	29.038553
1512	1.5120e+000	-0.1331	28.721542
1513	1.5130e+000	-0.1460	28.366526
1514	1.5140e+000	-0.1567	27.993898
1515	1.5150e+000	-0.1680	27.615708
1516	1.5160e+000	-0.1804	27.255131
1517	1.5170e+000	-0.1957	26.839864
1518	1.5180e+000	-0.2057	26.445917
1519	1.5190e+000	-0.2151	26.000988
1520	1.5200e+000	-0.2301	25.463366
1521	1.5210e+000	-0.2409	25.042537
1522	1.5220e+000	-0.2531	24.579997
1523	1.5230e+000	-0.2668	24.131360
1524	1.5240e+000	-0.2762	23.656769
1525	1.5250e+000	-0.2892	23.125636
1526	1.5260e+000	-0.2995	22.638995
1527	1.5270e+000	-0.3142	22.075418
1528	1.5280e+000	-0.3257	21.535942
1529	1.5290e+000	-0.3329	21.007589
1530	1.5300e+000	-0.3488	20.446794
1531	1.5310e+000	-0.3606	19.840578
1532	1.5320e+000	-0.3732	19.270513
1533	1.5330e+000	-0.3847	18.668006
1534	1.5340e+000	-0.3983	18.041398
1535	1.5350e+000	-0.4080	17.411082
1536	1.5360e+000	-0.4205	16.759447
1537	1.5370e+000	-0.4345	16.152304
1538	1.5380e+000	-0.4453	15.407049
1539	1.5390e+000	-0.4559	14.806395
1540	1.5400e+000	-0.4702	14.189983
1541	1.5410e+000	-0.4798	13.606014
1542	1.5420e+000	-0.4930	12.885786
1543	1.5430e+000	-0.5045	12.266593
1544	1.5440e+000	-0.5149	11.614031
1545	1.5450e+000	-0.5267	10.980008
1546	1.5460e+000	-0.5412	10.355253
1547	1.5470e+000	-0.5544	9.704545
1548	1.5480e+000	-0.5650	9.095549
1549	1.5490e+000	-0.5798	8.481918
1550	1.5500e+000	-0.5878	7.868287
1551	1.5510e+000	-0.5981	7.251875
1552	1.5520e+000	-0.6100	6.668833
1553	1.5530e+000	-0.6259	6.045933
1554	1.5540e+000	-0.6371	5.489772
1555	1.5550e+000	-0.6497	4.914145
1556	1.5560e+000	-0.6599	4.250460
1557	1.5570e+000	-0.6754	3.763819
1558	1.5580e+000	-0.6846	3.216001
1559	1.5590e+000	-0.6972	2.741410
1560	1.5600e+000	-0.7100	2.216765
1561	1.5610e+000	-0.7193	1.744955
1562	1.5620e+000	-0.7292	1.250899
1563	1.5630e+000	-0.7450	0.729034
1564	1.5640e+000	-0.7563	0.246101
1565	1.5650e+000	-0.7681	-0.184924
1566	1.5660e+000	-0.7819	-0.644683
1567	1.5670e+000	-0.7904	-1.098881
1568	1.5680e+000	-0.8060	-1.503952
1569	1.5690e+000	-0.8186	-1.985958
1570	1.5700e+000	-0.8276	-2.398444
1571	1.5710e+000	-0.8453	-2.771072
1572	1.5720e+000	-0.8511	-3.196535
1573	1.5730e+000	-0.8646	-3.610875
1574	1.5740e+000	-0.8795	-4.074342
1575	1.5750e+000	-0.8880	-4.426578
1576	1.5760e+000	-0.8992	-4.813110
1577	1.5770e+000	-0.9151	-5.156075
1578	1.5780e+000	-0.9261	-5.463818
1579	1.5790e+000	-0.9387	-5.886500
1580	1.5800e+000	-0.9504	-6.269324
1581	1.5810e+000	-0.9620	-6.636391
1582	1.5820e+000	-0.9704	-6.961745
1583	1.5830e+000	-0.9854	-7.328811
1584	1.5840e+000	-0.9978	-7.670850
1585	1.5850e+000	-1.0123	-7.982300
1586	1.5860e+000	-1.0205	-8.316924
1587	1.5870e+000	-1.0311	-8.684917
1588	1.5880e+000	-1.0468	-8.989878
1589	1.5890e+000	-1.0558	-9.330990
1590	1.5900e+000	-1.0685	-9.648929
1591	1.5910e+000	-1.0838	-9.981699
1592	1.5920e+000	-1.0918	-10.381208
1593	1.5930e+000	-1.1050	-10.648165
1594	1.5940e+000	-1.1176	-10.942930
1595	1.5950e+000	-1.1311	-11.232134
1596	1.5960e+000	-1.1422	-11.525045
1597	1.5970e+000	-1.1546	-11.876354
1598	1.5980e+000	-1.1655	-12.136822
1599	1.5990e+000	-1.1777	-12.471446
1600	1.6000e+000	-1.1878	-12.768992
1601	1.6010e+000	-1.2019	-13.079515
1602	1.6020e+000	-1.2128	-13.373353
1603	1.6030e+000	-1.2267	-13.642165
1604	1.6040e+000	-1.2380	-13.976788
1605	1.6050e+000	-1.2491	-14.276188
1606	1.6060e+000	-1.2596	-14.529241
1607	1.6070e+000	-1.2722	-14.867573
1608	1.6080e+000	-1.2845	-15.130822
1609	1.6090e+000	-1.2943	-15.393145
1610	1.6100e+000	-1.3128	-15.780603
1611	1.6110e+000	-1.3193	-16.030876
1612	1.6120e+000	-1.3327	-16.319153
1613	1.6130e+000	-1.3462	-16.548106
1614	1.6140e+000	-1.3555	-16.858629
1615	1.6150e+000	-1.3702	-17.150613
1616	1.6160e+000	-1.3807	-17.421278
1617	1.6170e+000	-1.3934	-17.724386
1618	1.6180e+000	-1.4042	-18.027494
1619	1.6190e+000	-1.4155	-18.308355
1620	1.6200e+000	-1.4288	-18.577166
1621	1.6210e+000	-1.4425	-18.846904
1622	1.6220e+000	-1.4522	-19.185235
1623	1.6230e+000	-1.4616	-19.493905
1624	1.6240e+000	-1.4776	-19.768277
1625	1.6250e+000	-1.4896	-20.080654
1626	1.6260e+000	-1.5019	-20.405082
1627	1.6270e+000	-1.5104	-20.712824
1628	1.6280e+000	-1.5274	-21.098429
1629	1.6290e+000	-1.5376	-21.433053
1630	1.6300e+000	-1.5501	-21.750064
1631	1.6310e+000	-1.5615	-22.081907
1632	1.6320e+000	-1.5733	-22.402626
1633	1.6330e+000	-1.5849	-22.860532
1634	1.6340e+000	-1.5958	-23.273018
1635	1.6350e+000	-1.6076	-23.711459
1636	1.6360e+000	-1.6212	-24.155460
1637	1.6370e+000	-1.6308	-24.611512
1638	1.6380e+000	-1.6461	-25.085176
1639	1.6390e+000	-1.6560	-25.608894
1640	1.6400e+000	-1.6692	-26.148370
1641	1.6410e+000	-1.6804	-26.714728
1642	1.6420e+000	-1.6938	-27.318162
1643	1.6430e+000	-1.7063	-27.909547
1644	1.6440e+000	-1.7170	-28.564890
1645	1.6450e+000	-1.7280	-29.228575
1646	1.6460e+000	-1.7408	-30.025739
1647	1.6470e+000	-1.7527	-30.669032
1648	1.6480e+000	-1.7623	-31.312325
1649	1.6490e+000	-1.7772	-31.986206
1650	1.6500e+000	-1.7876	-32.613741
1651	1.6510e+000	-1.8031	-33.242203
1652	1.6520e+000	-1.8129	-33.799291
1653	1.6530e+000	-1.8272	-34.388822
1654	1.6540e+000	-1.8369	-34.884732
1655	1.6550e+000	-1.8488	-35.348199
1656	1.6560e+000	-1.8594	-35.782932
1657	1.6570e+000	-1.8744	-36.198199
1658	1.6580e+000	-1.8839	-36.545799
1659	1.6590e+000	-1.8962	-36.872080
1660	1.6600e+000	-1.9087	-37.211339
1661	1.6610e+000	-1.9244	-37.476442
1662	1.6620e+000	-1.9361	-37.748961
1663	1.6630e+000	-1.9462	-37.986256
1664	1.6640e+000	-1.9563	-38.288437
1665	1.6650e+000	-1.9685	-38.450651
1666	1.6660e+000	-1.9817	-38.605449
1667	1.6670e+000	-1.9951	-38.821425
1668	1.6680e+000	-2.0087	-38.983638
1669	1.6690e+000	-2.0173	-39.112482
1670	1.6700e+000	-2.0305	-39.275623
1671	1.6710e+000	-2.0411	-39.439690
1672	1.6720e+000	-2.0562	-39.575950
1673	1.6730e+000	-2.0641	-39.669570
1674	1.6740e+000	-2.0773	-39.819733
1675	1.6750e+000	-2.0900	-39.963408
1676	1.6760e+000	-2.1023	-40.057956
1677	1.6770e+000	-2.1124	-40.182165
1678	1.6780e+000	-2.1259	-40.308228
1679	1.6790e+000	-2.1359	-40.408337
1680	1.6800e+000	-2.1479	-40.519569
1681	1.6810e+000	-2.1605	-40.647486
1682	1.6820e+000	-2.1737	-40.750376
1683	1.6830e+000	-2.1861	-40.845850
1684	1.6840e+000	-2.1976	-40.917224
1685	1.6850e+000	-2.2082	-40.995087
1686	1.6860e+000	-2.2198	-41.085927
1687	1.6870e+000	-2.2335	-41.169351
1688	1.6880e+000	-2.2459	-41.230528
1689	1.6890e+000	-2.2559	-41.311172
1690	1.6900e+000	-2.2697	-41.401084
1691	1.6910e+000	-2.2836	-41.496559
1692	1.6920e+000	-2.2929	-41.587398
1693	1.6930e+000	-2.3060	-41.619841
1694	1.6940e+000	-2.3161	-41.719950
1695	1.6950e+000	-2.3285	-41.801520
1696	1.6960e+000	-2.3410	-41.858990
1697	1.6970e+000	-2.3533	-41.897922
1698	1.6980e+000	-2.3648	-41.951684
1699	1.6990e+000	-2.3770	-42.051793
1700	1.7000e+000	-2.3893	-42.121313
1701	1.7010e+000	-2.3988	-42.175075
1702	1.7020e+000	-2.4128	-42.239034
1703	1.7030e+000	-2.4254	-42.272403
1704	1.7040e+000	-2.4371	-42.248303
1705	1.7050e+000	-2.4480	-42.389197
1706	1.7060e+000	-2.4610	-42.440178
1707	1.7070e+000	-2.4725	-42.493014
1708	1.7080e+000	-2.4852	-42.567169
1709	1.7090e+000	-2.4961	-42.617223
1710	1.7100e+000	-2.5083	-42.664497
1711	1.7110e+000	-2.5224	-42.699720
1712	1.7120e+000	-2.5320	-42.759971
1713	1.7130e+000	-2.5454	-42.775729
1714	1.7140e+000	-2.5582	-42.836907
1715	1.7150e+000	-2.5694	-42.873057
1716	1.7160e+000	-2.5818	-42.915696
1717	1.7170e+000	-2.5930	-42.968531
1718	1.7180e+000	-2.6047	-43.017659
1719	1.7190e+000	-2.6183	-43.048248
1720	1.7200e+000	-2.6318	-43.114987
1721	1.7210e+000	-2.6412	-43.155772
1722	1.7220e+000	-2.6514	-43.168749
1723	1.7230e+000	-2.6643	-43.245685
1724	1.7240e+000	-2.6759	-43.273493
1725	1.7250e+000	-2.6895	-43.302228
1726	1.7260e+000	-2.7008	-43.336525
1727	1.7270e+000	-2.7127	-43.404191
1728	1.7280e+000	-2.7256	-43.444976
1729	1.7290e+000	-2.7397	-43.448684
1730	1.7300e+000	-2.7490	-43.515423
1731	1.7310e+000	-2.7603	-43.548793
1732	1.7320e+000	-2.7729	-43.592359
1733	1.7330e+000	-2.7849	-43.633144
1734	1.7340e+000	-2.7978	-43.647975
1735	1.7350e+000	-2.8094	-43.698029
1736	1.7360e+000	-2.8230	-43.741595
1737	1.7370e+000	-2.8340	-43.781453
1738	1.7380e+000	-2.8470	-43.827800
1739	1.7390e+000	-2.8584	-43.862097
1740	1.7400e+000	-2.8690	-43.920493
1741	1.7410e+000	-2.8814	-43.938105
1742	1.7420e+000	-2.8937	-43.974256
1743	1.7430e+000	-2.9064	-44.012260
1744	1.7440e+000	-2.9185	-44.055826
1745	1.7450e+000	-2.9271	-44.074365
1746	1.7460e+000	-2.9417	-44.102173
1747	1.7470e+000	-2.9531	-44.166131
1748	1.7480e+000	-2.9661	-44.198574
1749	1.7490e+000	-2.9770	-44.232871
1750	1.7500e+000	-2.9897	-44.303318
1751	1.7510e+000	-3.0029	-44.313514
1752	1.7520e+000	-2.9880	-44.301464
1753	1.7530e+000	-2.9785	-44.304245
1754	1.7540e+000	-2.9679	-44.275510
1755	1.7550e+000	-2.9532	-44.276437
1756	1.7560e+000	-2.9391	-44.270875
1757	1.7570e+000	-2.9315	-44.245848
1758	1.7580e+000	-2.9198	-44.245848
1759	1.7590e+000	-2.9071	-44.238432
1760	1.7600e+000	-2.8964	-44.213405
1761	1.7610e+000	-2.8822	-44.202282
1762	1.7620e+000	-2.8688	-44.194866
1763	1.7630e+000	-2.8570	-44.176328
1764	1.7640e+000	-2.8454	-44.176328
1765	1.7650e+000	-2.8331	-44.129054
1766	1.7660e+000	-2.8204	-44.150373
1767	1.7670e+000	-2.8092	-44.112369
1768	1.7680e+000	-2.7988	-44.101246
1769	1.7690e+000	-2.7871	-44.100319
1770	1.7700e+000	-2.7727	-44.055826
1771	1.7710e+000	-2.7626	-44.049337
1772	1.7720e+000	-2.7484	-44.034506
1773	1.7730e+000	-2.7369	-44.016895
1774	1.7740e+000	-2.7245	-43.983525
1775	1.7750e+000	-2.7139	-43.973329
1776	1.7760e+000	-2.7015	-43.959425
1777	1.7770e+000	-2.6891	-43.967767
1778	1.7780e+000	-2.6780	-43.921420
1779	1.7790e+000	-2.6662	-43.920493
1780	1.7800e+000	-2.6549	-43.916786
1781	1.7810e+000	-2.6408	-43.878781
1782	1.7820e+000	-2.6288	-43.856535
1783	1.7830e+000	-2.6167	-43.834289
1784	1.7840e+000	-2.6075	-43.829654
1785	1.7850e+000	-2.5955	-43.799992
1786	1.7860e+000	-2.5818	-43.788869
1787	1.7870e+000	-2.5703	-43.770330
1788	1.7880e+000	-2.5588	-43.725837
1789	1.7890e+000	-2.5457	-43.719349
1790	1.7900e+000	-2.5337	-43.684125
1791	1.7910e+000	-2.5195	-43.673002
1792	1.7920e+000	-2.5083	-43.674856
1793	1.7930e+000	-2.4967	-43.640559
1794	1.7940e+000	-2.4822	-43.620167
1795	1.7950e+000	-2.4700	-43.606263
1796	1.7960e+000	-2.4593	-43.597920
1797	1.7970e+000	-2.4503	-43.583089
1798	1.7980e+000	-2.4353	-43.548793
1799	1.7990e+000	-2.4262	-43.524692
1800	1.8000e+000	-2.4151	-43.488542
1801	1.8010e+000	-2.4005	-43.453318
1802	1.8020e+000	-2.3882	-43.455172
1803	1.8030e+000	-2.3776	-43.406045
1804	1.8040e+000	-2.3682	-43.381944
1805	1.8050e+000	-2.3516	-43.403264
1806	1.8060e+000	-2.3390	-43.347648
1807	1.8070e+000	-2.3302	-43.346721
1808	1.8080e+000	-2.3178	-43.321694
1809	1.8090e+000	-2.3051	-43.297593
1810	1.8100e+000	-2.2935	-43.284616
1811	1.8110e+000	-2.2807	-43.262370
1812	1.8120e+000	-2.2704	-43.239196
1813	1.8130e+000	-2.2593	-43.208607
1814	1.8140e+000	-2.2475	-43.168749
1815	1.8150e+000	-2.2321	-43.129818
1816	1.8160e+000	-2.2205	-43.120549
1817	1.8170e+000	-2.2102	-43.088106
1818	1.8180e+000	-2.1992	-43.054736
1819	1.8190e+000	-2.1846	-43.051029
1820	1.8200e+000	-2.1727	-43.002828
1821	1.8210e+000	-2.1591	-42.994486
1822	1.8220e+000	-2.1489	-42.995412
1823	1.8230e+000	-2.1365	-42.961116
1824	1.8240e+000	-2.1256	-42.945358
1825	1.8250e+000	-2.1119	-42.907354
1826	1.8260e+000	-2.1012	-42.881399
1827	1.8270e+000	-2.0891	-42.873057
1828	1.8280e+000	-2.0781	-42.822076
1829	1.8290e+000	-2.0641	-42.779437
1830	1.8300e+000	-2.0530	-42.783144
1831	1.8310e+000	-2.0403	-42.751629
1832	1.8320e+000	-2.0283	-42.710843
1833	1.8330e+000	-2.0155	-42.685816
1834	1.8340e+000	-2.0026	-42.674693
1835	1.8350e+000	-1.9928	-42.646885
1836	1.8360e+000	-1.9818	-42.627419
1837	1.8370e+000	-1.9692	-42.590342
1838	1.8380e+000	-1.9554	-42.561607
1839	1.8390e+000	-1.9445	-42.562534
1840	1.8400e+000	-1.9331	-42.531945
1841	1.8410e+000	-1.9209	-42.506918
1842	1.8420e+000	-1.9090	-42.457790
1843	1.8430e+000	-1.8969	-42.442032
1844	1.8440e+000	-1.8839	-42.417932
1845	1.8450e+000	-1.8745	-42.349339
1846	1.8460e+000	-1.8615	-42.338216
1847	1.8470e+000	-1.8469	-42.326165
1848	1.8480e+000	-1.8372	-42.292796
1849	1.8490e+000	-1.8256	-42.277038
1850	1.8500e+000	-1.8142	-42.244595
1851	1.8510e+000	-1.8012	-42.200102
1852	1.8520e+000	-1.7889	-42.185271
1853	1.8530e+000	-1.7787	-42.173221
1854	1.8540e+000	-1.7635	-42.125948
1855	1.8550e+000	-1.7533	-42.083309
1856	1.8560e+000	-1.7411	-42.076820
1857	1.8570e+000	-1.7291	-42.048085
1858	1.8580e+000	-1.7162	-41.997104
1859	1.8590e+000	-1.7036	-41.962807
1860	1.8600e+000	-1.6929	-41.923876
1861	1.8610e+000	-1.6810	-41.903483
1862	1.8620e+000	-1.6700	-41.857136
1863	1.8630e+000	-1.6572	-41.819132
1864	1.8640e+000	-1.6428	-41.814497
1865	1.8650e+000	-1.6325	-41.759808
1866	1.8660e+000	-1.6212	-41.734781
1867	1.8670e+000	-1.6087	-41.706046
1868	1.8680e+000	-1.5978	-41.687507
1869	1.8690e+000	-1.5862	-41.669896
1870	1.8700e+000	-1.5724	-41.629110
1871	1.8710e+000	-1.5606	-41.579983
1872	1.8720e+000	-1.5498	-41.553102
1873	1.8730e+000	-1.5389	-41.474312
1874	1.8740e+000	-1.5249	-41.444650
1875	1.8750e+000	-1.5108	-41.409427
1876	1.8760e+000	-1.5007	-41.407573
1877	1.8770e+000	-1.4880	-41.332491
1878	1.8780e+000	-1.4767	-41.304683
1879	1.8790e+000	-1.4646	-41.290779
1880	1.8800e+000	-1.4518	-41.220332
1881	1.8810e+000	-1.4425	-41.202720
1882	1.8820e+000	-1.4297	-41.168424
1883	1.8830e+000	-1.4143	-41.094269
1884	1.8840e+000	-1.4046	-41.073876
1885	1.8850e+000	-1.3928	-41.036799
1886	1.8860e+000	-1.3798	-40.983964
1887	1.8870e+000	-1.3709	-40.930201
1888	1.8880e+000	-1.3551	-40.890343
1889	1.8890e+000	-1.3444	-40.845850
1890	1.8900e+000	-1.3308	-40.801358
1891	1.8910e+000	-1.3203	-40.736472
1892	1.8920e+000	-1.3077	-40.720714
1893	1.8930e+000	-1.2969	-40.653048
1894	1.8940e+000	-1.2862	-40.602067
1895	1.8950e+000	-1.2716	-40.549231
1896	1.8960e+000	-1.2610	-40.512154
1897	1.8970e+000	-1.2488	-40.499177
1898	1.8980e+000	-1.2370	-40.375894
1899	1.8990e+000	-1.2252	-40.323986
1900	1.9000e+000	-1.2143	-40.298959
1901	1.9010e+000	-1.2006	-40.216462
1902	1.9020e+000	-1.1882	-40.156211
1903	1.9030e+000	-1.1750	-40.105229
1904	1.9040e+000	-1.1673	-40.058883
1905	1.9050e+000	-1.1526	-40.005120
1906	1.9060e+000	-1.1420	-39.915208
1907	1.9070e+000	-1.1268	-39.854030
1908	1.9080e+000	-1.1160	-39.778948
1909	1.9090e+000	-1.1057	-39.696451
1910	1.9100e+000	-1.0899	-39.652885
1911	1.9110e+000	-1.0816	-39.559265
1912	1.9120e+000	-1.0696	-39.463790
1913	1.9130e+000	-1.0578	-39.403540
1914	1.9140e+000	-1.0460	-39.357193
1915	1.9150e+000	-1.0343	-39.266353
1916	1.9160e+000	-1.0202	-39.140290
1917	1.9170e+000	-1.0091	-39.087455
1918	1.9180e+000	-0.9977	-39.004031
1919	1.9190e+000	-0.9837	-38.904849
1920	1.9200e+000	-0.9724	-38.846452
1921	1.9210e+000	-0.9606	-38.741708
1922	1.9220e+000	-0.9489	-38.667553
1923	1.9230e+000	-0.9366	-38.573933
1924	1.9240e+000	-0.9237	-38.468262
1925	1.9250e+000	-0.9129	-38.387619
1926	1.9260e+000	-0.8995	-38.254140
1927	1.9270e+000	-0.8860	-38.170716
1928	1.9280e+000	-0.8744	-38.070607
1929	1.9290e+000	-0.8667	-37.951033
1930	1.9300e+000	-0.8533	-37.844435
1931	1.9310e+000	-0.8430	-37.732276
1932	1.9320e+000	-0.8287	-37.604359
1933	1.9330e+000	-0.8173	-37.531131
1934	1.9340e+000	-0.8042	-37.359648
1935	1.9350e+000	-0.7930	-37.252124
1936	1.9360e+000	-0.7832	-37.133476
1937	1.9370e+000	-0.7667	-37.009267
1938	1.9380e+000	-0.7568	-36.886911
1939	1.9390e+000	-0.7463	-36.750652
1940	1.9400e+000	-0.7320	-36.596781
1941	1.9410e+000	-0.7204	-36.467937
1942	1.9420e+000	-0.7085	-36.328897
1943	1.9430e+000	-0.6982	-36.165756
1944	1.9440e+000	-0.6861	-36.032277
1945	1.9450e+000	-0.6738	-35.872845
1946	1.9460e+000	-0.6597	-35.732877
1947	1.9470e+000	-0.6484	-35.568810
1948	1.9480e+000	-0.6387	-35.412158
1949	1.9490e+000	-0.6261	-35.266629
1950	1.9500e+000	-0.6112	-35.095146
1951	1.9510e+000	-0.6040	-34.943129
1952	1.9520e+000	-0.5898	-34.726226
1953	1.9530e+000	-0.5770	-34.590894
1954	1.9540e+000	-0.5643	-34.361941
1955	1.9550e+000	-0.5523	-34.200654
1956	1.9560e+000	-0.5419	-34.038440
1957	1.9570e+000	-0.5269	-33.841930
1958	1.9580e+000	-0.5167	-33.641712
1959	1.9590e+000	-0.5058	-33.466522
1960	1.9600e+000	-0.4917	-33.290404
1961	1.9610e+000	-0.4797	-33.074428
1962	1.9620e+000	-0.4681	-32.906653
1963	1.9630e+000	-0.4569	-32.725901
1964	1.9640e+000	-0.4449	-32.519194
1965	1.9650e+000	-0.4350	-32.313415
1966	1.9660e+000	-0.4194	-32.128954
1967	1.9670e+000	-0.4091	-31.931517
1968	1.9680e+000	-0.3964	-31.691441
1969	1.9690e+000	-0.3852	-31.510689
1970	1.9700e+000	-0.3730	-31.223339
1971	1.9710e+000	-0.3612	-31.032390
1972	1.9720e+000	-0.3499	-30.830319
1973	1.9730e+000	-0.3361	-30.636589
1974	1.9740e+000	-0.3256	-30.431737
1975	1.9750e+000	-0.3128	-30.194441
1976	1.9760e+000	-0.2991	-30.003493
1977	1.9770e+000	-0.2887	-29.776394
1978	1.9780e+000	-0.2747	-29.562272
1979	1.9790e+000	-0.2637	-29.352784
1980	1.9800e+000	-0.2534	-29.121051
1981	1.9810e+000	-0.2402	-28.937518
1982	1.9820e+000	-0.2265	-28.676122
1983	1.9830e+000	-0.2161	-28.444388
1984	1.9840e+000	-0.2051	-28.251586
1985	1.9850e+000	-0.1933	-28.000386
1986	1.9860e+000	-0.1797	-27.764018
1987	1.9870e+000	-0.1695	-27.560092
1988	1.9880e+000	-0.1553	-27.262546
1989	1.9890e+000	-0.1441	-27.060474
1990	1.9900e+000	-0.1313	-26.848206
1991	1.9910e+000	-0.1206	-26.614619
1992	1.9920e+000	-0.1083	-26.417182
1993	1.9930e+000	-0.0967	-26.150224
1994	1.9940e+000	-0.0854	-25.964837
1995	1.9950e+000	-0.0716	-25.766473
1996	1.9960e+000	-0.0606	-25.505078
1997	1.9970e+000	-0.0503	-25.281686
1998	1.9980e+000	-0.0340	-25.036975
1999	1.9990e+000	-0.0259	-24.828415
2000	2.0000e+000	-0.0134	-24.574435
2001	2.0010e+000	-0.0009	-24.315820

Center data before PMax,±Pr and ±Vc Calc.

PMax (µC/cm2):	4.43e+001
Pr (µC/cm2):	3.21e+001
-Pr (µC/cm2):	-2.43e+001
Vc:	1.23e+000
-Vc:	-7.63e-001
C (Max-Eff) (nF):	7.25e-002
Vert. (±Pr) Shift (µC/cm2):	3.87e+000
Horiz. Shift (±Vc):	2.34e-001
Offset (µC/cm2):	2.07e+001

A (Loop Area - µC/cm2·Volts):	1.45e+002



Hysteresis Version: 5.12.0 - Radiant Technologies, Inc., 1999 - 11/30/16

