»»»»»»»»»»»»»»»»»»»»»»»»»»»»»»»»»»»» Hysteresis ««««««««««««««««««««««««««««««««««««
»»»  Executed Version:	5.9.3
»»»  Vision Version:	5.9.8 (R)
»»»  Vision Compiled:	3/30/16
»»»  Driver Version:	5.9.8
»»»  Windows Version:	Windows 7
»»»  Processor Information:	x86 (AMD or Intel) - 2 Processors
»»»  Tester Name:	PMF0910-256
»»»  Tester S/N:	PMF0910-256
»»»  Internal Amp Type:	 RTI 100V      
»»»  Internal Amp S/N:	 iAB1-0000     
»»»  Execution Count:	1
»»»»»»»»»»»»»»»»»»»»»»»»»»»»»»»»»»»»»»»»»»««««««««««««««««««««««««««««««««««««««««««

Stored:	11/15/2016 - 8:22:18
Configured:	11/15/16 08:18:26 AM
Executed:	11/15/16 08:20:57 AM

»»»»»»»»»»»»»»»»»»»»»»»»»»»»»»»»»»» Sample Info ««««««««««««««««««««««««««««««««««««
Sample Name:	ba018b
Lot Name:	
Wafer Name:	
Die Row/Column:	1/1
Capacitor Number:	1
Sample Area (cm2):	1.23e-006
Sample Thickness (µm):	1.75e-001

Mux Loop Adjustment:	Disabled

Amplifier:	Internal

»»»»»»»»»»»»»»»»»»»»»»»»»»»»»»»»»»» Tester Info «««««««««««««««««««««««««««««««««««
Tester Name:	PMF0910-256
Tester Serial Number:	PMF0910-256
Return Signal Amp. Level:	16.67 [Index: 1]

»»»»»»»»»»»»»»»»»»»»»»»»»»»»»»»» Hysteresis Info ««««««««««««««««««««««««««««««««««
Task Name:	Hyst-1
Volts:	3.00
Field:	171.43 (kV/cm)
Hysteresis Period (ms):	2.00e+000
Preset:	Enabled
Preset Delay (ms):	1.00e+003
Profile:	Standard Bipolar

»»»»»»»»»»»»»»»»»»»»»»»»»»»»»»»»»»»»»» Data «««««««««««««««««««««««««««««««««««««««
Points:	2001

Valid Data

Point	Time (ms)	Drive Voltage	Measured Polarization
   1	1.0000e-003	-0.0037	-47.147684
   2	2.0000e-003	0.0037	-47.162516
   3	3.0000e-003	0.0089	-47.129145
   4	4.0000e-003	0.0156	-47.051279
   5	5.0000e-003	0.0199	-47.040156
   6	6.0000e-003	0.0272	-47.084650
   7	7.0000e-003	0.0308	-47.058695
   8	8.0000e-003	0.0386	-47.058695
   9	9.0000e-003	0.0471	-47.077234
  10	1.0000e-002	0.0507	-46.906671
  11	1.1000e-002	0.0550	-47.088358
  12	1.2000e-002	0.0631	-47.047571
  13	1.3000e-002	0.0672	-46.991953
  14	1.4000e-002	0.0738	-46.995661
  15	1.5000e-002	0.0790	-46.858469
  16	1.6000e-002	0.0851	-46.932627
  17	1.7000e-002	0.0910	-46.858469
  18	1.8000e-002	0.0997	-46.776895
  19	1.9000e-002	0.1040	-46.799143
  20	2.0000e-002	0.1098	-46.806558
  21	2.1000e-002	0.1171	-46.791727
  22	2.2000e-002	0.1222	-46.769480
  23	2.3000e-002	0.1289	-46.717569
  24	2.4000e-002	0.1344	-46.598917
  25	2.5000e-002	0.1385	-46.702738
  26	2.6000e-002	0.1460	-46.650827
  27	2.7000e-002	0.1519	-46.613748
  28	2.8000e-002	0.1590	-46.554422
  29	2.9000e-002	0.1626	-46.572961
  30	3.0000e-002	0.1701	-46.558130
  31	3.1000e-002	0.1761	-46.539590
  32	3.2000e-002	0.1826	-46.417230
  33	3.3000e-002	0.1893	-46.354196
  34	3.4000e-002	0.1958	-46.454309
  35	3.5000e-002	0.1980	-46.246667
  36	3.6000e-002	0.2079	-46.205880
  37	3.7000e-002	0.2144	-46.128014
  38	3.8000e-002	0.2204	-46.064980
  39	3.9000e-002	0.2220	-46.068688
  40	4.0000e-002	0.2322	-46.046441
  41	4.1000e-002	0.2373	-45.942620
  42	4.2000e-002	0.2435	-45.823967
  43	4.3000e-002	0.2484	-45.798012
  44	4.4000e-002	0.2546	-45.838799
  45	4.5000e-002	0.2592	-45.620033
  46	4.6000e-002	0.2650	-45.531044
  47	4.7000e-002	0.2724	-45.568123
  48	4.8000e-002	0.2795	-45.416099
  49	4.9000e-002	0.2860	-45.375313
  50	5.0000e-002	0.2894	-45.334526
  51	5.1000e-002	0.2994	-45.100929
  52	5.2000e-002	0.3026	-45.130592
  53	5.3000e-002	0.3099	-45.086097
  54	5.4000e-002	0.3156	-44.908118
  55	5.5000e-002	0.3223	-44.833961
  56	5.6000e-002	0.3240	-44.782050
  57	5.7000e-002	0.3300	-44.641150
  58	5.8000e-002	0.3382	-44.618903
  59	5.9000e-002	0.3435	-44.522498
  60	6.0000e-002	0.3482	-44.348227
  61	6.1000e-002	0.3577	-44.337103
  62	6.2000e-002	0.3632	-44.185080
  63	6.3000e-002	0.3677	-44.144293
  64	6.4000e-002	0.3743	-44.029348
  65	6.5000e-002	0.3810	-44.025640
  66	6.6000e-002	0.3863	-43.814291
  67	6.7000e-002	0.3925	-43.773504
  68	6.8000e-002	0.3963	-43.643728
  69	6.9000e-002	0.4041	-43.454625
  70	7.0000e-002	0.4092	-43.306310
  71	7.1000e-002	0.4153	-43.224736
  72	7.2000e-002	0.4234	-43.146870
  73	7.3000e-002	0.4285	-42.983723
  74	7.4000e-002	0.4324	-42.902150
  75	7.5000e-002	0.4411	-42.842823
  76	7.6000e-002	0.4492	-42.653721
  77	7.7000e-002	0.4504	-42.520237
  78	7.8000e-002	0.4579	-42.442371
  79	7.9000e-002	0.4664	-42.249561
  80	8.0000e-002	0.4721	-42.156863
  81	8.1000e-002	0.4754	-42.001132
  82	8.2000e-002	0.4848	-41.774951
  83	8.3000e-002	0.4879	-41.901019
  84	8.4000e-002	0.4962	-41.652590
  85	8.5000e-002	0.5006	-41.548769
  86	8.6000e-002	0.5065	-41.444948
  87	8.7000e-002	0.5125	-41.170565
  88	8.8000e-002	0.5190	-41.018541
  89	8.9000e-002	0.5247	-40.873933
  90	9.0000e-002	0.5316	-40.721910
  91	9.1000e-002	0.5359	-40.547639
  92	9.2000e-002	0.5439	-40.469773
  93	9.3000e-002	0.5475	-40.247300
  94	9.4000e-002	0.5533	-40.102692
  95	9.5000e-002	0.5590	-39.935837
  96	9.6000e-002	0.5662	-39.683700
  97	9.7000e-002	0.5717	-39.557632
  98	9.8000e-002	0.5761	-39.476059
  99	9.9000e-002	0.5843	-39.197967
 100	1.0000e-001	0.5910	-39.031112
 101	1.0100e-001	0.5947	-39.034820
 102	1.0200e-001	0.6015	-38.682570
 103	1.0300e-001	0.6089	-38.589873
 104	1.0400e-001	0.6139	-38.404478
 105	1.0500e-001	0.6194	-38.182005
 106	1.0600e-001	0.6275	-37.959531
 107	1.0700e-001	0.6336	-37.696271
 108	1.0800e-001	0.6371	-37.547955
 109	1.0900e-001	0.6446	-37.321774
 110	1.1000e-001	0.6503	-37.099301
 111	1.1100e-001	0.6567	-36.928738
 112	1.1200e-001	0.6628	-36.750759
 113	1.1300e-001	0.6704	-36.480083
 114	1.1400e-001	0.6741	-36.309520
 115	1.1500e-001	0.6808	-36.105586
 116	1.1600e-001	0.6890	-35.879405
 117	1.1700e-001	0.6926	-35.623560
 118	1.1800e-001	0.6993	-35.404794
 119	1.1900e-001	0.7060	-35.267603
 120	1.2000e-001	0.7111	-34.978387
 121	1.2100e-001	0.7171	-34.804116
 122	1.2200e-001	0.7223	-34.492653
 123	1.2300e-001	0.7290	-34.188606
 124	1.2400e-001	0.7361	-33.921638
 125	1.2500e-001	0.7415	-33.647254
 126	1.2600e-001	0.7454	-33.458152
 127	1.2700e-001	0.7509	-33.079947
 128	1.2800e-001	0.7605	-32.965002
 129	1.2900e-001	0.7626	-32.664663
 130	1.3000e-001	0.7712	-32.416235
 131	1.3100e-001	0.7771	-32.134435
 132	1.3200e-001	0.7832	-31.893422
 133	1.3300e-001	0.7882	-31.615330
 134	1.3400e-001	0.7969	-31.374317
 135	1.3500e-001	0.8000	-31.048023
 136	1.3600e-001	0.8066	-30.758807
 137	1.3700e-001	0.8128	-30.636447
 138	1.3800e-001	0.8175	-30.269366
 139	1.3900e-001	0.8265	-30.035769
 140	1.4000e-001	0.8313	-29.676103
 141	1.4100e-001	0.8371	-29.383180
 142	1.4200e-001	0.8435	-29.119920
 143	1.4300e-001	0.8485	-28.782502
 144	1.4400e-001	0.8571	-28.426544
 145	1.4500e-001	0.8598	-28.063171
 146	1.4600e-001	0.8657	-27.862945
 147	1.4700e-001	0.8732	-27.514403
 148	1.4800e-001	0.8789	-27.291930
 149	1.4900e-001	0.8839	-27.028669
 150	1.5000e-001	0.8905	-26.617094
 151	1.5100e-001	0.8979	-26.413160
 152	1.5200e-001	0.9024	-26.031247
 153	1.5300e-001	0.9077	-25.749447
 154	1.5400e-001	0.9158	-25.482479
 155	1.5500e-001	0.9196	-25.215511
 156	1.5600e-001	0.9264	-24.907756
 157	1.5700e-001	0.9319	-24.711238
 158	1.5800e-001	0.9386	-24.329325
 159	1.5900e-001	0.9473	-23.891794
 160	1.6000e-001	0.9515	-23.624826
 161	1.6100e-001	0.9579	-23.294823
 162	1.6200e-001	0.9634	-22.990776
 163	1.6300e-001	0.9676	-22.634819
 164	1.6400e-001	0.9747	-22.382682
 165	1.6500e-001	0.9797	-22.093467
 166	1.6600e-001	0.9872	-21.848746
 167	1.6700e-001	0.9944	-21.414923
 168	1.6800e-001	1.0004	-21.173910
 169	1.6900e-001	1.0046	-20.925481
 170	1.7000e-001	1.0100	-20.525029
 171	1.7100e-001	1.0180	-20.157948
 172	1.7200e-001	1.0220	-19.968845
 173	1.7300e-001	1.0291	-19.605472
 174	1.7400e-001	1.0365	-19.360751
 175	1.7500e-001	1.0409	-19.101199
 176	1.7600e-001	1.0469	-18.730410
 177	1.7700e-001	1.0522	-18.374452
 178	1.7800e-001	1.0583	-18.081529
 179	1.7900e-001	1.0656	-17.766358
 180	1.8000e-001	1.0694	-17.399277
 181	1.8100e-001	1.0758	-17.098938
 182	1.8200e-001	1.0838	-16.802307
 183	1.8300e-001	1.0883	-16.513091
 184	1.8400e-001	1.0966	-16.209044
 185	1.8500e-001	1.1011	-15.838255
 186	1.8600e-001	1.1044	-15.519377
 187	1.8700e-001	1.1117	-15.259824
 188	1.8800e-001	1.1186	-14.870496
 189	1.8900e-001	1.1243	-14.514538
 190	1.9000e-001	1.1292	-14.236446
 191	1.9100e-001	1.1380	-13.906444
 192	1.9200e-001	1.1430	-13.572734
 193	1.9300e-001	1.1510	-13.353968
 194	1.9400e-001	1.1552	-12.942393
 195	1.9500e-001	1.1595	-12.523401
 196	1.9600e-001	1.1658	-12.263849
 197	1.9700e-001	1.1733	-11.870812
 198	1.9800e-001	1.1787	-11.503731
 199	1.9900e-001	1.1855	-11.270134
 200	2.0000e-001	1.1930	-10.762153
 201	2.0100e-001	1.1953	-10.495185
 202	2.0200e-001	1.2051	-10.176306
 203	2.0300e-001	1.2080	-9.816641
 204	2.0400e-001	1.2152	-9.482931
 205	2.0500e-001	1.2196	-9.164052
 206	2.0600e-001	1.2252	-8.804387
 207	2.0700e-001	1.2334	-8.396519
 208	2.0800e-001	1.2406	-8.099887
 209	2.0900e-001	1.2452	-7.717975
 210	2.1000e-001	1.2503	-7.358309
 211	2.1100e-001	1.2576	-7.091341
 212	2.1200e-001	1.2617	-6.642686
 213	2.1300e-001	1.2663	-6.334931
 214	2.1400e-001	1.2743	-5.878861
 215	2.1500e-001	1.2814	-5.556274
 216	2.1600e-001	1.2861	-5.200317
 217	2.1700e-001	1.2906	-4.888854
 218	2.1800e-001	1.2965	-4.410536
 219	2.1900e-001	1.3049	-4.069410
 220	2.2000e-001	1.3101	-3.646711
 221	2.2100e-001	1.3148	-3.290753
 222	2.2200e-001	1.3245	-2.912548
 223	2.2300e-001	1.3275	-2.589962
 224	2.2400e-001	1.3330	-2.174678
 225	2.2500e-001	1.3383	-1.696360
 226	2.2600e-001	1.3493	-1.366358
 227	2.2700e-001	1.3512	-0.921411
 228	2.2800e-001	1.3594	-0.576577
 229	2.2900e-001	1.3652	-0.261406
 230	2.3000e-001	1.3696	0.172417
 231	2.3100e-001	1.3745	0.643319
 232	2.3200e-001	1.3821	1.043771
 233	2.3300e-001	1.3889	1.396021
 234	2.3400e-001	1.3943	1.885462
 235	2.3500e-001	1.4004	2.252544
 236	2.3600e-001	1.4053	2.697490
 237	2.3700e-001	1.4146	3.046032
 238	2.3800e-001	1.4204	3.468732
 239	2.3900e-001	1.4252	4.006376
 240	2.4000e-001	1.4307	4.314131
 241	2.4100e-001	1.4370	4.710875
 242	2.4200e-001	1.4426	5.170654
 243	2.4300e-001	1.4471	5.623016
 244	2.4400e-001	1.4552	6.045716
 245	2.4500e-001	1.4602	6.512910
 246	2.4600e-001	1.4672	6.865160
 247	2.4700e-001	1.4740	7.176622
 248	2.4800e-001	1.4767	7.743930
 249	2.4900e-001	1.4850	8.177753
 250	2.5000e-001	1.4916	8.648655
 251	2.5100e-001	1.4964	9.030568
 252	2.5200e-001	1.5024	9.564504
 253	2.5300e-001	1.5077	9.901922
 254	2.5400e-001	1.5141	10.539679
 255	2.5500e-001	1.5211	11.003166
 256	2.5600e-001	1.5270	11.440697
 257	2.5700e-001	1.5310	11.911599
 258	2.5800e-001	1.5382	12.363962
 259	2.5900e-001	1.5451	12.756998
 260	2.6000e-001	1.5500	13.302058
 261	2.6100e-001	1.5580	13.869365
 262	2.6200e-001	1.5623	14.373638
 263	2.6300e-001	1.5701	14.855664
 264	2.6400e-001	1.5743	15.319150
 265	2.6500e-001	1.5802	15.708479
 266	2.6600e-001	1.5865	16.320281
 267	2.6700e-001	1.5948	16.850509
 268	2.6800e-001	1.6003	17.466019
 269	2.6900e-001	1.6041	17.985124
 270	2.7000e-001	1.6106	18.496813
 271	2.7100e-001	1.6153	19.023333
 272	2.7200e-001	1.6245	19.609180
 273	2.7300e-001	1.6277	20.243229
 274	2.7400e-001	1.6349	20.869863
 275	2.7500e-001	1.6403	21.429754
 276	2.7600e-001	1.6436	22.004477
 277	2.7700e-001	1.6532	22.549537
 278	2.7800e-001	1.6578	23.246621
 279	2.7900e-001	1.6656	24.066065
 280	2.8000e-001	1.6686	24.637080
 281	2.8100e-001	1.6758	25.248882
 282	2.8200e-001	1.6811	25.882931
 283	2.8300e-001	1.6897	26.550351
 284	2.8400e-001	1.6946	27.247435
 285	2.8500e-001	1.7010	28.026092
 286	2.8600e-001	1.7062	28.826996
 287	2.8700e-001	1.7104	29.594530
 288	2.8800e-001	1.7192	30.321276
 289	2.8900e-001	1.7259	31.103641
 290	2.9000e-001	1.7307	31.945332
 291	2.9100e-001	1.7375	32.794439
 292	2.9200e-001	1.7414	33.669502
 293	2.9300e-001	1.7500	34.481530
 294	2.9400e-001	1.7561	35.289850
 295	2.9500e-001	1.7597	36.079631
 296	2.9600e-001	1.7657	37.047390
 297	2.9700e-001	1.7752	38.148634
 298	2.9800e-001	1.7775	38.860549
 299	2.9900e-001	1.7848	39.891342
 300	3.0000e-001	1.7899	40.692247
 301	3.0100e-001	1.7959	41.545062
 302	3.0200e-001	1.8027	42.546192
 303	3.0300e-001	1.8082	43.417546
 304	3.0400e-001	1.8185	44.429801
 305	3.0500e-001	1.8212	45.371605
 306	3.0600e-001	1.8279	46.242959
 307	3.0700e-001	1.8349	47.014200
 308	3.0800e-001	1.8388	47.930049
 309	3.0900e-001	1.8463	48.649380
 310	3.1000e-001	1.8512	49.446577
 311	3.1100e-001	1.8584	50.258605
 312	3.1200e-001	1.8604	50.814788
 313	3.1300e-001	1.8694	51.456253
 314	3.1400e-001	1.8752	51.916032
 315	3.1500e-001	1.8801	52.594576
 316	3.1600e-001	1.8865	52.876376
 317	3.1700e-001	1.8932	53.428851
 318	3.1800e-001	1.8988	53.658740
 319	3.1900e-001	1.9057	54.007282
 320	3.2000e-001	1.9108	54.240879
 321	3.2100e-001	1.9154	54.415150
 322	3.2200e-001	1.9219	54.804479
 323	3.2300e-001	1.9315	54.963918
 324	3.2400e-001	1.9347	55.067739
 325	3.2500e-001	1.9395	55.230886
 326	3.2600e-001	1.9463	55.382910
 327	3.2700e-001	1.9527	55.516394
 328	3.2800e-001	1.9589	55.620215
 329	3.2900e-001	1.9675	55.735159
 330	3.3000e-001	1.9722	55.824149
 331	3.3100e-001	1.9754	55.916846
 332	3.3200e-001	1.9833	55.998420
 333	3.3300e-001	1.9864	56.228309
 334	3.3400e-001	1.9962	56.232017
 335	3.3500e-001	2.0016	56.328422
 336	3.3600e-001	2.0084	56.409995
 337	3.3700e-001	2.0135	56.372916
 338	3.3800e-001	2.0193	56.454490
 339	3.3900e-001	2.0239	56.580558
 340	3.4000e-001	2.0313	56.606514
 341	3.4100e-001	2.0355	56.725166
 342	3.4200e-001	2.0418	56.806740
 343	3.4300e-001	2.0499	56.873482
 344	3.4400e-001	2.0568	57.018089
 345	3.4500e-001	2.0600	57.014382
 346	3.4600e-001	2.0682	57.088539
 347	3.4700e-001	2.0730	57.151574
 348	3.4800e-001	2.0784	57.177529
 349	3.4900e-001	2.0850	57.192360
 350	3.5000e-001	2.0894	57.188652
 351	3.5100e-001	2.0956	57.322137
 352	3.5200e-001	2.1041	57.459328
 353	3.5300e-001	2.1078	57.466744
 354	3.5400e-001	2.1147	57.440789
 355	3.5500e-001	2.1213	57.451913
 356	3.5600e-001	2.1303	57.511239
 357	3.5700e-001	2.1311	57.526071
 358	3.5800e-001	2.1382	57.681802
 359	3.5900e-001	2.1473	57.733712
 360	3.6000e-001	2.1521	57.826410
 361	3.6100e-001	2.1544	57.870904
 362	3.6200e-001	2.1634	57.941354
 363	3.6300e-001	2.1706	57.919107
 364	3.6400e-001	2.1743	58.063715
 365	3.6500e-001	2.1812	58.041467
 366	3.6600e-001	2.1886	58.022928
 367	3.6700e-001	2.1910	58.067423
 368	3.6800e-001	2.1993	58.115625
 369	3.6900e-001	2.2021	58.223154
 370	3.7000e-001	2.2108	58.289896
 371	3.7100e-001	2.2186	58.360346
 372	3.7200e-001	2.2242	58.334391
 373	3.7300e-001	2.2276	58.308435
 374	3.7400e-001	2.2346	58.293604
 375	3.7500e-001	2.2408	58.427088
 376	3.7600e-001	2.2475	58.527201
 377	3.7700e-001	2.2515	58.560572
 378	3.7800e-001	2.2570	58.579111
 379	3.7900e-001	2.2659	58.590235
 380	3.8000e-001	2.2719	58.679225
 381	3.8100e-001	2.2783	58.720011
 382	3.8200e-001	2.2839	58.875743
 383	3.8300e-001	2.2882	58.823832
 384	3.8400e-001	2.2931	58.797877
 385	3.8500e-001	2.2996	58.797877
 386	3.8600e-001	2.3066	58.838664
 387	3.8700e-001	2.3130	58.894282
 388	3.8800e-001	2.3174	58.953608
 389	3.8900e-001	2.3216	59.057429
 390	3.9000e-001	2.3306	59.072261
 391	3.9100e-001	2.3367	59.027766
 392	3.9200e-001	2.3453	59.068553
 393	3.9300e-001	2.3483	59.094508
 394	3.9400e-001	2.3560	59.198329
 395	3.9500e-001	2.3593	59.305858
 396	3.9600e-001	2.3659	59.239116
 397	3.9700e-001	2.3744	59.335521
 398	3.9800e-001	2.3806	59.376308
 399	3.9900e-001	2.3846	59.409679
 400	4.0000e-001	2.3918	59.472713
 401	4.0100e-001	2.3985	59.576534
 402	4.0200e-001	2.4048	59.509792
 403	4.0300e-001	2.4086	59.491253
 404	4.0400e-001	2.4154	59.480129
 405	4.0500e-001	2.4209	59.565410
 406	4.0600e-001	2.4254	59.609905
 407	4.0700e-001	2.4360	59.806423
 408	4.0800e-001	2.4394	59.698894
 409	4.0900e-001	2.4441	59.758221
 410	4.1000e-001	2.4508	59.739681
 411	4.1100e-001	2.4573	59.784176
 412	4.1200e-001	2.4627	59.887997
 413	4.1300e-001	2.4690	59.884289
 414	4.1400e-001	2.4770	59.947323
 415	4.1500e-001	2.4795	60.002942
 416	4.1600e-001	2.4873	59.984402
 417	4.1700e-001	2.4928	60.010357
 418	4.1800e-001	2.4987	60.143841
 419	4.1900e-001	2.5060	60.192044
 420	4.2000e-001	2.5110	60.177212
 421	4.2100e-001	2.5152	60.132718
 422	4.2200e-001	2.5246	60.180920
 423	4.2300e-001	2.5269	60.188336
 424	4.2400e-001	2.5362	60.284741
 425	4.2500e-001	2.5410	60.336652
 426	4.2600e-001	2.5476	60.421933
 427	4.2700e-001	2.5535	60.262494
 428	4.2800e-001	2.5578	60.295865
 429	4.2900e-001	2.5659	60.370023
 430	4.3000e-001	2.5719	60.440473
 431	4.3100e-001	2.5776	60.499799
 432	4.3200e-001	2.5828	60.522046
 433	4.3300e-001	2.5893	60.566541
 434	4.3400e-001	2.5932	60.548001
 435	4.3500e-001	2.6013	60.700025
 436	4.3600e-001	2.6089	60.740812
 437	4.3700e-001	2.6130	60.781599
 438	4.3800e-001	2.6187	60.789014
 439	4.3900e-001	2.6245	60.814970
 440	4.4000e-001	2.6293	60.777891
 441	4.4100e-001	2.6385	60.748228
 442	4.4200e-001	2.6430	60.896543
 443	4.4300e-001	2.6498	60.926206
 444	4.4400e-001	2.6546	60.959577
 445	4.4500e-001	2.6604	60.918791
 446	4.4600e-001	2.6665	60.911375
 447	4.4700e-001	2.6730	60.992948
 448	4.4800e-001	2.6793	61.015196
 449	4.4900e-001	2.6858	61.148680
 450	4.5000e-001	2.6906	60.948454
 451	4.5100e-001	2.6959	61.137556
 452	4.5200e-001	2.7061	61.170927
 453	4.5300e-001	2.7109	61.245085
 454	4.5400e-001	2.7164	61.315535
 455	4.5500e-001	2.7200	61.278456
 456	4.5600e-001	2.7279	61.326658
 457	4.5700e-001	2.7331	61.304411
 458	4.5800e-001	2.7390	61.278456
 459	4.5900e-001	2.7441	61.352614
 460	4.6000e-001	2.7533	61.393401
 461	4.6100e-001	2.7570	61.437895
 462	4.6200e-001	2.7641	61.497221
 463	4.6300e-001	2.7694	61.486098
 464	4.6400e-001	2.7734	61.512053
 465	4.6500e-001	2.7832	61.493514
 466	4.6600e-001	2.7859	61.608458
 467	4.6700e-001	2.7917	61.623290
 468	4.6800e-001	2.8018	61.456435
 469	4.6900e-001	2.8065	61.745650
 470	4.7000e-001	2.8121	61.652953
 471	4.7100e-001	2.8151	61.701155
 472	4.7200e-001	2.8223	61.834640
 473	4.7300e-001	2.8278	61.871718
 474	4.7400e-001	2.8345	61.871718
 475	4.7500e-001	2.8402	61.842055
 476	4.7600e-001	2.8474	61.767897
 477	4.7700e-001	2.8531	61.849471
 478	4.7800e-001	2.8606	61.971831
 479	4.7900e-001	2.8671	62.016326
 480	4.8000e-001	2.8701	61.994079
 481	4.8100e-001	2.8780	61.986663
 482	4.8200e-001	2.8833	61.968124
 483	4.8300e-001	2.8907	62.094192
 484	4.8400e-001	2.8938	62.116439
 485	4.8500e-001	2.9025	62.238800
 486	4.8600e-001	2.9079	62.153518
 487	4.8700e-001	2.9115	62.205429
 488	4.8800e-001	2.9202	62.153518
 489	4.8900e-001	2.9254	62.279586
 490	4.9000e-001	2.9305	62.275879
 491	4.9100e-001	2.9372	62.327789
 492	4.9200e-001	2.9430	62.431610
 493	4.9300e-001	2.9492	62.320373
 494	4.9400e-001	2.9543	62.257339
 495	4.9500e-001	2.9630	62.346328
 496	4.9600e-001	2.9679	62.439026
 497	4.9700e-001	2.9751	62.505768
 498	4.9800e-001	2.9782	62.531723
 499	4.9900e-001	2.9864	62.528015
 500	5.0000e-001	2.9903	62.483520
 501	5.0100e-001	2.9993	62.553970
 502	5.0200e-001	2.9934	62.602173
 503	5.0300e-001	2.9858	62.605881
 504	5.0400e-001	2.9800	62.642960
 505	5.0500e-001	2.9736	62.628128
 506	5.0600e-001	2.9686	62.557678
 507	5.0700e-001	2.9597	62.631836
 508	5.0800e-001	2.9549	62.642960
 509	5.0900e-001	2.9496	62.657791
 510	5.1000e-001	2.9425	62.705994
 511	5.1100e-001	2.9362	62.565094
 512	5.1200e-001	2.9308	62.561386
 513	5.1300e-001	2.9239	62.572510
 514	5.1400e-001	2.9183	62.609589
 515	5.1500e-001	2.9132	62.635544
 516	5.1600e-001	2.9062	62.613297
 517	5.1700e-001	2.8990	62.550262
 518	5.1800e-001	2.8971	62.520599
 519	5.1900e-001	2.8886	62.602173
 520	5.2000e-001	2.8831	62.587341
 521	5.2100e-001	2.8772	62.631836
 522	5.2200e-001	2.8706	62.683746
 523	5.2300e-001	2.8644	62.539139
 524	5.2400e-001	2.8595	62.487228
 525	5.2500e-001	2.8513	62.598465
 526	5.2600e-001	2.8461	62.646668
 527	5.2700e-001	2.8409	62.642960
 528	5.2800e-001	2.8366	62.598465
 529	5.2900e-001	2.8281	62.513184
 530	5.3000e-001	2.8233	62.468689
 531	5.3100e-001	2.8165	62.561386
 532	5.3200e-001	2.8140	62.572510
 533	5.3300e-001	2.8053	62.609589
 534	5.3400e-001	2.7991	62.542847
 535	5.3500e-001	2.7950	62.509476
 536	5.3600e-001	2.7888	62.483520
 537	5.3700e-001	2.7801	62.539139
 538	5.3800e-001	2.7752	62.439026
 539	5.3900e-001	2.7689	62.579926
 540	5.4000e-001	2.7615	62.550262
 541	5.4100e-001	2.7570	62.464981
 542	5.4200e-001	2.7535	62.468689
 543	5.4300e-001	2.7462	62.520599
 544	5.4400e-001	2.7396	62.468689
 545	5.4500e-001	2.7351	62.524307
 546	5.4600e-001	2.7271	62.546555
 547	5.4700e-001	2.7193	62.431610
 548	5.4800e-001	2.7165	62.387115
 549	5.4900e-001	2.7103	62.435318
 550	5.5000e-001	2.7031	62.442734
 551	5.5100e-001	2.6990	62.505768
 552	5.5200e-001	2.6898	62.450149
 553	5.5300e-001	2.6854	62.398239
 554	5.5400e-001	2.6806	62.350036
 555	5.5500e-001	2.6710	62.364868
 556	5.5600e-001	2.6672	62.375992
 557	5.5700e-001	2.6627	62.461273
 558	5.5800e-001	2.6557	62.502060
 559	5.5900e-001	2.6473	62.342621
 560	5.6000e-001	2.6422	62.268463
 561	5.6100e-001	2.6353	62.375992
 562	5.6200e-001	2.6322	62.368576
 563	5.6300e-001	2.6254	62.450149
 564	5.6400e-001	2.6173	62.461273
 565	5.6500e-001	2.6119	62.357452
 566	5.6600e-001	2.6057	62.223968
 567	5.6700e-001	2.6015	62.287002
 568	5.6800e-001	2.5948	62.316665
 569	5.6900e-001	2.5860	62.298126
 570	5.7000e-001	2.5845	62.294418
 571	5.7100e-001	2.5780	62.220260
 572	5.7200e-001	2.5715	62.198013
 573	5.7300e-001	2.5655	62.201721
 574	5.7400e-001	2.5584	62.220260
 575	5.7500e-001	2.5532	62.223968
 576	5.7600e-001	2.5470	62.353744
 577	5.7700e-001	2.5406	62.216552
 578	5.7800e-001	2.5347	62.149810
 579	5.7900e-001	2.5281	62.220260
 580	5.8000e-001	2.5244	62.168350
 581	5.8100e-001	2.5155	62.279586
 582	5.8200e-001	2.5088	62.290710
 583	5.8300e-001	2.5065	62.116439
 584	5.8400e-001	2.4986	62.090484
 585	5.8500e-001	2.4933	62.101608
 586	5.8600e-001	2.4888	62.101608
 587	5.8700e-001	2.4799	62.209136
 588	5.8800e-001	2.4727	62.060821
 589	5.8900e-001	2.4704	62.005202
 590	5.9000e-001	2.4599	62.086776
 591	5.9100e-001	2.4580	62.008910
 592	5.9200e-001	2.4498	62.086776
 593	5.9300e-001	2.4438	62.123855
 594	5.9400e-001	2.4417	62.086776
 595	5.9500e-001	2.4325	62.008910
 596	5.9600e-001	2.4271	61.971831
 597	5.9700e-001	2.4214	62.042281
 598	5.9800e-001	2.4148	62.005202
 599	5.9900e-001	2.4072	62.049697
 600	6.0000e-001	2.4014	62.005202
 601	6.0100e-001	2.3964	61.990371
 602	6.0200e-001	2.3904	61.864303
 603	6.0300e-001	2.3861	61.860595
 604	6.0400e-001	2.3766	61.916213
 605	6.0500e-001	2.3719	61.871718
 606	6.0600e-001	2.3653	61.860595
 607	6.0700e-001	2.3586	61.916213
 608	6.0800e-001	2.3539	61.808684
 609	6.0900e-001	2.3513	61.842055
 610	6.1000e-001	2.3440	61.853179
 611	6.1100e-001	2.3367	61.864303
 612	6.1200e-001	2.3315	61.890258
 613	6.1300e-001	2.3243	61.842055
 614	6.1400e-001	2.3174	61.771605
 615	6.1500e-001	2.3144	61.845763
 616	6.1600e-001	2.3080	61.793853
 617	6.1700e-001	2.3032	61.879134
 618	6.1800e-001	2.2949	61.816100
 619	6.1900e-001	2.2883	61.678908
 620	6.2000e-001	2.2821	61.656661
 621	6.2100e-001	2.2778	61.667784
 622	6.2200e-001	2.2694	61.756774
 623	6.2300e-001	2.2667	61.712279
 624	6.2400e-001	2.2581	61.638121
 625	6.2500e-001	2.2536	61.671492
 626	6.2600e-001	2.2470	61.567671
 627	6.2700e-001	2.2388	61.619582
 628	6.2800e-001	2.2343	61.630706
 629	6.2900e-001	2.2273	61.682616
 630	6.3000e-001	2.2227	61.649245
 631	6.3100e-001	2.2187	61.634413
 632	6.3200e-001	2.2119	61.575087
 633	6.3300e-001	2.2030	61.541716
 634	6.3400e-001	2.1988	61.556548
 635	6.3500e-001	2.1920	61.597335
 636	6.3600e-001	2.1858	61.534300
 637	6.3700e-001	2.1787	61.589919
 638	6.3800e-001	2.1739	61.504637
 639	6.3900e-001	2.1686	61.430479
 640	6.4000e-001	2.1632	61.512053
 641	6.4100e-001	2.1561	61.534300
 642	6.4200e-001	2.1493	61.408232
 643	6.4300e-001	2.1454	61.423064
 644	6.4400e-001	2.1400	61.426772
 645	6.4500e-001	2.1318	61.430479
 646	6.4600e-001	2.1258	61.411940
 647	6.4700e-001	2.1196	61.419356
 648	6.4800e-001	2.1158	61.397108
 649	6.4900e-001	2.1083	61.408232
 650	6.5000e-001	2.1029	61.304411
 651	6.5100e-001	2.0956	61.296995
 652	6.5200e-001	2.0926	61.426772
 653	6.5300e-001	2.0831	61.378569
 654	6.5400e-001	2.0790	61.382277
 655	6.5500e-001	2.0703	61.289580
 656	6.5600e-001	2.0677	61.248793
 657	6.5700e-001	2.0608	61.200590
 658	6.5800e-001	2.0557	61.282164
 659	6.5900e-001	2.0478	61.289580
 660	6.6000e-001	2.0441	61.130140
 661	6.6100e-001	2.0349	61.219130
 662	6.6200e-001	2.0301	61.141264
 663	6.6300e-001	2.0248	61.189467
 664	6.6400e-001	2.0185	61.141264
 665	6.6500e-001	2.0134	61.230253
 666	6.6600e-001	2.0076	61.204298
 667	6.6700e-001	2.0017	61.089353
 668	6.6800e-001	1.9921	61.093061
 669	6.6900e-001	1.9888	61.052275
 670	6.7000e-001	1.9825	61.126432
 671	6.7100e-001	1.9781	61.148680
 672	6.7200e-001	1.9727	61.104185
 673	6.7300e-001	1.9637	61.089353
 674	6.7400e-001	1.9585	60.978117
 675	6.7500e-001	1.9534	60.974409
 676	6.7600e-001	1.9453	61.026319
 677	6.7700e-001	1.9411	61.037443
 678	6.7800e-001	1.9343	60.900251
 679	6.7900e-001	1.9302	60.989240
 680	6.8000e-001	1.9227	60.952162
 681	6.8100e-001	1.9160	60.840925
 682	6.8200e-001	1.9106	60.970701
 683	6.8300e-001	1.9035	60.918791
 684	6.8400e-001	1.8989	60.929914
 685	6.8500e-001	1.8910	60.796430
 686	6.8600e-001	1.8876	60.777891
 687	6.8700e-001	1.8792	60.800138
 688	6.8800e-001	1.8750	60.896543
 689	6.8900e-001	1.8708	60.903959
 690	6.9000e-001	1.8619	60.878004
 691	6.9100e-001	1.8555	60.878004
 692	6.9200e-001	1.8517	60.722272
 693	6.9300e-001	1.8448	60.714857
 694	6.9400e-001	1.8387	60.796430
 695	6.9500e-001	1.8331	60.796430
 696	6.9600e-001	1.8263	60.718564
 697	6.9700e-001	1.8192	60.722272
 698	6.9800e-001	1.8163	60.636991
 699	6.9900e-001	1.8076	60.670362
 700	7.0000e-001	1.8033	60.696317
 701	7.0100e-001	1.7988	60.677778
 702	7.0200e-001	1.7912	60.666654
 703	7.0300e-001	1.7850	60.477552
 704	7.0400e-001	1.7790	60.618451
 705	7.0500e-001	1.7731	60.585080
 706	7.0600e-001	1.7664	60.614743
 707	7.0700e-001	1.7599	60.596204
 708	7.0800e-001	1.7533	60.685193
 709	7.0900e-001	1.7484	60.614743
 710	7.1000e-001	1.7421	60.481259
 711	7.1100e-001	1.7359	60.377438
 712	7.1200e-001	1.7295	60.514630
 713	7.1300e-001	1.7245	60.440473
 714	7.1400e-001	1.7184	60.459012
 715	7.1500e-001	1.7133	60.421933
 716	7.1600e-001	1.7078	60.329236
 717	7.1700e-001	1.7017	60.407102
 718	7.1800e-001	1.6954	60.381146
 719	7.1900e-001	1.6891	60.470136
 720	7.2000e-001	1.6845	60.358899
 721	7.2100e-001	1.6769	60.277325
 722	7.2200e-001	1.6687	60.318112
 723	7.2300e-001	1.6627	60.273618
 724	7.2400e-001	1.6574	60.355191
 725	7.2500e-001	1.6521	60.321820
 726	7.2600e-001	1.6470	60.306989
 727	7.2700e-001	1.6393	60.310696
 728	7.2800e-001	1.6344	60.166089
 729	7.2900e-001	1.6267	60.132718
 730	7.3000e-001	1.6222	60.199460
 731	7.3100e-001	1.6186	60.140133
 732	7.3200e-001	1.6102	60.184628
 733	7.3300e-001	1.6043	60.180920
 734	7.3400e-001	1.5978	60.095639
 735	7.3500e-001	1.5933	60.069684
 736	7.3600e-001	1.5866	60.088223
 737	7.3700e-001	1.5786	60.047436
 738	7.3800e-001	1.5745	60.047436
 739	7.3900e-001	1.5708	60.095639
 740	7.4000e-001	1.5630	60.014065
 741	7.4100e-001	1.5558	60.017773
 742	7.4200e-001	1.5500	60.021481
 743	7.4300e-001	1.5448	59.999234
 744	7.4400e-001	1.5379	60.051144
 745	7.4500e-001	1.5332	59.965863
 746	7.4600e-001	1.5268	59.862042
 747	7.4700e-001	1.5211	59.839794
 748	7.4800e-001	1.5141	59.921368
 749	7.4900e-001	1.5079	59.828671
 750	7.5000e-001	1.5019	59.906536
 751	7.5100e-001	1.4964	59.821255
 752	7.5200e-001	1.4911	59.799008
 753	7.5300e-001	1.4854	59.724850
 754	7.5400e-001	1.4779	59.765637
 755	7.5500e-001	1.4714	59.802715
 756	7.5600e-001	1.4671	59.784176
 757	7.5700e-001	1.4611	59.724850
 758	7.5800e-001	1.4547	59.724850
 759	7.5900e-001	1.4513	59.698894
 760	7.6000e-001	1.4410	59.702602
 761	7.6100e-001	1.4350	59.721142
 762	7.6200e-001	1.4324	59.698894
 763	7.6300e-001	1.4240	59.669231
 764	7.6400e-001	1.4182	59.591366
 765	7.6500e-001	1.4149	59.550579
 766	7.6600e-001	1.4055	59.732265
 767	7.6700e-001	1.4016	59.517208
 768	7.6800e-001	1.3958	59.595074
 769	7.6900e-001	1.3879	59.509792
 770	7.7000e-001	1.3817	59.450466
 771	7.7100e-001	1.3786	59.350353
 772	7.7200e-001	1.3710	59.420803
 773	7.7300e-001	1.3648	59.480129
 774	7.7400e-001	1.3560	59.469005
 775	7.7500e-001	1.3519	59.465297
 776	7.7600e-001	1.3473	59.376308
 777	7.7700e-001	1.3406	59.342937
 778	7.7800e-001	1.3377	59.391140
 779	7.7900e-001	1.3271	59.342937
 780	7.8000e-001	1.3222	59.383724
 781	7.8100e-001	1.3150	59.357769
 782	7.8200e-001	1.3098	59.220577
 783	7.8300e-001	1.3019	59.216869
 784	7.8400e-001	1.2959	59.383724
 785	7.8500e-001	1.2933	59.216869
 786	7.8600e-001	1.2850	59.224284
 787	7.8700e-001	1.2797	59.209453
 788	7.8800e-001	1.2720	59.142711
 789	7.8900e-001	1.2683	59.101924
 790	7.9000e-001	1.2611	59.053721
 791	7.9100e-001	1.2558	59.090800
 792	7.9200e-001	1.2518	59.087093
 793	7.9300e-001	1.2436	59.042598
 794	7.9400e-001	1.2384	58.923945
 795	7.9500e-001	1.2334	59.038890
 796	7.9600e-001	1.2264	59.050014
 797	7.9700e-001	1.2223	59.027766
 798	7.9800e-001	1.2140	58.964732
 799	7.9900e-001	1.2113	58.986979
 800	8.0000e-001	1.2024	58.909114
 801	8.0100e-001	1.1970	58.864619
 802	8.0200e-001	1.1923	58.790461
 803	8.0300e-001	1.1819	58.842372
 804	8.0400e-001	1.1797	58.816416
 805	8.0500e-001	1.1740	58.723719
 806	8.0600e-001	1.1648	58.731135
 807	8.0700e-001	1.1615	58.701472
 808	8.0800e-001	1.1535	58.720011
 809	8.0900e-001	1.1487	58.712596
 810	8.1000e-001	1.1411	58.771922
 811	8.1100e-001	1.1358	58.631022
 812	8.1200e-001	1.1308	58.571696
 813	8.1300e-001	1.1230	58.675517
 814	8.1400e-001	1.1188	58.712596
 815	8.1500e-001	1.1127	58.668101
 816	8.1600e-001	1.1069	58.579111
 817	8.1700e-001	1.1004	58.593943
 818	8.1800e-001	1.0961	58.519785
 819	8.1900e-001	1.0873	58.419672
 820	8.2000e-001	1.0801	58.390009
 821	8.2100e-001	1.0760	58.464167
 822	8.2200e-001	1.0715	58.497538
 823	8.2300e-001	1.0639	58.349222
 824	8.2400e-001	1.0572	58.326975
 825	8.2500e-001	1.0542	58.345514
 826	8.2600e-001	1.0479	58.267649
 827	8.2700e-001	1.0397	58.278772
 828	8.2800e-001	1.0361	58.315851
 829	8.2900e-001	1.0282	58.341806
 830	8.3000e-001	1.0219	58.200907
 831	8.3100e-001	1.0169	58.160120
 832	8.3200e-001	1.0110	58.256525
 833	8.3300e-001	1.0017	58.230570
 834	8.3400e-001	0.9985	58.219446
 835	8.3500e-001	0.9904	58.137872
 836	8.3600e-001	0.9839	58.100794
 837	8.3700e-001	0.9792	58.074838
 838	8.3800e-001	0.9743	57.967310
 839	8.3900e-001	0.9678	58.060007
 840	8.4000e-001	0.9627	58.056299
 841	8.4100e-001	0.9558	57.900567
 842	8.4200e-001	0.9509	57.870904
 843	8.4300e-001	0.9454	57.837533
 844	8.4400e-001	0.9399	57.844949
 845	8.4500e-001	0.9299	57.874612
 846	8.4600e-001	0.9269	57.904275
 847	8.4700e-001	0.9205	57.774499
 848	8.4800e-001	0.9144	57.741128
 849	8.4900e-001	0.9088	57.718881
 850	8.5000e-001	0.9023	57.755960
 851	8.5100e-001	0.8942	57.755960
 852	8.5200e-001	0.8907	57.774499
 853	8.5300e-001	0.8855	57.674386
 854	8.5400e-001	0.8770	57.666970
 855	8.5500e-001	0.8727	57.552026
 856	8.5600e-001	0.8679	57.437081
 857	8.5700e-001	0.8575	57.600228
 858	8.5800e-001	0.8553	57.622476
 859	8.5900e-001	0.8489	57.429665
 860	8.6000e-001	0.8419	57.422250
 861	8.6100e-001	0.8344	57.444497
 862	8.6200e-001	0.8292	57.377755
 863	8.6300e-001	0.8241	57.425957
 864	8.6400e-001	0.8197	57.396294
 865	8.6500e-001	0.8132	57.359215
 866	8.6600e-001	0.8052	57.236855
 867	8.6700e-001	0.7996	57.273934
 868	8.6800e-001	0.7906	57.192360
 869	8.6900e-001	0.7867	57.329552
 870	8.7000e-001	0.7819	57.314721
 871	8.7100e-001	0.7767	57.173821
 872	8.7200e-001	0.7693	57.173821
 873	8.7300e-001	0.7635	57.051460
 874	8.7400e-001	0.7557	56.966179
 875	8.7500e-001	0.7552	57.136742
 876	8.7600e-001	0.7456	57.003258
 877	8.7700e-001	0.7411	56.825279
 878	8.7800e-001	0.7359	56.958763
 879	8.7900e-001	0.7298	56.862358
 880	8.8000e-001	0.7239	56.880898
 881	8.8100e-001	0.7161	56.866066
 882	8.8200e-001	0.7113	56.832695
 883	8.8300e-001	0.7034	56.821571
 884	8.8400e-001	0.6987	56.625053
 885	8.8500e-001	0.6953	56.643593
 886	8.8600e-001	0.6891	56.680671
 887	8.8700e-001	0.6824	56.765953
 888	8.8800e-001	0.6755	56.699211
 889	8.8900e-001	0.6662	56.680671
 890	8.9000e-001	0.6638	56.580558
 891	8.9100e-001	0.6566	56.458198
 892	8.9200e-001	0.6499	56.417411
 893	8.9300e-001	0.6464	56.447074
 894	8.9400e-001	0.6378	56.487861
 895	8.9500e-001	0.6342	56.250556
 896	8.9600e-001	0.6263	56.309882
 897	8.9700e-001	0.6204	56.309882
 898	8.9800e-001	0.6139	56.194938
 899	8.9900e-001	0.6107	56.217185
 900	9.0000e-001	0.6011	56.280219
 901	9.0100e-001	0.5958	56.209769
 902	9.0200e-001	0.5886	56.102240
 903	9.0300e-001	0.5865	56.042914
 904	9.0400e-001	0.5772	56.005835
 905	9.0500e-001	0.5701	56.083701
 906	9.0600e-001	0.5651	56.105948
 907	9.0700e-001	0.5597	56.039206
 908	9.0800e-001	0.5549	55.976172
 909	9.0900e-001	0.5486	55.850104
 910	9.1000e-001	0.5406	55.727744
 911	9.1100e-001	0.5374	55.850104
 912	9.1200e-001	0.5289	55.805609
 913	9.1300e-001	0.5244	55.638754
 914	9.1400e-001	0.5182	55.586844
 915	9.1500e-001	0.5109	55.631338
 916	9.1600e-001	0.5074	55.516394
 917	9.1700e-001	0.5009	55.557181
 918	9.1800e-001	0.4933	55.505270
 919	9.1900e-001	0.4883	55.427404
 920	9.2000e-001	0.4819	55.323583
 921	9.2100e-001	0.4765	55.282797
 922	9.2200e-001	0.4710	55.275381
 923	9.2300e-001	0.4665	55.342123
 924	9.2400e-001	0.4574	55.338415
 925	9.2500e-001	0.4520	55.201223
 926	9.2600e-001	0.4437	55.078863
 927	9.2700e-001	0.4401	55.056615
 928	9.2800e-001	0.4337	54.878637
 929	9.2900e-001	0.4306	55.012121
 930	9.3000e-001	0.4221	54.971334
 931	9.3100e-001	0.4161	54.886052
 932	9.3200e-001	0.4103	54.767400
 933	9.3300e-001	0.4038	54.685826
 934	9.3400e-001	0.3992	54.615376
 935	9.3500e-001	0.3924	54.659871
 936	9.3600e-001	0.3868	54.645039
 937	9.3700e-001	0.3818	54.559758
 938	9.3800e-001	0.3770	54.329869
 939	9.3900e-001	0.3698	54.378071
 940	9.4000e-001	0.3618	54.340992
 941	9.4100e-001	0.3583	54.426274
 942	9.4200e-001	0.3490	54.355824
 943	9.4300e-001	0.3455	54.192677
 944	9.4400e-001	0.3368	54.170429
 945	9.4500e-001	0.3318	54.048069
 946	9.4600e-001	0.3264	53.892338
 947	9.4700e-001	0.3194	53.970203
 948	9.4800e-001	0.3151	53.855259
 949	9.4900e-001	0.3072	53.807056
 950	9.5000e-001	0.3043	53.695819
 951	9.5100e-001	0.2959	53.614246
 952	9.5200e-001	0.2917	53.536380
 953	9.5300e-001	0.2836	53.569751
 954	9.5400e-001	0.2785	53.510425
 955	9.5500e-001	0.2741	53.417728
 956	9.5600e-001	0.2681	53.143344
 957	9.5700e-001	0.2621	53.139636
 958	9.5800e-001	0.2544	53.161883
 959	9.5900e-001	0.2487	53.117388
 960	9.6000e-001	0.2421	53.113681
 961	9.6100e-001	0.2352	52.957949
 962	9.6200e-001	0.2311	52.813341
 963	9.6300e-001	0.2251	52.716936
 964	9.6400e-001	0.2194	52.616823
 965	9.6500e-001	0.2115	52.616823
 966	9.6600e-001	0.2065	52.472215
 967	9.6700e-001	0.2013	52.409181
 968	9.6800e-001	0.1938	52.227495
 969	9.6900e-001	0.1888	52.112550
 970	9.7000e-001	0.1842	52.008729
 971	9.7100e-001	0.1762	51.967942
 972	9.7200e-001	0.1736	51.893785
 973	9.7300e-001	0.1624	51.700974
 974	9.7400e-001	0.1559	51.641648
 975	9.7500e-001	0.1524	51.408051
 976	9.7600e-001	0.1473	51.270859
 977	9.7700e-001	0.1411	51.267151
 978	9.7800e-001	0.1302	51.137375
 979	9.7900e-001	0.1263	51.018722
 980	9.8000e-001	0.1220	50.881530
 981	9.8100e-001	0.1144	50.673888
 982	9.8200e-001	0.1097	50.455123
 983	9.8300e-001	0.1028	50.462539
 984	9.8400e-001	0.0991	50.258605
 985	9.8500e-001	0.0904	50.062086
 986	9.8600e-001	0.0878	49.872984
 987	9.8700e-001	0.0786	49.557813
 988	9.8800e-001	0.0723	49.487363
 989	9.8900e-001	0.0698	49.372419
 990	9.9000e-001	0.0610	49.138822
 991	9.9100e-001	0.0554	48.957135
 992	9.9200e-001	0.0525	48.786572
 993	9.9300e-001	0.0432	48.452862
 994	9.9400e-001	0.0385	48.304546
 995	9.9500e-001	0.0317	48.222973
 996	9.9600e-001	0.0277	48.011623
 997	9.9700e-001	0.0215	47.696452
 998	9.9800e-001	0.0113	47.444316
 999	9.9900e-001	0.0095	47.088358
1000	1.0000e+000	0.0030	46.877008
1001	1.0010e+000	-0.0043	46.836222
1002	1.0020e+000	-0.0089	46.409814
1003	1.0030e+000	-0.0161	46.205880
1004	1.0040e+000	-0.0201	45.820260
1005	1.0050e+000	-0.0277	45.493965
1006	1.0060e+000	-0.0327	45.138008
1007	1.0070e+000	-0.0395	44.941489
1008	1.0080e+000	-0.0435	44.637442
1009	1.0090e+000	-0.0524	44.340811
1010	1.0100e+000	-0.0568	44.010809
1011	1.0110e+000	-0.0622	43.491704
1012	1.0120e+000	-0.0701	43.198781
1013	1.0130e+000	-0.0732	42.824284
1014	1.0140e+000	-0.0807	42.505405
1015	1.0150e+000	-0.0861	42.175403
1016	1.0160e+000	-0.0925	41.730456
1017	1.0170e+000	-0.0987	41.255846
1018	1.0180e+000	-0.1051	40.825731
1019	1.0190e+000	-0.1104	40.536515
1020	1.0200e+000	-0.1181	40.028534
1021	1.0210e+000	-0.1231	39.502014
1022	1.0220e+000	-0.1270	39.031112
1023	1.0230e+000	-0.1361	38.504591
1024	1.0240e+000	-0.1402	38.026273
1025	1.0250e+000	-0.1458	37.607282
1026	1.0260e+000	-0.1533	37.080761
1027	1.0270e+000	-0.1572	36.591320
1028	1.0280e+000	-0.1648	36.090754
1029	1.0290e+000	-0.1710	35.415918
1030	1.0300e+000	-0.1778	34.900521
1031	1.0310e+000	-0.1813	34.540856
1032	1.0320e+000	-0.1883	33.869728
1033	1.0330e+000	-0.1976	33.320960
1034	1.0340e+000	-0.1998	32.835226
1035	1.0350e+000	-0.2069	32.075109
1036	1.0360e+000	-0.2148	31.585667
1037	1.0370e+000	-0.2171	31.007236
1038	1.0380e+000	-0.2250	30.551166
1039	1.0390e+000	-0.2311	29.854082
1040	1.0400e+000	-0.2359	29.264527
1041	1.0410e+000	-0.2440	28.593399
1042	1.0420e+000	-0.2505	28.003845
1043	1.0430e+000	-0.2538	27.499571
1044	1.0440e+000	-0.2608	26.906309
1045	1.0450e+000	-0.2673	26.339002
1046	1.0460e+000	-0.2729	25.716076
1047	1.0470e+000	-0.2776	24.963374
1048	1.0480e+000	-0.2840	24.455393
1049	1.0490e+000	-0.2917	23.947412
1050	1.0500e+000	-0.2975	23.254037
1051	1.0510e+000	-0.3039	22.738640
1052	1.0520e+000	-0.3089	22.134254
1053	1.0530e+000	-0.3145	21.437170
1054	1.0540e+000	-0.3201	20.847616
1055	1.0550e+000	-0.3265	20.239521
1056	1.0560e+000	-0.3355	19.683338
1057	1.0570e+000	-0.3407	19.153109
1058	1.0580e+000	-0.3437	18.530184
1059	1.0590e+000	-0.3509	17.944337
1060	1.0600e+000	-0.3563	17.351075
1061	1.0610e+000	-0.3635	16.887588
1062	1.0620e+000	-0.3691	16.194213
1063	1.0630e+000	-0.3738	15.660276
1064	1.0640e+000	-0.3800	15.137464
1065	1.0650e+000	-0.3880	14.410717
1066	1.0660e+000	-0.3917	13.884197
1067	1.0670e+000	-0.4006	13.513408
1068	1.0680e+000	-0.4054	12.845987
1069	1.0690e+000	-0.4111	12.249017
1070	1.0700e+000	-0.4160	11.737328
1071	1.0710e+000	-0.4243	11.114402
1072	1.0720e+000	-0.4272	10.558219
1073	1.0730e+000	-0.4359	10.016867
1074	1.0740e+000	-0.4417	9.564504
1075	1.0750e+000	-0.4447	9.052815
1076	1.0760e+000	-0.4523	8.441013
1077	1.0770e+000	-0.4591	7.955280
1078	1.0780e+000	-0.4652	7.410220
1079	1.0790e+000	-0.4717	6.968981
1080	1.0800e+000	-0.4770	6.464707
1081	1.0810e+000	-0.4824	6.030884
1082	1.0820e+000	-0.4889	5.456161
1083	1.0830e+000	-0.4953	4.833236
1084	1.0840e+000	-0.5017	4.477278
1085	1.0850e+000	-0.5101	4.125028
1086	1.0860e+000	-0.5122	3.568845
1087	1.0870e+000	-0.5195	3.168393
1088	1.0880e+000	-0.5239	2.675243
1089	1.0890e+000	-0.5290	2.096812
1090	1.0900e+000	-0.5376	1.696360
1091	1.0910e+000	-0.5424	1.188379
1092	1.0920e+000	-0.5502	0.791635
1093	1.0930e+000	-0.5554	0.472756
1094	1.0940e+000	-0.5612	-0.153877
1095	1.0950e+000	-0.5672	-0.558038
1096	1.0960e+000	-0.5731	-0.943658
1097	1.0970e+000	-0.5780	-1.314447
1098	1.0980e+000	-0.5849	-1.751978
1099	1.0990e+000	-0.5886	-2.067149
1100	1.1000e+000	-0.5969	-2.560299
1101	1.1010e+000	-0.6044	-3.008953
1102	1.1020e+000	-0.6106	-3.431653
1103	1.1030e+000	-0.6148	-3.728284
1104	1.1040e+000	-0.6211	-4.091657
1105	1.1050e+000	-0.6284	-4.499525
1106	1.1060e+000	-0.6322	-4.888854
1107	1.1070e+000	-0.6403	-5.252227
1108	1.1080e+000	-0.6441	-5.741669
1109	1.1090e+000	-0.6506	-6.090211
1110	1.1100e+000	-0.6567	-6.427629
1111	1.1110e+000	-0.6626	-6.757631
1112	1.1120e+000	-0.6723	-7.213701
1113	1.1130e+000	-0.6741	-7.521456
1114	1.1140e+000	-0.6822	-7.940448
1115	1.1150e+000	-0.6870	-8.214832
1116	1.1160e+000	-0.6949	-8.544834
1117	1.1170e+000	-0.6970	-8.871129
1118	1.1180e+000	-0.7063	-9.141805
1119	1.1190e+000	-0.7121	-9.690572
1120	1.1200e+000	-0.7176	-9.950125
1121	1.1210e+000	-0.7225	-10.191138
1122	1.1220e+000	-0.7308	-10.554511
1123	1.1230e+000	-0.7341	-10.851142
1124	1.1240e+000	-0.7398	-11.147773
1125	1.1250e+000	-0.7473	-11.577889
1126	1.1260e+000	-0.7536	-11.911599
1127	1.1270e+000	-0.7607	-12.234185
1128	1.1280e+000	-0.7655	-12.564188
1129	1.1290e+000	-0.7715	-12.760706
1130	1.1300e+000	-0.7773	-13.172282
1131	1.1310e+000	-0.7845	-13.465205
1132	1.1320e+000	-0.7875	-13.847118
1133	1.1330e+000	-0.7957	-14.151165
1134	1.1340e+000	-0.8006	-14.381054
1135	1.1350e+000	-0.8080	-14.685101
1136	1.1360e+000	-0.8131	-14.970609
1137	1.1370e+000	-0.8211	-15.356229
1138	1.1380e+000	-0.8262	-15.645445
1139	1.1390e+000	-0.8326	-15.845671
1140	1.1400e+000	-0.8366	-16.171965
1141	1.1410e+000	-0.8420	-16.331405
1142	1.1420e+000	-0.8479	-16.717025
1143	1.1430e+000	-0.8570	-17.024780
1144	1.1440e+000	-0.8617	-17.343659
1145	1.1450e+000	-0.8676	-17.684785
1146	1.1460e+000	-0.8707	-17.892427
1147	1.1470e+000	-0.8779	-18.196474
1148	1.1480e+000	-0.8860	-18.470858
1149	1.1490e+000	-0.8928	-18.778613
1150	1.1500e+000	-0.8964	-19.001086
1151	1.1510e+000	-0.9052	-19.319965
1152	1.1520e+000	-0.9079	-19.560977
1153	1.1530e+000	-0.9135	-19.794575
1154	1.1540e+000	-0.9218	-20.046711
1155	1.1550e+000	-0.9259	-20.458287
1156	1.1560e+000	-0.9324	-20.677053
1157	1.1570e+000	-0.9406	-20.884694
1158	1.1580e+000	-0.9435	-21.151663
1159	1.1590e+000	-0.9509	-21.396383
1160	1.1600e+000	-0.9578	-21.667059
1161	1.1610e+000	-0.9649	-21.982230
1162	1.1620e+000	-0.9683	-22.267738
1163	1.1630e+000	-0.9743	-22.590324
1164	1.1640e+000	-0.9808	-22.705269
1165	1.1650e+000	-0.9875	-23.068642
1166	1.1660e+000	-0.9961	-23.320779
1167	1.1670e+000	-1.0006	-23.602578
1168	1.1680e+000	-1.0063	-23.910333
1169	1.1690e+000	-1.0130	-24.184717
1170	1.1700e+000	-1.0184	-24.399775
1171	1.1710e+000	-1.0217	-24.611125
1172	1.1720e+000	-1.0281	-24.852138
1173	1.1730e+000	-1.0342	-25.178432
1174	1.1740e+000	-1.0435	-25.463939
1175	1.1750e+000	-1.0488	-25.701244
1176	1.1760e+000	-1.0522	-25.871807
1177	1.1770e+000	-1.0609	-26.105405
1178	1.1780e+000	-1.0653	-26.346417
1179	1.1790e+000	-1.0719	-26.609678
1180	1.1800e+000	-1.0782	-26.973051
1181	1.1810e+000	-1.0849	-27.243727
1182	1.1820e+000	-1.0899	-27.388335
1183	1.1830e+000	-1.0970	-27.629348
1184	1.1840e+000	-1.1021	-27.911147
1185	1.1850e+000	-1.1066	-28.159576
1186	1.1860e+000	-1.1147	-28.504410
1187	1.1870e+000	-1.1199	-28.797333
1188	1.1880e+000	-1.1270	-28.960480
1189	1.1890e+000	-1.1315	-29.175538
1190	1.1900e+000	-1.1391	-29.390596
1191	1.1910e+000	-1.1425	-29.750261
1192	1.1920e+000	-1.1475	-29.946779
1193	1.1930e+000	-1.1563	-30.280490
1194	1.1940e+000	-1.1626	-30.443637
1195	1.1950e+000	-1.1684	-30.640155
1196	1.1960e+000	-1.1761	-30.933078
1197	1.1970e+000	-1.1809	-31.207462
1198	1.1980e+000	-1.1871	-31.522633
1199	1.1990e+000	-1.1927	-31.785893
1200	1.2000e+000	-1.1993	-31.793309
1201	1.2010e+000	-1.2044	-32.149266
1202	1.2020e+000	-1.2112	-32.438482
1203	1.2030e+000	-1.2162	-32.749945
1204	1.2040e+000	-1.2226	-33.046576
1205	1.2050e+000	-1.2270	-33.295005
1206	1.2060e+000	-1.2331	-33.521186
1207	1.2070e+000	-1.2410	-33.743659
1208	1.2080e+000	-1.2465	-34.077370
1209	1.2090e+000	-1.2503	-34.411080
1210	1.2100e+000	-1.2586	-34.637261
1211	1.2110e+000	-1.2634	-34.945016
1212	1.2120e+000	-1.2679	-35.141534
1213	1.2130e+000	-1.2734	-35.389963
1214	1.2140e+000	-1.2821	-35.708842
1215	1.2150e+000	-1.2883	-36.005473
1216	1.2160e+000	-1.2933	-36.261317
1217	1.2170e+000	-1.2984	-36.654354
1218	1.2180e+000	-1.3046	-36.709972
1219	1.2190e+000	-1.3108	-37.069637
1220	1.2200e+000	-1.3165	-37.418179
1221	1.2210e+000	-1.3264	-37.785260
1222	1.2220e+000	-1.3291	-38.133802
1223	1.2230e+000	-1.3357	-38.556502
1224	1.2240e+000	-1.3406	-38.797515
1225	1.2250e+000	-1.3459	-39.060775
1226	1.2260e+000	-1.3531	-39.368530
1227	1.2270e+000	-1.3563	-39.909882
1228	1.2280e+000	-1.3653	-40.102692
1229	1.2290e+000	-1.3721	-40.506852
1230	1.2300e+000	-1.3759	-40.747865
1231	1.2310e+000	-1.3830	-41.059328
1232	1.2320e+000	-1.3901	-41.463488
1233	1.2330e+000	-1.3947	-41.808322
1234	1.2340e+000	-1.4027	-42.153156
1235	1.2350e+000	-1.4079	-42.724171
1236	1.2360e+000	-1.4119	-42.957768
1237	1.2370e+000	-1.4182	-43.198781
1238	1.2380e+000	-1.4241	-43.525075
1239	1.2390e+000	-1.4304	-43.944067
1240	1.2400e+000	-1.4378	-44.307440
1241	1.2410e+000	-1.4455	-44.848792
1242	1.2420e+000	-1.4478	-45.126884
1243	1.2430e+000	-1.4553	-45.334526
1244	1.2440e+000	-1.4616	-45.746102
1245	1.2450e+000	-1.4664	-46.161385
1246	1.2460e+000	-1.4717	-46.446893
1247	1.2470e+000	-1.4790	-46.862177
1248	1.2480e+000	-1.4838	-47.025324
1249	1.2490e+000	-1.4907	-47.329371
1250	1.2500e+000	-1.4961	-47.663081
1251	1.2510e+000	-1.5018	-48.030162
1252	1.2520e+000	-1.5102	-48.208141
1253	1.2530e+000	-1.5146	-48.623425
1254	1.2540e+000	-1.5202	-48.901517
1255	1.2550e+000	-1.5288	-49.016461
1256	1.2560e+000	-1.5328	-49.290845
1257	1.2570e+000	-1.5379	-49.568937
1258	1.2580e+000	-1.5437	-49.817366
1259	1.2590e+000	-1.5530	-50.073210
1260	1.2600e+000	-1.5565	-50.284560
1261	1.2610e+000	-1.5610	-50.347594
1262	1.2620e+000	-1.5688	-50.636810
1263	1.2630e+000	-1.5744	-50.785125
1264	1.2640e+000	-1.5824	-50.933441
1265	1.2650e+000	-1.5864	-51.215241
1266	1.2660e+000	-1.5909	-51.293106
1267	1.2670e+000	-1.5994	-51.396927
1268	1.2680e+000	-1.6042	-51.556366
1269	1.2690e+000	-1.6083	-51.700974
1270	1.2700e+000	-1.6161	-51.801087
1271	1.2710e+000	-1.6247	-52.075471
1272	1.2720e+000	-1.6299	-52.238618
1273	1.2730e+000	-1.6353	-52.197832
1274	1.2740e+000	-1.6410	-52.375810
1275	1.2750e+000	-1.6496	-52.576036
1276	1.2760e+000	-1.6543	-52.546373
1277	1.2770e+000	-1.6592	-52.783678
1278	1.2780e+000	-1.6650	-52.928286
1279	1.2790e+000	-1.6697	-52.846712
1280	1.2800e+000	-1.6766	-52.924578
1281	1.2810e+000	-1.6835	-53.098849
1282	1.2820e+000	-1.6891	-53.236041
1283	1.2830e+000	-1.6947	-53.395480
1284	1.2840e+000	-1.7007	-53.395480
1285	1.2850e+000	-1.7077	-53.439975
1286	1.2860e+000	-1.7136	-53.536380
1287	1.2870e+000	-1.7186	-53.606830
1288	1.2880e+000	-1.7239	-53.744022
1289	1.2890e+000	-1.7281	-53.922001
1290	1.2900e+000	-1.7360	-53.981327
1291	1.2910e+000	-1.7435	-53.985035
1292	1.2920e+000	-1.7494	-54.044361
1293	1.2930e+000	-1.7560	-54.211216
1294	1.2940e+000	-1.7602	-54.159306
1295	1.2950e+000	-1.7682	-54.396611
1296	1.2960e+000	-1.7738	-54.441105
1297	1.2970e+000	-1.7810	-54.418858
1298	1.2980e+000	-1.7829	-54.496724
1299	1.2990e+000	-1.7932	-54.544926
1300	1.3000e+000	-1.7955	-54.593129
1301	1.3010e+000	-1.8045	-54.711781
1302	1.3020e+000	-1.8093	-54.748860
1303	1.3030e+000	-1.8176	-54.715489
1304	1.3040e+000	-1.8215	-54.811895
1305	1.3050e+000	-1.8298	-54.930547
1306	1.3060e+000	-1.8323	-54.975042
1307	1.3070e+000	-1.8404	-55.156728
1308	1.3080e+000	-1.8461	-55.156728
1309	1.3090e+000	-1.8512	-55.178976
1310	1.3100e+000	-1.8579	-55.219762
1311	1.3110e+000	-1.8623	-55.423696
1312	1.3120e+000	-1.8697	-55.327291
1313	1.3130e+000	-1.8732	-55.483023
1314	1.3140e+000	-1.8810	-55.534933
1315	1.3150e+000	-1.8869	-55.486731
1316	1.3160e+000	-1.8922	-55.508978
1317	1.3170e+000	-1.9003	-55.642462
1318	1.3180e+000	-1.9048	-55.635046
1319	1.3190e+000	-1.9102	-55.831564
1320	1.3200e+000	-1.9173	-55.801901
1321	1.3210e+000	-1.9267	-55.805609
1322	1.3220e+000	-1.9282	-55.883475
1323	1.3230e+000	-1.9345	-55.909430
1324	1.3240e+000	-1.9417	-55.976172
1325	1.3250e+000	-1.9485	-56.072577
1326	1.3260e+000	-1.9529	-56.187522
1327	1.3270e+000	-1.9572	-56.131904
1328	1.3280e+000	-1.9656	-56.113364
1329	1.3290e+000	-1.9724	-56.309882
1330	1.3300e+000	-1.9756	-56.298759
1331	1.3310e+000	-1.9839	-56.358085
1332	1.3320e+000	-1.9903	-56.473030
1333	1.3330e+000	-1.9949	-56.447074
1334	1.3340e+000	-2.0022	-56.458198
1335	1.3350e+000	-2.0068	-56.517524
1336	1.3360e+000	-2.0125	-56.639885
1337	1.3370e+000	-2.0187	-56.728874
1338	1.3380e+000	-2.0249	-56.628761
1339	1.3390e+000	-2.0314	-56.736290
1340	1.3400e+000	-2.0396	-56.732582
1341	1.3410e+000	-2.0440	-56.795616
1342	1.3420e+000	-2.0511	-56.858650
1343	1.3430e+000	-2.0531	-56.951347
1344	1.3440e+000	-2.0618	-56.958763
1345	1.3450e+000	-2.0660	-56.969887
1346	1.3460e+000	-2.0751	-56.992134
1347	1.3470e+000	-2.0791	-57.151574
1348	1.3480e+000	-2.0838	-57.129326
1349	1.3490e+000	-2.0921	-57.262810
1350	1.3500e+000	-2.0994	-57.351800
1351	1.3510e+000	-2.1041	-57.266518
1352	1.3520e+000	-2.1134	-57.340676
1353	1.3530e+000	-2.1162	-57.370339
1354	1.3540e+000	-2.1200	-57.377755
1355	1.3550e+000	-2.1281	-57.466744
1356	1.3560e+000	-2.1330	-57.433373
1357	1.3570e+000	-2.1391	-57.429665
1358	1.3580e+000	-2.1457	-57.611352
1359	1.3590e+000	-2.1507	-57.577981
1360	1.3600e+000	-2.1581	-57.696633
1361	1.3610e+000	-2.1639	-57.770791
1362	1.3620e+000	-2.1696	-57.759668
1363	1.3630e+000	-2.1767	-57.755960
1364	1.3640e+000	-2.1816	-57.796747
1365	1.3650e+000	-2.1862	-57.874612
1366	1.3660e+000	-2.1928	-57.982141
1367	1.3670e+000	-2.2012	-57.978433
1368	1.3680e+000	-2.2057	-58.074838
1369	1.3690e+000	-2.2120	-58.060007
1370	1.3700e+000	-2.2166	-58.000681
1371	1.3710e+000	-2.2234	-58.045175
1372	1.3720e+000	-2.2301	-58.189783
1373	1.3730e+000	-2.2364	-58.263941
1374	1.3740e+000	-2.2406	-58.174951
1375	1.3750e+000	-2.2452	-58.282480
1376	1.3760e+000	-2.2544	-58.301020
1377	1.3770e+000	-2.2598	-58.349222
1378	1.3780e+000	-2.2638	-58.352930
1379	1.3790e+000	-2.2715	-58.490122
1380	1.3800e+000	-2.2768	-58.545740
1381	1.3810e+000	-2.2821	-58.482706
1382	1.3820e+000	-2.2903	-58.501246
1383	1.3830e+000	-2.2939	-58.579111
1384	1.3840e+000	-2.3015	-58.664393
1385	1.3850e+000	-2.3076	-58.757090
1386	1.3860e+000	-2.3119	-58.794169
1387	1.3870e+000	-2.3198	-58.760798
1388	1.3880e+000	-2.3270	-58.753382
1389	1.3890e+000	-2.3335	-58.786753
1390	1.3900e+000	-2.3370	-58.864619
1391	1.3910e+000	-2.3449	-58.942485
1392	1.3920e+000	-2.3514	-58.879451
1393	1.3930e+000	-2.3579	-58.968440
1394	1.3940e+000	-2.3619	-58.961024
1395	1.3950e+000	-2.3663	-59.042598
1396	1.3960e+000	-2.3711	-59.079677
1397	1.3970e+000	-2.3792	-59.157542
1398	1.3980e+000	-2.3850	-59.190913
1399	1.3990e+000	-2.3914	-59.142711
1400	1.4000e+000	-2.3959	-59.227992
1401	1.4010e+000	-2.4034	-59.205745
1402	1.4020e+000	-2.4094	-59.309566
1403	1.4030e+000	-2.4171	-59.380016
1404	1.4040e+000	-2.4197	-59.431926
1405	1.4050e+000	-2.4297	-59.461589
1406	1.4060e+000	-2.4332	-59.402263
1407	1.4070e+000	-2.4395	-59.402263
1408	1.4080e+000	-2.4436	-59.613613
1409	1.4090e+000	-2.4503	-59.632152
1410	1.4100e+000	-2.4579	-59.546871
1411	1.4110e+000	-2.4650	-59.624737
1412	1.4120e+000	-2.4692	-59.595074
1413	1.4130e+000	-2.4765	-59.661816
1414	1.4140e+000	-2.4814	-59.728558
1415	1.4150e+000	-2.4883	-59.817547
1416	1.4160e+000	-2.4923	-59.899121
1417	1.4170e+000	-2.4992	-59.858334
1418	1.4180e+000	-2.5043	-59.913952
1419	1.4190e+000	-2.5121	-59.869457
1420	1.4200e+000	-2.5173	-59.965863
1421	1.4210e+000	-2.5227	-60.062268
1422	1.4220e+000	-2.5293	-60.043728
1423	1.4230e+000	-2.5359	-60.103055
1424	1.4240e+000	-2.5413	-60.040020
1425	1.4250e+000	-2.5484	-60.110470
1426	1.4260e+000	-2.5510	-60.236539
1427	1.4270e+000	-2.5610	-60.240247
1428	1.4280e+000	-2.5657	-60.258786
1429	1.4290e+000	-2.5710	-60.243954
1430	1.4300e+000	-2.5775	-60.188336
1431	1.4310e+000	-2.5838	-60.288449
1432	1.4320e+000	-2.5897	-60.321820
1433	1.4330e+000	-2.5964	-60.466428
1434	1.4340e+000	-2.6023	-60.466428
1435	1.4350e+000	-2.6086	-60.366315
1436	1.4360e+000	-2.6128	-60.522046
1437	1.4370e+000	-2.6188	-60.418225
1438	1.4380e+000	-2.6256	-60.533170
1439	1.4390e+000	-2.6329	-60.636991
1440	1.4400e+000	-2.6353	-60.688901
1441	1.4410e+000	-2.6414	-60.696317
1442	1.4420e+000	-2.6481	-60.700025
1443	1.4430e+000	-2.6548	-60.674070
1444	1.4440e+000	-2.6626	-60.763059
1445	1.4450e+000	-2.6649	-60.844633
1446	1.4460e+000	-2.6732	-60.848341
1447	1.4470e+000	-2.6765	-60.785306
1448	1.4480e+000	-2.6862	-60.863172
1449	1.4490e+000	-2.6929	-60.818677
1450	1.4500e+000	-2.6981	-60.955869
1451	1.4510e+000	-2.7050	-61.033735
1452	1.4520e+000	-2.7110	-61.033735
1453	1.4530e+000	-2.7158	-60.963285
1454	1.4540e+000	-2.7259	-61.119017
1455	1.4550e+000	-2.7268	-61.074522
1456	1.4560e+000	-2.7309	-61.204298
1457	1.4570e+000	-2.7381	-61.241377
1458	1.4580e+000	-2.7480	-61.308119
1459	1.4590e+000	-2.7533	-61.326658
1460	1.4600e+000	-2.7580	-61.345198
1461	1.4610e+000	-2.7637	-61.230253
1462	1.4620e+000	-2.7721	-61.374861
1463	1.4630e+000	-2.7749	-61.463850
1464	1.4640e+000	-2.7801	-61.382277
1465	1.4650e+000	-2.7845	-61.441603
1466	1.4660e+000	-2.7915	-61.452727
1467	1.4670e+000	-2.8004	-61.463850
1468	1.4680e+000	-2.8059	-61.530592
1469	1.4690e+000	-2.8124	-61.630706
1470	1.4700e+000	-2.8177	-61.734526
1471	1.4710e+000	-2.8247	-61.597335
1472	1.4720e+000	-2.8294	-61.730819
1473	1.4730e+000	-2.8353	-61.623290
1474	1.4740e+000	-2.8408	-61.734526
1475	1.4750e+000	-2.8474	-61.786437
1476	1.4760e+000	-2.8541	-61.931045
1477	1.4770e+000	-2.8574	-61.897674
1478	1.4780e+000	-2.8622	-61.912505
1479	1.4790e+000	-2.8716	-61.882842
1480	1.4800e+000	-2.8798	-61.919921
1481	1.4810e+000	-2.8806	-61.994079
1482	1.4820e+000	-2.8893	-61.979247
1483	1.4830e+000	-2.8951	-62.012618
1484	1.4840e+000	-2.8999	-62.023742
1485	1.4850e+000	-2.9086	-62.008910
1486	1.4860e+000	-2.9137	-62.079360
1487	1.4870e+000	-2.9189	-62.194305
1488	1.4880e+000	-2.9233	-62.235092
1489	1.4890e+000	-2.9329	-62.227676
1490	1.4900e+000	-2.9359	-62.309250
1491	1.4910e+000	-2.9422	-62.179473
1492	1.4920e+000	-2.9501	-62.342621
1493	1.4930e+000	-2.9543	-62.413070
1494	1.4940e+000	-2.9628	-62.479813
1495	1.4950e+000	-2.9668	-62.457565
1496	1.4960e+000	-2.9736	-62.457565
1497	1.4970e+000	-2.9829	-62.416778
1498	1.4980e+000	-2.9855	-62.583633
1499	1.4990e+000	-2.9911	-62.516891
1500	1.5000e+000	-2.9994	-62.594757
1501	1.5010e+000	-3.0035	-62.587341
1502	1.5020e+000	-2.9983	-62.550262
1503	1.5030e+000	-2.9904	-62.505768
1504	1.5040e+000	-2.9858	-62.557678
1505	1.5050e+000	-2.9799	-62.680039
1506	1.5060e+000	-2.9730	-62.705994
1507	1.5070e+000	-2.9685	-62.672623
1508	1.5080e+000	-2.9625	-62.635544
1509	1.5090e+000	-2.9542	-62.542847
1510	1.5100e+000	-2.9498	-62.613297
1511	1.5110e+000	-2.9452	-62.642960
1512	1.5120e+000	-2.9382	-62.628128
1513	1.5130e+000	-2.9319	-62.657791
1514	1.5140e+000	-2.9249	-62.613297
1515	1.5150e+000	-2.9195	-62.568802
1516	1.5160e+000	-2.9127	-62.661499
1517	1.5170e+000	-2.9057	-62.598465
1518	1.5180e+000	-2.9033	-62.568802
1519	1.5190e+000	-2.8965	-62.494644
1520	1.5200e+000	-2.8895	-62.505768
1521	1.5210e+000	-2.8840	-62.505768
1522	1.5220e+000	-2.8789	-62.468689
1523	1.5230e+000	-2.8715	-62.602173
1524	1.5240e+000	-2.8649	-62.654083
1525	1.5250e+000	-2.8613	-62.594757
1526	1.5260e+000	-2.8547	-62.546555
1527	1.5270e+000	-2.8500	-62.435318
1528	1.5280e+000	-2.8413	-62.509476
1529	1.5290e+000	-2.8362	-62.528015
1530	1.5300e+000	-2.8278	-62.546555
1531	1.5310e+000	-2.8249	-62.505768
1532	1.5320e+000	-2.8186	-62.513184
1533	1.5330e+000	-2.8131	-62.450149
1534	1.5340e+000	-2.8048	-62.468689
1535	1.5350e+000	-2.8025	-62.457565
1536	1.5360e+000	-2.7927	-62.461273
1537	1.5370e+000	-2.7888	-62.383407
1538	1.5380e+000	-2.7811	-62.424194
1539	1.5390e+000	-2.7744	-62.424194
1540	1.5400e+000	-2.7699	-62.342621
1541	1.5410e+000	-2.7665	-62.453857
1542	1.5420e+000	-2.7573	-62.513184
1543	1.5430e+000	-2.7516	-62.427902
1544	1.5440e+000	-2.7480	-62.427902
1545	1.5450e+000	-2.7407	-62.350036
1546	1.5460e+000	-2.7322	-62.401947
1547	1.5470e+000	-2.7265	-62.368576
1548	1.5480e+000	-2.7207	-62.450149
1549	1.5490e+000	-2.7161	-62.346328
1550	1.5500e+000	-2.7096	-62.368576
1551	1.5510e+000	-2.7055	-62.387115
1552	1.5520e+000	-2.6963	-62.290710
1553	1.5530e+000	-2.6904	-62.327789
1554	1.5540e+000	-2.6870	-62.361160
1555	1.5550e+000	-2.6804	-62.209136
1556	1.5560e+000	-2.6717	-62.227676
1557	1.5570e+000	-2.6686	-62.242507
1558	1.5580e+000	-2.6653	-62.201721
1559	1.5590e+000	-2.6564	-62.235092
1560	1.5600e+000	-2.6498	-62.335205
1561	1.5610e+000	-2.6450	-62.283294
1562	1.5620e+000	-2.6365	-62.216552
1563	1.5630e+000	-2.6292	-62.205429
1564	1.5640e+000	-2.6254	-62.205429
1565	1.5650e+000	-2.6188	-62.201721
1566	1.5660e+000	-2.6142	-62.249923
1567	1.5670e+000	-2.6076	-62.190597
1568	1.5680e+000	-2.6019	-62.179473
1569	1.5690e+000	-2.5965	-62.179473
1570	1.5700e+000	-2.5880	-62.042281
1571	1.5710e+000	-2.5872	-62.157226
1572	1.5720e+000	-2.5773	-62.212844
1573	1.5730e+000	-2.5717	-62.097900
1574	1.5740e+000	-2.5664	-62.109023
1575	1.5750e+000	-2.5623	-62.057113
1576	1.5760e+000	-2.5531	-62.049697
1577	1.5770e+000	-2.5491	-62.060821
1578	1.5780e+000	-2.5407	-62.190597
1579	1.5790e+000	-2.5341	-62.090484
1580	1.5800e+000	-2.5315	-62.079360
1581	1.5810e+000	-2.5236	-62.027450
1582	1.5820e+000	-2.5154	-62.131271
1583	1.5830e+000	-2.5120	-62.008910
1584	1.5840e+000	-2.5047	-62.060821
1585	1.5850e+000	-2.4993	-61.990371
1586	1.5860e+000	-2.4946	-61.971831
1587	1.5870e+000	-2.4850	-61.975539
1588	1.5880e+000	-2.4824	-61.912505
1589	1.5890e+000	-2.4747	-61.979247
1590	1.5900e+000	-2.4683	-61.986663
1591	1.5910e+000	-2.4632	-61.868011
1592	1.5920e+000	-2.4562	-61.905089
1593	1.5930e+000	-2.4495	-61.823516
1594	1.5940e+000	-2.4475	-61.779021
1595	1.5950e+000	-2.4400	-61.893966
1596	1.5960e+000	-2.4322	-61.945876
1597	1.5970e+000	-2.4274	-61.923629
1598	1.5980e+000	-2.4210	-61.842055
1599	1.5990e+000	-2.4139	-61.790145
1600	1.6000e+000	-2.4084	-61.912505
1601	1.6010e+000	-2.4023	-61.812392
1602	1.6020e+000	-2.3984	-61.890258
1603	1.6030e+000	-2.3933	-61.845763
1604	1.6040e+000	-2.3868	-61.771605
1605	1.6050e+000	-2.3795	-61.734526
1606	1.6060e+000	-2.3720	-61.686324
1607	1.6070e+000	-2.3676	-61.712279
1608	1.6080e+000	-2.3624	-61.767897
1609	1.6090e+000	-2.3549	-61.615874
1610	1.6100e+000	-2.3515	-61.623290
1611	1.6110e+000	-2.3428	-61.667784
1612	1.6120e+000	-2.3379	-61.560256
1613	1.6130e+000	-2.3309	-61.597335
1614	1.6140e+000	-2.3227	-61.727111
1615	1.6150e+000	-2.3209	-61.686324
1616	1.6160e+000	-2.3136	-61.641829
1617	1.6170e+000	-2.3090	-61.664077
1618	1.6180e+000	-2.3025	-61.641829
1619	1.6190e+000	-2.2976	-61.575087
1620	1.6200e+000	-2.2914	-61.671492
1621	1.6210e+000	-2.2852	-61.549132
1622	1.6220e+000	-2.2770	-61.563963
1623	1.6230e+000	-2.2729	-61.504637
1624	1.6240e+000	-2.2678	-61.400816
1625	1.6250e+000	-2.2585	-61.512053
1626	1.6260e+000	-2.2532	-61.489806
1627	1.6270e+000	-2.2485	-61.363737
1628	1.6280e+000	-2.2408	-61.426772
1629	1.6290e+000	-2.2358	-61.304411
1630	1.6300e+000	-2.2305	-61.426772
1631	1.6310e+000	-2.2227	-61.419356
1632	1.6320e+000	-2.2169	-61.463850
1633	1.6330e+000	-2.2113	-61.460143
1634	1.6340e+000	-2.2043	-61.326658
1635	1.6350e+000	-2.1992	-61.371153
1636	1.6360e+000	-2.1918	-61.445311
1637	1.6370e+000	-2.1890	-61.371153
1638	1.6380e+000	-2.1817	-61.341490
1639	1.6390e+000	-2.1745	-61.319243
1640	1.6400e+000	-2.1689	-61.334074
1641	1.6410e+000	-2.1650	-61.204298
1642	1.6420e+000	-2.1567	-61.204298
1643	1.6430e+000	-2.1511	-61.215422
1644	1.6440e+000	-2.1442	-61.230253
1645	1.6450e+000	-2.1404	-61.208006
1646	1.6460e+000	-2.1355	-61.093061
1647	1.6470e+000	-2.1293	-61.133848
1648	1.6480e+000	-2.1213	-61.078230
1649	1.6490e+000	-2.1160	-61.163511
1650	1.6500e+000	-2.1098	-61.200590
1651	1.6510e+000	-2.1021	-61.170927
1652	1.6520e+000	-2.0958	-61.055982
1653	1.6530e+000	-2.0903	-61.067106
1654	1.6540e+000	-2.0843	-61.015196
1655	1.6550e+000	-2.0785	-61.078230
1656	1.6560e+000	-2.0759	-61.111601
1657	1.6570e+000	-2.0683	-61.059690
1658	1.6580e+000	-2.0596	-61.078230
1659	1.6590e+000	-2.0547	-60.937330
1660	1.6600e+000	-2.0512	-60.922498
1661	1.6610e+000	-2.0444	-61.037443
1662	1.6620e+000	-2.0369	-61.000364
1663	1.6630e+000	-2.0309	-60.859464
1664	1.6640e+000	-2.0239	-60.889127
1665	1.6650e+000	-2.0209	-60.829801
1666	1.6660e+000	-2.0128	-60.822385
1667	1.6670e+000	-2.0061	-60.807554
1668	1.6680e+000	-1.9998	-60.878004
1669	1.6690e+000	-1.9947	-60.885419
1670	1.6700e+000	-1.9888	-60.829801
1671	1.6710e+000	-1.9831	-60.751935
1672	1.6720e+000	-1.9778	-60.818677
1673	1.6730e+000	-1.9706	-60.792722
1674	1.6740e+000	-1.9657	-60.748228
1675	1.6750e+000	-1.9578	-60.811262
1676	1.6760e+000	-1.9539	-60.755643
1677	1.6770e+000	-1.9468	-60.618451
1678	1.6780e+000	-1.9407	-60.692609
1679	1.6790e+000	-1.9380	-60.725980
1680	1.6800e+000	-1.9310	-60.644407
1681	1.6810e+000	-1.9250	-60.629575
1682	1.6820e+000	-1.9186	-60.536878
1683	1.6830e+000	-1.9122	-60.484967
1684	1.6840e+000	-1.9025	-60.462720
1685	1.6850e+000	-1.9001	-60.499799
1686	1.6860e+000	-1.8934	-60.588788
1687	1.6870e+000	-1.8847	-60.629575
1688	1.6880e+000	-1.8836	-60.473844
1689	1.6890e+000	-1.8758	-60.510923
1690	1.6900e+000	-1.8706	-60.429349
1691	1.6910e+000	-1.8629	-60.488675
1692	1.6920e+000	-1.8536	-60.466428
1693	1.6930e+000	-1.8488	-60.473844
1694	1.6940e+000	-1.8456	-60.462720
1695	1.6950e+000	-1.8400	-60.399686
1696	1.6960e+000	-1.8311	-60.340360
1697	1.6970e+000	-1.8277	-60.366315
1698	1.6980e+000	-1.8220	-60.325528
1699	1.6990e+000	-1.8131	-60.329236
1700	1.7000e+000	-1.8068	-60.310696
1701	1.7010e+000	-1.8025	-60.214291
1702	1.7020e+000	-1.7973	-60.166089
1703	1.7030e+000	-1.7924	-60.217999
1704	1.7040e+000	-1.7843	-60.273618
1705	1.7050e+000	-1.7783	-60.255078
1706	1.7060e+000	-1.7728	-60.177212
1707	1.7070e+000	-1.7659	-60.129010
1708	1.7080e+000	-1.7613	-60.069684
1709	1.7090e+000	-1.7540	-60.162381
1710	1.7100e+000	-1.7503	-60.169797
1711	1.7110e+000	-1.7440	-60.147549
1712	1.7120e+000	-1.7368	-60.077099
1713	1.7130e+000	-1.7300	-60.006649
1714	1.7140e+000	-1.7249	-59.943615
1715	1.7150e+000	-1.7192	-60.125302
1716	1.7160e+000	-1.7146	-60.010357
1717	1.7170e+000	-1.7066	-59.965863
1718	1.7180e+000	-1.7009	-59.936199
1719	1.7190e+000	-1.6949	-59.884289
1720	1.7200e+000	-1.6879	-59.836086
1721	1.7210e+000	-1.6819	-59.895413
1722	1.7220e+000	-1.6776	-59.943615
1723	1.7230e+000	-1.6714	-59.943615
1724	1.7240e+000	-1.6666	-59.802715
1725	1.7250e+000	-1.6569	-59.843502
1726	1.7260e+000	-1.6509	-59.754513
1727	1.7270e+000	-1.6448	-59.824963
1728	1.7280e+000	-1.6420	-59.817547
1729	1.7290e+000	-1.6375	-59.758221
1730	1.7300e+000	-1.6325	-59.747097
1731	1.7310e+000	-1.6248	-59.728558
1732	1.7320e+000	-1.6173	-59.695187
1733	1.7330e+000	-1.6118	-59.843502
1734	1.7340e+000	-1.6031	-59.665523
1735	1.7350e+000	-1.6003	-59.658108
1736	1.7360e+000	-1.5913	-59.613613
1737	1.7370e+000	-1.5892	-59.513500
1738	1.7380e+000	-1.5794	-59.443050
1739	1.7390e+000	-1.5746	-59.554287
1740	1.7400e+000	-1.5668	-59.583950
1741	1.7410e+000	-1.5635	-59.532039
1742	1.7420e+000	-1.5564	-59.383724
1743	1.7430e+000	-1.5517	-59.457882
1744	1.7440e+000	-1.5469	-59.365184
1745	1.7450e+000	-1.5367	-59.443050
1746	1.7460e+000	-1.5327	-59.446758
1747	1.7470e+000	-1.5275	-59.435634
1748	1.7480e+000	-1.5217	-59.457882
1749	1.7490e+000	-1.5142	-59.328105
1750	1.7500e+000	-1.5083	-59.261363
1751	1.7510e+000	-1.5004	-59.428218
1752	1.7520e+000	-1.4967	-59.272487
1753	1.7530e+000	-1.4934	-59.276195
1754	1.7540e+000	-1.4835	-59.231700
1755	1.7550e+000	-1.4806	-59.061137
1756	1.7560e+000	-1.4747	-59.124171
1757	1.7570e+000	-1.4679	-59.116756
1758	1.7580e+000	-1.4639	-59.242824
1759	1.7590e+000	-1.4552	-59.168666
1760	1.7600e+000	-1.4486	-58.983272
1761	1.7610e+000	-1.4435	-59.046306
1762	1.7620e+000	-1.4375	-58.935069
1763	1.7630e+000	-1.4320	-59.064845
1764	1.7640e+000	-1.4268	-59.050014
1765	1.7650e+000	-1.4196	-58.968440
1766	1.7660e+000	-1.4122	-58.990687
1767	1.7670e+000	-1.4108	-58.942485
1768	1.7680e+000	-1.3998	-58.838664
1769	1.7690e+000	-1.3985	-58.949901
1770	1.7700e+000	-1.3901	-58.912822
1771	1.7710e+000	-1.3836	-58.872035
1772	1.7720e+000	-1.3780	-58.883159
1773	1.7730e+000	-1.3727	-58.823832
1774	1.7740e+000	-1.3639	-58.645854
1775	1.7750e+000	-1.3570	-58.738551
1776	1.7760e+000	-1.3522	-58.801585
1777	1.7770e+000	-1.3461	-58.745967
1778	1.7780e+000	-1.3419	-58.727427
1779	1.7790e+000	-1.3358	-58.616190
1780	1.7800e+000	-1.3277	-58.601359
1781	1.7810e+000	-1.3230	-58.686640
1782	1.7820e+000	-1.3161	-58.694056
1783	1.7830e+000	-1.3084	-58.601359
1784	1.7840e+000	-1.3039	-58.623606
1785	1.7850e+000	-1.2982	-58.530909
1786	1.7860e+000	-1.2926	-58.482706
1787	1.7870e+000	-1.2891	-58.449335
1788	1.7880e+000	-1.2799	-58.542033
1789	1.7890e+000	-1.2744	-58.404841
1790	1.7900e+000	-1.2698	-58.378885
1791	1.7910e+000	-1.2627	-58.419672
1792	1.7920e+000	-1.2590	-58.226862
1793	1.7930e+000	-1.2513	-58.323267
1794	1.7940e+000	-1.2453	-58.401133
1795	1.7950e+000	-1.2416	-58.312143
1796	1.7960e+000	-1.2339	-58.338099
1797	1.7970e+000	-1.2260	-58.241693
1798	1.7980e+000	-1.2209	-58.115625
1799	1.7990e+000	-1.2147	-58.156412
1800	1.8000e+000	-1.2094	-58.249109
1801	1.8010e+000	-1.2032	-58.197199
1802	1.8020e+000	-1.1945	-58.152704
1803	1.8030e+000	-1.1921	-58.119333
1804	1.8040e+000	-1.1871	-58.022928
1805	1.8050e+000	-1.1803	-58.056299
1806	1.8060e+000	-1.1761	-58.037759
1807	1.8070e+000	-1.1679	-57.989557
1808	1.8080e+000	-1.1637	-57.937646
1809	1.8090e+000	-1.1557	-57.885736
1810	1.8100e+000	-1.1493	-57.785623
1811	1.8110e+000	-1.1449	-57.800454
1812	1.8120e+000	-1.1363	-57.863489
1813	1.8130e+000	-1.1327	-57.852365
1814	1.8140e+000	-1.1251	-57.863489
1815	1.8150e+000	-1.1174	-57.755960
1816	1.8160e+000	-1.1146	-57.618768
1817	1.8170e+000	-1.1076	-57.767083
1818	1.8180e+000	-1.1022	-57.767083
1819	1.8190e+000	-1.0946	-57.696633
1820	1.8200e+000	-1.0892	-57.707757
1821	1.8210e+000	-1.0838	-57.641015
1822	1.8220e+000	-1.0760	-57.581689
1823	1.8230e+000	-1.0746	-57.548318
1824	1.8240e+000	-1.0660	-57.611352
1825	1.8250e+000	-1.0617	-57.474160
1826	1.8260e+000	-1.0530	-57.392586
1827	1.8270e+000	-1.0463	-57.455621
1828	1.8280e+000	-1.0390	-57.303597
1829	1.8290e+000	-1.0360	-57.348092
1830	1.8300e+000	-1.0301	-57.422250
1831	1.8310e+000	-1.0229	-57.355508
1832	1.8320e+000	-1.0165	-57.425957
1833	1.8330e+000	-1.0113	-57.303597
1834	1.8340e+000	-1.0037	-57.173821
1835	1.8350e+000	-0.9991	-57.229439
1836	1.8360e+000	-0.9930	-57.266518
1837	1.8370e+000	-0.9885	-57.236855
1838	1.8380e+000	-0.9806	-57.136742
1839	1.8390e+000	-0.9753	-57.118203
1840	1.8400e+000	-0.9707	-57.018089
1841	1.8410e+000	-0.9631	-57.029213
1842	1.8420e+000	-0.9572	-57.077416
1843	1.8430e+000	-0.9518	-57.014382
1844	1.8440e+000	-0.9464	-56.851234
1845	1.8450e+000	-0.9399	-56.936516
1846	1.8460e+000	-0.9328	-56.795616
1847	1.8470e+000	-0.9264	-56.817863
1848	1.8480e+000	-0.9199	-56.892021
1849	1.8490e+000	-0.9144	-56.854942
1850	1.8500e+000	-0.9103	-56.817863
1851	1.8510e+000	-0.9019	-56.814155
1852	1.8520e+000	-0.8967	-56.676964
1853	1.8530e+000	-0.8921	-56.806740
1854	1.8540e+000	-0.8842	-56.710335
1855	1.8550e+000	-0.8804	-56.695503
1856	1.8560e+000	-0.8729	-56.706627
1857	1.8570e+000	-0.8672	-56.613929
1858	1.8580e+000	-0.8607	-56.487861
1859	1.8590e+000	-0.8541	-56.506401
1860	1.8600e+000	-0.8483	-56.573143
1861	1.8610e+000	-0.8431	-56.495277
1862	1.8620e+000	-0.8356	-56.354377
1863	1.8630e+000	-0.8321	-56.398872
1864	1.8640e+000	-0.8257	-56.280219
1865	1.8650e+000	-0.8196	-56.298759
1866	1.8660e+000	-0.8119	-56.309882
1867	1.8670e+000	-0.8064	-56.291343
1868	1.8680e+000	-0.8006	-56.276511
1869	1.8690e+000	-0.7944	-56.180106
1870	1.8700e+000	-0.7877	-56.135611
1871	1.8710e+000	-0.7829	-56.220893
1872	1.8720e+000	-0.7764	-56.235725
1873	1.8730e+000	-0.7704	-56.172690
1874	1.8740e+000	-0.7644	-56.028083
1875	1.8750e+000	-0.7612	-56.031791
1876	1.8760e+000	-0.7533	-55.939093
1877	1.8770e+000	-0.7481	-55.887183
1878	1.8780e+000	-0.7412	-56.005835
1879	1.8790e+000	-0.7370	-55.872351
1880	1.8800e+000	-0.7288	-55.772238
1881	1.8810e+000	-0.7243	-55.783362
1882	1.8820e+000	-0.7185	-55.627630
1883	1.8830e+000	-0.7140	-55.720328
1884	1.8840e+000	-0.7065	-55.701788
1885	1.8850e+000	-0.6987	-55.724036
1886	1.8860e+000	-0.6949	-55.698080
1887	1.8870e+000	-0.6880	-55.534933
1888	1.8880e+000	-0.6820	-55.490439
1889	1.8890e+000	-0.6764	-55.620215
1890	1.8900e+000	-0.6709	-55.523810
1891	1.8910e+000	-0.6631	-55.475607
1892	1.8920e+000	-0.6561	-55.494146
1893	1.8930e+000	-0.6516	-55.342123
1894	1.8940e+000	-0.6462	-55.305044
1895	1.8950e+000	-0.6398	-55.297628
1896	1.8960e+000	-0.6339	-55.308752
1897	1.8970e+000	-0.6283	-55.245718
1898	1.8980e+000	-0.6186	-55.245718
1899	1.8990e+000	-0.6161	-55.086278
1900	1.9000e+000	-0.6107	-55.078863
1901	1.9010e+000	-0.6037	-55.082571
1902	1.9020e+000	-0.5959	-55.008413
1903	1.9030e+000	-0.5917	-55.012121
1904	1.9040e+000	-0.5859	-55.089986
1905	1.9050e+000	-0.5778	-54.863805
1906	1.9060e+000	-0.5741	-54.837850
1907	1.9070e+000	-0.5665	-54.926839
1908	1.9080e+000	-0.5585	-54.837850
1909	1.9090e+000	-0.5544	-54.848973
1910	1.9100e+000	-0.5499	-54.782231
1911	1.9110e+000	-0.5433	-54.759984
1912	1.9120e+000	-0.5363	-54.585713
1913	1.9130e+000	-0.5327	-54.589421
1914	1.9140e+000	-0.5228	-54.637624
1915	1.9150e+000	-0.5164	-54.552342
1916	1.9160e+000	-0.5143	-54.481892
1917	1.9170e+000	-0.5061	-54.385487
1918	1.9180e+000	-0.5006	-54.289082
1919	1.9190e+000	-0.4964	-54.337284
1920	1.9200e+000	-0.4889	-54.281666
1921	1.9210e+000	-0.4829	-54.266835
1922	1.9220e+000	-0.4786	-54.289082
1923	1.9230e+000	-0.4707	-54.092564
1924	1.9240e+000	-0.4668	-54.074024
1925	1.9250e+000	-0.4585	-54.055485
1926	1.9260e+000	-0.4530	-54.074024
1927	1.9270e+000	-0.4454	-54.040653
1928	1.9280e+000	-0.4394	-53.999866
1929	1.9290e+000	-0.4345	-53.892338
1930	1.9300e+000	-0.4291	-53.803348
1931	1.9310e+000	-0.4232	-53.777393
1932	1.9320e+000	-0.4161	-53.821888
1933	1.9330e+000	-0.4102	-53.744022
1934	1.9340e+000	-0.4062	-53.736606
1935	1.9350e+000	-0.3983	-53.547504
1936	1.9360e+000	-0.3918	-53.417728
1937	1.9370e+000	-0.3875	-53.443683
1938	1.9380e+000	-0.3802	-53.410312
1939	1.9390e+000	-0.3750	-53.451099
1940	1.9400e+000	-0.3675	-53.428851
1941	1.9410e+000	-0.3638	-53.187838
1942	1.9420e+000	-0.3568	-53.180423
1943	1.9430e+000	-0.3495	-53.076602
1944	1.9440e+000	-0.3455	-53.087725
1945	1.9450e+000	-0.3400	-53.113681
1946	1.9460e+000	-0.3355	-53.102557
1947	1.9470e+000	-0.3264	-52.902331
1948	1.9480e+000	-0.3199	-52.872668
1949	1.9490e+000	-0.3151	-52.791094
1950	1.9500e+000	-0.3079	-52.943118
1951	1.9510e+000	-0.3007	-52.702105
1952	1.9520e+000	-0.2995	-52.657610
1953	1.9530e+000	-0.2921	-52.542665
1954	1.9540e+000	-0.2821	-52.431429
1955	1.9550e+000	-0.2780	-52.449968
1956	1.9560e+000	-0.2734	-52.353563
1957	1.9570e+000	-0.2648	-52.316484
1958	1.9580e+000	-0.2625	-52.312776
1959	1.9590e+000	-0.2543	-52.153337
1960	1.9600e+000	-0.2481	-52.071763
1961	1.9610e+000	-0.2444	-52.038392
1962	1.9620e+000	-0.2342	-52.075471
1963	1.9630e+000	-0.2319	-51.993898
1964	1.9640e+000	-0.2285	-51.941987
1965	1.9650e+000	-0.2187	-51.815919
1966	1.9660e+000	-0.2145	-51.675019
1967	1.9670e+000	-0.2080	-51.708390
1968	1.9680e+000	-0.1994	-51.771424
1969	1.9690e+000	-0.1961	-51.630524
1970	1.9700e+000	-0.1891	-51.485917
1971	1.9710e+000	-0.1833	-51.233780
1972	1.9720e+000	-0.1772	-51.200409
1973	1.9730e+000	-0.1712	-51.230072
1974	1.9740e+000	-0.1660	-51.167038
1975	1.9750e+000	-0.1572	-51.170746
1976	1.9760e+000	-0.1517	-51.148498
1977	1.9770e+000	-0.1463	-50.740630
1978	1.9780e+000	-0.1419	-50.851867
1979	1.9790e+000	-0.1339	-50.822204
1980	1.9800e+000	-0.1305	-50.785125
1981	1.9810e+000	-0.1216	-50.744338
1982	1.9820e+000	-0.1169	-50.673888
1983	1.9830e+000	-0.1114	-50.540404
1984	1.9840e+000	-0.1052	-50.447707
1985	1.9850e+000	-0.0999	-50.336470
1986	1.9860e+000	-0.0932	-50.321639
1987	1.9870e+000	-0.0875	-50.280852
1988	1.9880e+000	-0.0817	-50.173323
1989	1.9890e+000	-0.0743	-50.017592
1990	1.9900e+000	-0.0707	-49.928602
1991	1.9910e+000	-0.0634	-49.902647
1992	1.9920e+000	-0.0574	-49.806242
1993	1.9930e+000	-0.0509	-49.783995
1994	1.9940e+000	-0.0444	-49.806242
1995	1.9950e+000	-0.0356	-49.509611
1996	1.9960e+000	-0.0340	-49.468824
1997	1.9970e+000	-0.0285	-49.439161
1998	1.9980e+000	-0.0192	-49.450285
1999	1.9990e+000	-0.0143	-49.327924
2000	2.0000e+000	-0.0074	-49.272306
2001	2.0010e+000	-0.0016	-49.149945

Center data before PMax,±Pr and ±Vc Calc.

PMax (µC/cm2):	6.26e+001
Pr (µC/cm2):	4.69e+001
-Pr (µC/cm2):	-4.91e+001
Vc:	1.37e+000
-Vc:	-5.60e-001
C (Max-Eff) (nF):	2.56e-002
Vert. (±Pr) Shift (µC/cm2):	-1.14e+000
Horiz. Shift (±Vc):	4.04e-001
Offset (µC/cm2):	5.37e+001

A (Loop Area - µC/cm2·Volts):	2.21e+002



Hysteresis Version: 5.9.3 - Radiant Technologies, Inc., 1999 - 3/03/16

