»»»»»»»»»»»»»»»»»»»»»»»»»»»»»»»»»»»» Hysteresis ««««««««««««««««««««««««««««««««««««
»»»  Executed Version:	5.16.2
»»»  Vision Version:	5.16.10 (R)
»»»  Vision Compiled:	4/26/18
»»»  Driver Version:	5.16.6
»»»  Windows Version:	Windows 8
»»»  Processor Information:	x86 (AMD or Intel) - 8 Processors
»»»  Tester Name:	PPM21016-863
»»»  Tester S/N:	PPM21016-863
»»»  Internal Amp Type:	 RTI ML200V    
»»»  Internal Amp S/N:	 iAB2-0000     
»»»  Execution Count:	1
»»»»»»»»»»»»»»»»»»»»»»»»»»»»»»»»»»»»»»»»»»««««««««««««««««««««««««««««««««««««««««««

Stored:	5/23/2018 - 9:4:29
Configured:	05/23/18 06:37:56 AM
Executed:	05/23/18 09:04:08 AM

»»»»»»»»»»»»»»»»»»»»»»»»»»»»»»»»»»» Sample Info ««««««««««««««««««««««««««««««««««««
Sample Name:	Internal Reference Cap.
Lot Name:	N/A
Wafer Name:	N/A
Die Row/Column:	0/0
Capacitor Number:	0
Sample Area (cm2):	7.85e-005
Sample Thickness (µm):	1.00e-001

Mux Loop Adjustment:	Disabled

Amplifier:	Internal

»»»»»»»»»»»»»»»»»»»»»»»»»»»»»»»»»»» Tester Info «««««««««««««««««««««««««««««««««««
Tester Name:	PPM21016-863
Tester Serial Number:	PPM21016-863
Return Signal Amp. Level:	0.19 [Index: 3]

»»»»»»»»»»»»»»»»»»»»»»»»»»»»»»»» Hysteresis Info ««««««««««««««««««««««««««««««««««
Task Name:	Hyst-1
Field (kV/cm):	0.03
Field:	300.00 (kV/cm)
Hysteresis Period (ms):	2.00e+000
Preset:	Enabled
Preset Delay (ms):	1.00e+003
Profile:	Double Bipolar

»»»»»»»»»»»»»»»»»»»»»»»»»»»»»»»»»»»»»» Data «««««««««««««««««««««««««««««««««««««««
Points:	2001

Valid Data

Point	Time (ms)	Field (kV/cm)	Measured Polarization
   1	1.0000e-003	0.099182	-41.050339
   2	2.0000e-003	1.022339	-41.208736
   3	3.0000e-003	2.342224	-41.254722
   4	4.0000e-003	3.608704	-41.229174
   5	5.0000e-003	4.577637	-41.673707
   6	6.0000e-003	5.867004	-41.157640
   7	7.0000e-003	7.133484	-41.035010
   8	8.0000e-003	7.324219	-41.622612
   9	9.0000e-003	9.735107	-40.580258
  10	1.0000e-002	10.818481	-40.825518
  11	1.1000e-002	11.878967	-40.687559
  12	1.2000e-002	13.229370	-40.554710
  13	1.3000e-002	14.381409	-40.396313
  14	1.4000e-002	15.571594	-40.524053
  15	1.5000e-002	16.845703	-40.319670
  16	1.6000e-002	17.921448	-40.289012
  17	1.7000e-002	19.073486	-40.171492
  18	1.8000e-002	20.500183	-40.023314
  19	1.9000e-002	21.629333	-40.028424
  20	2.0000e-002	22.789001	-39.829150
  21	2.1000e-002	23.956299	-39.302864
  22	2.2000e-002	25.154114	-39.466370
  23	2.3000e-002	25.604248	-39.670753
  24	2.4000e-002	27.931213	-39.221111
  25	2.5000e-002	28.800964	-38.899207
  26	2.6000e-002	30.044556	-38.868550
  27	2.7000e-002	31.188965	-38.628400
  28	2.8000e-002	32.592773	-38.424017
  29	2.9000e-002	33.515930	-38.173647
  30	3.0000e-002	34.660339	-37.861963
  31	3.1000e-002	35.980225	-37.601375
  32	3.2000e-002	37.094116	-36.860486
  33	3.3000e-002	38.040161	-36.962678
  34	3.4000e-002	39.466858	-36.344419
  35	3.5000e-002	40.725708	-35.685284
  36	3.6000e-002	41.809082	-34.096205
  37	3.7000e-002	42.922974	-34.269931
  38	3.8000e-002	43.228149	-33.723206
  39	3.9000e-002	45.478821	-32.164785
  40	4.0000e-002	46.409607	-30.744323
  41	4.1000e-002	47.637939	-29.737736
  42	4.2000e-002	48.820496	-28.628958
  43	4.3000e-002	50.148010	-26.702648
  44	4.4000e-002	51.094055	-25.256638
  45	4.5000e-002	52.352905	-23.350765
  46	4.6000e-002	53.710938	-21.444893
  47	4.7000e-002	54.664612	-19.728076
  48	4.8000e-002	55.938721	-17.617820
  49	4.9000e-002	57.258606	-15.701729
  50	5.0000e-002	58.357239	-13.269571
  51	5.1000e-002	59.532166	-10.617700
  52	5.2000e-002	60.722351	-9.151252
  53	5.3000e-002	61.393738	-7.454872
  54	5.4000e-002	63.262939	-4.537304
  55	5.5000e-002	64.262390	-2.452597
  56	5.6000e-002	65.551758	-0.408766
  57	5.7000e-002	66.658020	1.905872
  58	5.8000e-002	68.008423	3.944593
  59	5.9000e-002	69.206238	5.773822
  60	6.0000e-002	70.335388	7.868748
  61	6.1000e-002	71.556091	9.611114
  62	6.2000e-002	72.914124	11.506767
  63	6.3000e-002	74.005127	13.152050
  64	6.4000e-002	75.263977	14.792224
  65	6.5000e-002	76.454163	16.493714
  66	6.6000e-002	77.598572	17.249931
  67	6.7000e-002	78.765869	19.523692
  68	6.8000e-002	79.566956	21.046346
  69	6.9000e-002	81.306458	21.950741
  70	7.0000e-002	82.511902	23.314998
  71	7.1000e-002	83.503723	24.280708
  72	7.2000e-002	84.869385	25.466130
  73	7.3000e-002	86.097717	26.355197
  74	7.4000e-002	87.364197	27.259592
  75	7.5000e-002	88.539124	28.148658
  76	7.6000e-002	89.759827	28.736259
  77	7.7000e-002	91.041565	29.456710
  78	7.8000e-002	92.315674	30.304899
  79	7.9000e-002	93.971252	31.050897
  80	8.0000e-002	94.657898	31.362582
  81	8.1000e-002	95.764160	32.364059
  82	8.2000e-002	96.954346	32.476469
  83	8.3000e-002	98.312378	32.691072
  84	8.4000e-002	99.334717	33.375755
  85	8.5000e-002	100.502014	33.963356
  86	8.6000e-002	101.753235	34.269931
  87	8.7000e-002	102.844238	34.571396
  88	8.8000e-002	104.103088	35.000600
  89	8.9000e-002	105.216980	35.337832
  90	9.0000e-002	106.590271	35.726160
  91	9.1000e-002	107.841492	36.078721
  92	9.2000e-002	108.970642	36.334200
  93	9.3000e-002	110.168457	36.845157
  94	9.4000e-002	111.381531	36.834938
  95	9.5000e-002	112.571716	37.345896
  96	9.6000e-002	113.945007	37.994812
  97	9.7000e-002	116.409302	38.515989
  98	9.8000e-002	115.684509	38.112332
  99	9.9000e-002	117.515564	38.398469
 100	1.0000e-001	118.576050	38.490441
 101	1.0100e-001	119.804382	38.720372
 102	1.0200e-001	120.887756	39.057604
 103	1.0300e-001	122.222900	39.323302
 104	1.0400e-001	123.344421	39.420384
 105	1.0500e-001	124.565125	39.655425
 106	1.0600e-001	125.892639	40.064191
 107	1.0700e-001	127.265930	40.099958
 108	1.0800e-001	128.608704	40.105067
 109	1.0900e-001	129.440308	40.488286
 110	1.1000e-001	130.661011	40.575148
 111	1.1100e-001	131.820679	40.191930
 112	1.1200e-001	131.706238	40.278793
 113	1.1300e-001	134.468079	41.295599
 114	1.1400e-001	135.383606	41.162750
 115	1.1500e-001	136.688232	41.525530
 116	1.1600e-001	137.718201	41.576625
 117	1.1700e-001	139.038086	41.699255
 118	1.1800e-001	140.296936	42.041597
 119	1.1900e-001	141.418457	41.944515
 120	1.2000e-001	142.677307	42.266418
 121	1.2100e-001	143.859863	42.353281
 122	1.2200e-001	145.149231	42.470801
 123	1.2300e-001	146.575928	42.940882
 124	1.2400e-001	147.758484	42.731390
 125	1.2500e-001	148.765564	42.802924
 126	1.2600e-001	149.925232	43.048184
 127	1.2700e-001	150.558472	42.874458
 128	1.2800e-001	152.412415	43.170813
 129	1.2900e-001	153.526306	43.472278
 130	1.3000e-001	154.670715	43.528484
 131	1.3100e-001	155.845642	43.579579
 132	1.3200e-001	157.218933	43.625566
 133	1.3300e-001	158.355713	43.717538
 134	1.3400e-001	159.545898	43.773743
 135	1.3500e-001	160.736084	44.136523
 136	1.3600e-001	161.949158	43.916812
 137	1.3700e-001	163.154602	44.151852
 138	1.3800e-001	164.657593	44.555509
 139	1.3900e-001	165.557861	44.504413
 140	1.4000e-001	166.923523	44.432879
 141	1.4100e-001	167.778015	44.780330
 142	1.4200e-001	168.655396	43.993455
 143	1.4300e-001	170.249939	44.862083
 144	1.4400e-001	171.806335	44.785440
 145	1.4500e-001	172.737122	44.770111
 146	1.4600e-001	174.102783	45.056247
 147	1.4700e-001	175.170898	45.143110
 148	1.4800e-001	176.338196	45.138000
 149	1.4900e-001	177.749634	45.265740
 150	1.5000e-001	178.672791	45.311726
 151	1.5100e-001	180.015564	45.189096
 152	1.5200e-001	181.037903	45.347493
 153	1.5300e-001	182.067871	45.403698
 154	1.5400e-001	183.601379	45.510999
 155	1.5500e-001	184.669495	45.643848
 156	1.5600e-001	185.989380	45.868670
 157	1.5700e-001	187.767029	46.742407
 158	1.5800e-001	188.217163	45.792026
 159	1.5900e-001	189.476013	45.975971
 160	1.6000e-001	190.910339	45.975971
 161	1.6100e-001	192.024231	46.098601
 162	1.6200e-001	193.275452	46.124149
 163	1.6300e-001	194.328308	45.899327
 164	1.6400e-001	195.327759	46.256998
 165	1.6500e-001	196.685791	46.364299
 166	1.6600e-001	198.013306	46.614668
 167	1.6700e-001	199.134827	46.502257
 168	1.6800e-001	200.325012	46.594230
 169	1.6900e-001	201.553345	46.522696
 170	1.7000e-001	202.667236	46.936571
 171	1.7100e-001	203.865051	46.798613
 172	1.7200e-001	204.895020	46.492038
 173	1.7300e-001	205.810547	46.364299
 174	1.7400e-001	207.542419	46.992777
 175	1.7500e-001	208.724976	47.120516
 176	1.7600e-001	209.877014	47.100078
 177	1.7700e-001	211.021423	47.186941
 178	1.7800e-001	212.326050	47.248256
 179	1.7900e-001	213.554382	47.248256
 180	1.8000e-001	214.530945	47.289132
 181	1.8100e-001	216.049194	47.335118
 182	1.8200e-001	217.094421	47.534392
 183	1.8300e-001	218.238831	47.559940
 184	1.8400e-001	218.673706	47.176721
 185	1.8500e-001	220.596313	48.597184
 186	1.8600e-001	221.839905	47.513954
 187	1.8700e-001	223.075867	47.631474
 188	1.8800e-001	224.319458	47.851186
 189	1.8900e-001	225.547791	47.575268
 190	1.9000e-001	226.707458	47.927829
 191	1.9100e-001	227.790833	47.830747
 192	1.9200e-001	229.034424	47.968706
 193	1.9300e-001	230.216980	48.213966
 194	1.9400e-001	231.407166	48.045350
 195	1.9500e-001	232.627869	48.305938
 196	1.9600e-001	233.886719	48.254842
 197	1.9700e-001	235.137939	48.428568
 198	1.9800e-001	236.244202	48.515431
 199	1.9900e-001	237.541199	48.525650
 200	2.0000e-001	239.097595	49.031498
 201	2.0100e-001	239.768982	48.561417
 202	2.0200e-001	241.035461	48.612513
 203	2.0300e-001	242.378235	48.816896
 204	2.0400e-001	244.812012	49.511798
 205	2.0500e-001	244.682312	48.612513
 206	2.0600e-001	246.002197	48.939525
 207	2.0700e-001	246.879578	48.801567
 208	2.0800e-001	248.329163	49.057046
 209	2.0900e-001	249.351501	48.995731
 210	2.1000e-001	250.770569	49.097922
 211	2.1100e-001	251.892090	49.404497
 212	2.1200e-001	253.150940	49.215443
 213	2.1300e-001	254.394531	49.378949
 214	2.1400e-001	255.546570	49.378949
 215	2.1500e-001	256.462097	50.017646
 216	2.1600e-001	257.987976	49.276757
 217	2.1700e-001	258.811951	49.588442
 218	2.1800e-001	259.971619	49.465812
 219	2.1900e-001	261.375427	49.654866
 220	2.2000e-001	263.298035	50.528604
 221	2.2100e-001	263.763428	49.787715
 222	2.2200e-001	264.808655	49.751948
 223	2.2300e-001	266.212463	49.935893
 224	2.2400e-001	267.539978	49.992098
 225	2.2500e-001	268.608093	50.002317
 226	2.2600e-001	269.920349	50.150495
 227	2.2700e-001	271.110535	50.273125
 228	2.2800e-001	272.346497	50.298673
 229	2.2900e-001	273.529053	50.370207
 230	2.3000e-001	274.650574	50.855617
 231	2.3100e-001	275.169373	50.344659
 232	2.3200e-001	277.030945	50.436631
 233	2.3300e-001	278.251648	50.666562
 234	2.3400e-001	279.365540	50.497946
 235	2.3500e-001	280.731201	50.671672
 236	2.3600e-001	282.051086	50.707439
 237	2.3700e-001	283.058167	50.809630
 238	2.3800e-001	284.217834	50.932260
 239	2.3900e-001	285.484314	51.003794
 240	2.4000e-001	286.659241	51.203068
 241	2.4100e-001	287.963867	51.090657
 242	2.4200e-001	289.131165	51.100876
 243	2.4300e-001	290.367126	51.146863
 244	2.4400e-001	291.366577	51.223506
 245	2.4500e-001	292.686462	51.223506
 246	2.4600e-001	293.983459	51.111096
 247	2.4700e-001	295.417786	52.020600
 248	2.4800e-001	296.424866	51.402341
 249	2.4900e-001	297.660828	51.550519
 250	2.5000e-001	298.553467	51.703806
 251	2.5100e-001	298.576355	50.988466
 252	2.5200e-001	299.507141	51.770231
 253	2.5300e-001	297.760010	51.708916
 254	2.5400e-001	296.638489	51.703806
 255	2.5500e-001	295.646667	51.637382
 256	2.5600e-001	294.097900	51.760012
 257	2.5700e-001	292.991638	51.714026
 258	2.5800e-001	291.793823	51.724245
 259	2.5900e-001	290.382385	51.744683
 260	2.6000e-001	289.367676	52.025710
 261	2.6100e-001	288.185120	51.606724
 262	2.6200e-001	286.918640	51.596505
 263	2.6300e-001	285.850525	51.744683
 264	2.6400e-001	284.751892	51.632272
 265	2.6500e-001	283.409119	51.673149
 266	2.6600e-001	282.211304	51.596505
 267	2.6700e-001	280.143738	51.243945
 268	2.6800e-001	279.792786	51.642491
 269	2.6900e-001	278.549194	51.535190
 270	2.7000e-001	277.351379	51.821327
 271	2.7100e-001	276.115417	51.417670
 272	2.7200e-001	275.039673	51.591396
 273	2.7300e-001	273.658752	51.514752
 274	2.7400e-001	272.590637	50.988466
 275	2.7500e-001	271.514893	51.524971
 276	2.7600e-001	270.103455	51.463656
 277	2.7700e-001	268.920898	51.264383
 278	2.7800e-001	268.241882	51.550519
 279	2.7900e-001	266.716003	51.381903
 280	2.8000e-001	265.281677	51.330807
 281	2.8100e-001	264.091492	51.366574
 282	2.8200e-001	262.809753	51.213287
 283	2.8300e-001	261.093140	51.320588
 284	2.8400e-001	260.635376	51.284821
 285	2.8500e-001	259.346008	50.743206
 286	2.8600e-001	258.071899	51.310369
 287	2.8700e-001	256.988525	51.177520
 288	2.8800e-001	255.851746	51.228616
 289	2.8900e-001	254.592896	50.227139
 290	2.9000e-001	253.570557	51.284821
 291	2.9100e-001	252.128601	50.947589
 292	2.9200e-001	250.907898	51.065109
 293	2.9300e-001	249.732971	50.973137
 294	2.9400e-001	248.191833	51.243945
 295	2.9500e-001	247.467041	50.901603
 296	2.9600e-001	246.208191	50.952699
 297	2.9700e-001	245.010376	50.681891
 298	2.9800e-001	244.438171	50.901603
 299	2.9900e-001	242.370605	50.937370
 300	3.0000e-001	241.577148	50.947589
 301	3.0100e-001	240.516663	51.075328
 302	3.0200e-001	239.051819	50.824959
 303	3.0300e-001	237.808228	50.671672
 304	3.0400e-001	236.648560	50.554152
 305	3.0500e-001	235.435486	50.681891
 306	3.0600e-001	234.245300	50.579700
 307	3.0700e-001	233.146667	50.687001
 308	3.0800e-001	231.781006	50.472398
 309	3.0900e-001	230.667114	50.472398
 310	3.1000e-001	229.522705	50.446851
 311	3.1100e-001	228.202820	50.595028
 312	3.1200e-001	227.279663	50.375316
 313	3.1300e-001	225.685120	50.370207
 314	3.1400e-001	223.884583	50.007427
 315	3.1500e-001	223.541260	50.176043
 316	3.1600e-001	222.221375	50.273125
 317	3.1700e-001	220.962524	50.298673
 318	3.1800e-001	219.856262	50.114728
 319	3.1900e-001	218.597412	49.854140
 320	3.2000e-001	217.262268	50.124947
 321	3.2100e-001	216.156006	49.925674
 322	3.2200e-001	215.126038	49.966550
 323	3.2300e-001	213.867188	49.956331
 324	3.2400e-001	212.615967	50.022756
 325	3.2500e-001	211.341858	49.879688
 326	3.2600e-001	210.220337	49.803044
 327	3.2700e-001	208.892822	50.017646
 328	3.2800e-001	207.695007	49.864359
 329	3.2900e-001	206.581116	49.552675
 330	3.3000e-001	205.314636	49.736619
 331	3.3100e-001	204.277039	49.900126
 332	3.3200e-001	202.903748	49.721291
 333	3.3300e-001	201.789856	49.644647
 334	3.3400e-001	200.599670	49.895016
 335	3.3500e-001	199.424744	49.573113
 336	3.3600e-001	198.226929	49.578223
 337	3.3700e-001	197.151184	49.593551
 338	3.3800e-001	195.724487	49.332963
 339	3.3900e-001	194.595337	49.312525
 340	3.4000e-001	193.412781	49.430045
 341	3.4100e-001	191.871643	49.348292
 342	3.4200e-001	191.131592	49.174566
 343	3.4300e-001	189.781189	49.261429
 344	3.4400e-001	188.529968	49.271648
 345	3.4500e-001	186.714172	48.760690
 346	3.4600e-001	186.332703	49.281867
 347	3.4700e-001	184.837341	49.128580
 348	3.4800e-001	183.776855	49.000840
 349	3.4900e-001	182.518005	49.011060
 350	3.5000e-001	181.434631	48.857772
 351	3.5100e-001	180.183411	48.898649
 352	3.5200e-001	179.008484	48.908868
 353	3.5300e-001	177.841187	48.750471
 354	3.5400e-001	176.582336	48.668718
 355	3.5500e-001	175.277710	48.811786
 356	3.5600e-001	174.224854	48.658499
 357	3.5700e-001	172.752380	48.791348
 358	3.5800e-001	171.829224	48.602293
 359	3.5900e-001	170.639038	48.535869
 360	3.6000e-001	169.441223	48.581855
 361	3.6100e-001	169.120789	48.433677
 362	3.6200e-001	166.793823	48.489883
 363	3.6300e-001	165.679932	48.305938
 364	3.6400e-001	164.619446	48.413239
 365	3.6500e-001	163.398743	48.438787
 366	3.6600e-001	162.185669	47.994254
 367	3.6700e-001	161.041260	48.152651
 368	3.6800e-001	159.797668	48.127103
 369	3.6900e-001	158.538818	48.050459
 370	3.7000e-001	157.333374	48.045350
 371	3.7100e-001	156.196594	47.897172
 372	3.7200e-001	155.418396	48.249733
 373	3.7300e-001	154.098511	48.076007
 374	3.7400e-001	152.580261	47.800090
 375	3.7500e-001	151.321411	47.585488
 376	3.7600e-001	150.260925	47.794980
 377	3.7700e-001	149.490356	47.605926
 378	3.7800e-001	147.750854	47.646803
 379	3.7900e-001	146.682739	47.616145
 380	3.8000e-001	145.339966	47.396433
 381	3.8100e-001	144.172668	47.600816
 382	3.8200e-001	142.921448	47.452639
 383	3.8300e-001	141.723633	47.304461
 384	3.8400e-001	140.594482	47.794980
 385	3.8500e-001	139.526367	47.197160
 386	3.8600e-001	138.145447	47.284023
 387	3.8700e-001	136.932373	47.227817
 388	3.8800e-001	135.734558	47.641693
 389	3.8900e-001	134.651184	46.957010
 390	3.9000e-001	133.415222	47.100078
 391	3.9100e-001	132.133484	47.084749
 392	3.9200e-001	132.324219	47.708117
 393	3.9300e-001	129.325867	46.957010
 394	3.9400e-001	128.608704	46.819051
 395	3.9500e-001	127.281189	46.732188
 396	3.9600e-001	126.197815	46.328532
 397	3.9700e-001	124.877930	46.619778
 398	3.9800e-001	123.733521	46.456271
 399	3.9900e-001	122.589111	46.527805
 400	4.0000e-001	121.383667	46.466490
 401	4.0100e-001	120.071411	46.369408
 402	4.0200e-001	118.949890	46.410285
 403	4.0300e-001	117.729187	46.165025
 404	4.0400e-001	116.531372	46.277436
 405	4.0500e-001	115.455627	46.246779
 406	4.0600e-001	114.196777	46.067943
 407	4.0700e-001	112.930298	46.706640
 408	4.0800e-001	112.709045	46.032176
 409	4.0900e-001	110.450745	45.965752
 410	4.1000e-001	109.352112	45.761369
 411	4.1100e-001	108.192444	45.812465
 412	4.1200e-001	107.048035	45.684725
 413	4.1300e-001	105.796814	45.720492
 414	4.1400e-001	104.553223	45.694944
 415	4.1500e-001	103.370667	45.546767
 416	4.1600e-001	102.279663	45.383260
 417	4.1700e-001	100.982666	45.505890
 418	4.1800e-001	99.777222	45.383260
 419	4.1900e-001	98.808289	45.255521
 420	4.2000e-001	97.381592	45.250411
 421	4.2100e-001	96.122742	45.327055
 422	4.2200e-001	94.841003	45.051138
 423	4.2300e-001	93.666077	45.306616
 424	4.2400e-001	92.613220	44.294920
 425	4.2500e-001	91.209412	44.887631
 426	4.2600e-001	90.141296	44.739453
 427	4.2700e-001	89.035034	43.952579
 428	4.2800e-001	87.944031	44.586166
 429	4.2900e-001	86.540222	44.550399
 430	4.3000e-001	85.327148	44.351126
 431	4.3100e-001	84.144592	44.259153
 432	4.3200e-001	82.824707	44.320468
 433	4.3300e-001	81.855774	44.289811
 434	4.3400e-001	80.757141	44.085428
 435	4.3500e-001	79.071045	43.886154
 436	4.3600e-001	78.178406	43.937250
 437	4.3700e-001	76.980591	43.814620
 438	4.3800e-001	75.851440	43.773743
 439	4.3900e-001	74.699402	43.681771
 440	4.4000e-001	73.822021	43.487607
 441	4.4100e-001	72.189331	43.574470
 442	4.4200e-001	70.762634	43.497826
 443	4.4300e-001	69.664001	42.618979
 444	4.4400e-001	68.557739	43.456950
 445	4.4500e-001	67.329407	43.206580
 446	4.4600e-001	66.207886	43.053293
 447	4.4700e-001	65.055847	43.043074
 448	4.4800e-001	63.697815	42.823362
 449	4.4900e-001	62.599182	42.777376
 450	4.5000e-001	61.241150	42.705842
 451	4.5100e-001	60.050964	42.583212
 452	4.5200e-001	58.914185	42.409486
 453	4.5300e-001	57.769775	42.327733
 454	4.5400e-001	56.518555	42.567883
 455	4.5500e-001	55.290222	42.123350
 456	4.5600e-001	53.993225	42.138679
 457	4.5700e-001	52.963257	41.847433
 458	4.5800e-001	51.712036	41.765680
 459	4.5900e-001	50.582886	41.683927
 460	4.6000e-001	49.446106	41.459105
 461	4.6100e-001	48.240662	41.239393
 462	4.6200e-001	46.829224	41.178078
 463	4.6300e-001	45.806885	41.106544
 464	4.6400e-001	44.784546	40.851066
 465	4.6500e-001	43.266296	40.830627
 466	4.6600e-001	42.648315	40.616025
 467	4.6700e-001	41.099548	40.084629
 468	4.6800e-001	39.672852	40.202149
 469	4.6900e-001	38.536072	39.905794
 470	4.7000e-001	37.452698	39.936451
 471	4.7100e-001	36.285400	38.940084
 472	4.7200e-001	34.896851	39.256878
 473	4.7300e-001	33.523560	38.888988
 474	4.7400e-001	32.638550	38.286058
 475	4.7500e-001	31.364441	38.459784
 476	4.7600e-001	30.166626	37.928388
 477	4.7700e-001	29.060364	37.805758
 478	4.7800e-001	27.732849	37.417430
 479	4.7900e-001	26.756287	37.243704
 480	4.8000e-001	25.421143	36.814500
 481	4.8100e-001	23.681641	35.961201
 482	4.8200e-001	23.109436	35.879447
 483	4.8300e-001	21.804810	35.618859
 484	4.8400e-001	20.683289	35.000600
 485	4.8500e-001	19.424438	34.504971
 486	4.8600e-001	17.723083	34.223945
 487	4.8700e-001	17.166138	33.564809
 488	4.8800e-001	15.747070	32.946550
 489	4.8900e-001	14.701843	32.338511
 490	4.9000e-001	13.465881	31.510759
 491	4.9100e-001	12.351990	30.953816
 492	4.9200e-001	11.070251	30.284461
 493	4.9300e-001	9.948730	29.420943
 494	4.9400e-001	8.689880	28.685163
 495	4.9500e-001	7.575989	27.714344
 496	4.9600e-001	6.507874	26.855935
 497	4.9700e-001	5.325317	26.012855
 498	4.9800e-001	3.982544	24.950063
 499	4.9900e-001	2.639771	23.871942
 500	5.0000e-001	1.571655	22.620096
 501	5.0100e-001	0.556946	21.414236
 502	5.0200e-001	-0.869751	20.422978
 503	5.0300e-001	-2.021790	18.992297
 504	5.0400e-001	-3.013611	17.490081
 505	5.0500e-001	-4.188538	16.457946
 506	5.0600e-001	-5.401611	14.444773
 507	5.0700e-001	-6.599426	13.555707
 508	5.0800e-001	-7.812500	11.966629
 509	5.0900e-001	-9.086609	10.428646
 510	5.1000e-001	-10.086060	8.911102
 511	5.1100e-001	-11.383057	7.122750
 512	5.1200e-001	-12.702942	5.549000
 513	5.1300e-001	-13.870239	3.724881
 514	5.1400e-001	-14.984131	1.972297
 515	5.1500e-001	-15.975952	0.357670
 516	5.1600e-001	-16.487122	-1.205860
 517	5.1700e-001	-18.760681	-2.687637
 518	5.1800e-001	-20.011902	-5.135125
 519	5.1900e-001	-20.904541	-6.667998
 520	5.2000e-001	-22.285461	-8.471678
 521	5.2100e-001	-23.277283	-9.478265
 522	5.2200e-001	-24.612427	-12.079039
 523	5.2300e-001	-25.741577	-13.627241
 524	5.2400e-001	-26.992798	-15.410483
 525	5.2500e-001	-28.137207	-16.999562
 526	5.2600e-001	-29.426575	-18.787913
 527	5.2700e-001	-30.731201	-20.223704
 528	5.2800e-001	-31.677246	-21.868988
 529	5.2900e-001	-33.081055	-23.458067
 530	5.3000e-001	-34.164429	-24.704803
 531	5.3100e-001	-35.415649	-25.982197
 532	5.3200e-001	-36.743164	-27.520180
 533	5.3300e-001	-37.910461	-28.853780
 534	5.3400e-001	-39.047241	-29.982996
 535	5.3500e-001	-40.428162	-31.004911
 536	5.3600e-001	-41.648865	-32.031936
 537	5.3700e-001	-42.869568	-33.804959
 538	5.3800e-001	-43.983459	-33.789631
 539	5.3900e-001	-45.188904	-34.699135
 540	5.4000e-001	-46.424866	-35.394038
 541	5.4100e-001	-47.531128	-36.380186
 542	5.4200e-001	-49.034119	-36.875815
 543	5.4300e-001	-49.995422	-37.540060
 544	5.4400e-001	-51.338196	-38.178757
 545	5.4500e-001	-52.474976	-38.587523
 546	5.4600e-001	-54.534912	-39.553233
 547	5.4700e-001	-54.832458	-39.563452
 548	5.4800e-001	-55.992126	-39.154686
 549	5.4900e-001	-57.296753	-40.360546
 550	5.5000e-001	-58.456421	-40.391204
 551	5.5100e-001	-59.585571	-40.886833
 552	5.5200e-001	-61.035156	-41.157640
 553	5.5300e-001	-62.103271	-41.944515
 554	5.5400e-001	-63.446045	-41.459105
 555	5.5500e-001	-64.514160	-41.678817
 556	5.5600e-001	-65.612793	-41.949625
 557	5.5700e-001	-66.917419	-41.954734
 558	5.5800e-001	-68.206787	-42.016049
 559	5.5900e-001	-69.389343	-41.918967
 560	5.6000e-001	-70.365906	-42.414596
 561	5.6100e-001	-72.044373	-42.429925
 562	5.6200e-001	-72.998047	-42.598541
 563	5.6300e-001	-74.142456	-42.736499
 564	5.6400e-001	-75.439453	-42.353281
 565	5.6500e-001	-76.477051	-42.930663
 566	5.6600e-001	-77.735901	-42.966430
 567	5.6700e-001	-78.979492	-43.043074
 568	5.6800e-001	-80.055237	-42.460582
 569	5.6900e-001	-81.405640	-43.329210
 570	5.7000e-001	-82.565308	-43.206580
 571	5.7100e-001	-83.641052	-43.446730
 572	5.7200e-001	-85.075378	-43.538703
 573	5.7300e-001	-86.250305	-43.543812
 574	5.7400e-001	-87.402344	-43.620456
 575	5.7500e-001	-88.592529	-43.497826
 576	5.7600e-001	-89.637756	-43.410963
 577	5.7700e-001	-91.194153	-44.116085
 578	5.7800e-001	-92.109680	-43.983236
 579	5.7900e-001	-93.261719	-44.064989
 580	5.8000e-001	-94.688416	-43.998565
 581	5.8100e-001	-95.802307	-44.167181
 582	5.8200e-001	-97.106934	-44.279591
 583	5.8300e-001	-98.114014	-44.315359
 584	5.8400e-001	-99.334717	-44.095647
 585	5.8500e-001	-100.608826	-44.514632
 586	5.8600e-001	-101.783752	-44.489084
 587	5.8700e-001	-103.065491	-44.647481
 588	5.8800e-001	-104.118347	-44.683248
 589	5.8900e-001	-105.537415	-44.744563
 590	5.9000e-001	-106.895447	-44.744563
 591	5.9100e-001	-107.788086	-44.642371
 592	5.9200e-001	-108.825684	-45.046028
 593	5.9300e-001	-110.305786	-45.092014
 594	5.9400e-001	-111.351013	-45.173767
 595	5.9500e-001	-112.709045	-44.427769
 596	5.9600e-001	-113.830566	-45.413918
 597	5.9700e-001	-114.921570	-45.245301
 598	5.9800e-001	-116.104126	-45.454794
 599	5.9900e-001	-117.294312	-45.434356
 600	6.0000e-001	-118.560791	-45.914656
 601	6.0100e-001	-119.865417	-45.337274
 602	6.0200e-001	-120.948792	-45.638739
 603	6.0300e-001	-122.177124	-45.674506
 604	6.0400e-001	-123.344421	-45.654068
 605	6.0500e-001	-124.626160	-46.016848
 606	6.0600e-001	-126.441956	-46.313203
 607	6.0700e-001	-126.739502	-45.868670
 608	6.0800e-001	-128.158569	-45.817574
 609	6.0900e-001	-129.310608	-46.093491
 610	6.1000e-001	-130.592346	-45.986190
 611	6.1100e-001	-131.851196	-45.873779
 612	6.1200e-001	-133.018494	-46.246779
 613	6.1300e-001	-134.094238	-46.211011
 614	6.1400e-001	-135.307312	-46.236559
 615	6.1500e-001	-136.497498	-45.173767
 616	6.1600e-001	-137.733459	-46.589120
 617	6.1700e-001	-138.656616	-46.302984
 618	6.1800e-001	-140.144348	-46.461381
 619	6.1900e-001	-141.281128	-46.522696
 620	6.2000e-001	-142.562866	-46.589120
 621	6.2100e-001	-143.676758	-46.706640
 622	6.2200e-001	-145.034790	-46.665764
 623	6.2300e-001	-145.889282	-46.624887
 624	6.2400e-001	-147.171021	-46.691312
 625	6.2500e-001	-148.559570	-46.916133
 626	6.2600e-001	-149.734497	-46.900804
 627	6.2700e-001	-150.878906	-47.089859
 628	6.2800e-001	-152.030945	-47.033653
 629	6.2900e-001	-153.182983	-47.125626
 630	6.3000e-001	-154.541016	-47.074530
 631	6.3100e-001	-155.693054	-46.849709
 632	6.3200e-001	-156.906128	-47.365776
 633	6.3300e-001	-158.119202	-47.345338
 634	6.3400e-001	-159.225464	-47.304461
 635	6.3500e-001	-160.621643	-47.421981
 636	6.3600e-001	-160.797119	-47.294242
 637	6.3700e-001	-163.215637	-47.488406
 638	6.3800e-001	-164.093018	-47.457748
 639	6.3900e-001	-165.374756	-47.672350
 640	6.4000e-001	-166.481018	-47.646803
 641	6.4100e-001	-167.716980	-47.636583
 642	6.4200e-001	-169.036865	-47.529282
 643	6.4300e-001	-170.112610	-47.687679
 644	6.4400e-001	-171.348572	-47.774542
 645	6.4500e-001	-172.607422	-48.045350
 646	6.4600e-001	-173.637390	-47.922720
 647	6.4700e-001	-175.048828	-47.759213
 648	6.4800e-001	-176.170349	-48.111774
 649	6.4900e-001	-177.383423	-48.198637
 650	6.5000e-001	-178.527832	-48.106664
 651	6.5100e-001	-179.321289	-48.428568
 652	6.5200e-001	-181.083679	-47.856295
 653	6.5300e-001	-182.304382	-48.229294
 654	6.5400e-001	-183.418274	-48.372362
 655	6.5500e-001	-184.547424	-48.459225
 656	6.5600e-001	-185.707092	-48.489883
 657	6.5700e-001	-186.851501	-48.479664
 658	6.5800e-001	-188.095093	-48.137322
 659	6.5900e-001	-189.369202	-48.719814
 660	6.6000e-001	-190.559387	-48.730033
 661	6.6100e-001	-191.673279	-48.658499
 662	6.6200e-001	-193.038940	-49.297196
 663	6.6300e-001	-194.206238	-48.694266
 664	6.6400e-001	-195.266724	-48.898649
 665	6.6500e-001	-196.548462	-48.837334
 666	6.6600e-001	-198.371887	-49.460702
 667	6.6700e-001	-198.707581	-48.796457
 668	6.6800e-001	-200.164795	-48.893539
 669	6.6900e-001	-201.469421	-48.980402
 670	6.7000e-001	-202.491760	-49.082594
 671	6.7100e-001	-203.834534	-49.235881
 672	6.7200e-001	-205.017090	-49.128580
 673	6.7300e-001	-206.230164	-49.082594
 674	6.7400e-001	-207.313538	-49.292086
 675	6.7500e-001	-208.580017	-49.307415
 676	6.7600e-001	-209.815979	-49.276757
 677	6.7700e-001	-211.006165	-49.307415
 678	6.7800e-001	-212.188721	-49.281867
 679	6.7900e-001	-213.310242	-49.695743
 680	6.8000e-001	-214.370728	-49.501579
 681	6.8100e-001	-216.636658	-49.859249
 682	6.8200e-001	-216.888428	-49.537346
 683	6.8300e-001	-218.269348	-49.583332
 684	6.8400e-001	-219.329834	-49.767277
 685	6.8500e-001	-220.565796	-49.751948
 686	6.8600e-001	-221.595764	-49.869468
 687	6.8700e-001	-222.991943	-49.854140
 688	6.8800e-001	-224.258423	-49.700852
 689	6.8900e-001	-225.341797	-50.089180
 690	6.9000e-001	-226.722717	-50.012537
 691	6.9100e-001	-227.905273	-49.981879
 692	6.9200e-001	-229.049683	-49.930783
 693	6.9300e-001	-230.079651	-50.732987
 694	6.9400e-001	-231.277466	-50.084071
 695	6.9500e-001	-232.742310	-50.308892
 696	6.9600e-001	-234.428406	-50.196481
 697	6.9700e-001	-234.817505	-50.232248
 698	6.9800e-001	-236.160278	-50.436631
 699	6.9900e-001	-237.411499	-50.283344
 700	7.0000e-001	-238.449097	-50.462179
 701	7.0100e-001	-239.776611	-50.467289
 702	7.0200e-001	-240.852356	-50.416193
 703	7.0300e-001	-242.240906	-50.564371
 704	7.0400e-001	-243.415833	-50.687001
 705	7.0500e-001	-244.735718	-50.436631
 706	7.0600e-001	-245.903015	-50.646124
 707	7.0700e-001	-246.879578	-50.748316
 708	7.0800e-001	-248.268127	-50.789192
 709	7.0900e-001	-249.420166	-50.773863
 710	7.1000e-001	-250.625610	-50.876055
 711	7.1100e-001	-252.716064	-51.249054
 712	7.1200e-001	-252.815247	-50.799411
 713	7.1300e-001	-254.135132	-51.029342
 714	7.1400e-001	-255.363464	-50.922041
 715	7.1500e-001	-256.546021	-51.182630
 716	7.1600e-001	-257.728577	-51.060000
 717	7.1700e-001	-258.995056	-50.865836
 718	7.1800e-001	-259.979248	-51.289931
 719	7.1900e-001	-261.535645	-51.151972
 720	7.2000e-001	-262.474060	-51.387013
 721	7.2100e-001	-263.641357	-51.325698
 722	7.2200e-001	-265.197754	-51.775340
 723	7.2300e-001	-266.212463	-51.208177
 724	7.2400e-001	-267.372131	-51.596505
 725	7.2500e-001	-268.646240	-51.443218
 726	7.2600e-001	-270.385742	-52.035929
 727	7.2700e-001	-270.812988	-51.381903
 728	7.2800e-001	-272.270203	-51.611834
 729	7.2900e-001	-273.605347	-51.596505
 730	7.3000e-001	-274.429321	-51.647601
 731	7.3100e-001	-275.634766	-51.708916
 732	7.3200e-001	-277.023315	-51.714026
 733	7.3300e-001	-278.106689	-51.795779
 734	7.3400e-001	-279.380798	-51.770231
 735	7.3500e-001	-280.517578	-52.097244
 736	7.3600e-001	-281.776428	-51.800888
 737	7.3700e-001	-283.142090	-52.393599
 738	7.3800e-001	-284.233093	-52.010381
 739	7.3900e-001	-285.453796	-52.066586
 740	7.4000e-001	-286.460876	-52.168778
 741	7.4100e-001	-288.330078	-52.577544
 742	7.4200e-001	-288.955688	-52.051258
 743	7.4300e-001	-290.122986	-52.255641
 744	7.4400e-001	-291.435242	-52.357832
 745	7.4500e-001	-292.572021	-52.597982
 746	7.4600e-001	-293.815613	-52.362942
 747	7.4700e-001	-294.921875	-52.490681
 748	7.4800e-001	-296.218872	-52.316956
 749	7.4900e-001	-297.355652	-52.439585
 750	7.5000e-001	-298.446655	-52.322065
 751	7.5100e-001	-299.758911	-52.633749
 752	7.5200e-001	-299.034119	-53.027187
 753	7.5300e-001	-297.630310	-52.500900
 754	7.5400e-001	-296.394348	-52.444695
 755	7.5500e-001	-295.188904	-52.286298
 756	7.5600e-001	-294.631958	-52.955653
 757	7.5700e-001	-292.816162	-52.373161
 758	7.5800e-001	-291.603088	-52.516229
 759	7.5900e-001	-290.359497	-52.393599
 760	7.6000e-001	-289.169312	-52.485572
 761	7.6100e-001	-287.918091	-52.393599
 762	7.6200e-001	-286.834717	-52.419147
 763	7.6300e-001	-285.758972	-52.444695
 764	7.6400e-001	-284.385681	-52.449805
 765	7.6500e-001	-283.203125	-52.112573
 766	7.6600e-001	-282.012939	-52.291408
 767	7.6700e-001	-280.632019	-52.296517
 768	7.6800e-001	-279.571533	-52.245422
 769	7.6900e-001	-278.350830	-52.296517
 770	7.7000e-001	-277.214050	-52.143230
 771	7.7100e-001	-275.489807	-52.531558
 772	7.7200e-001	-274.841309	-52.087025
 773	7.7300e-001	-273.536682	-52.475352
 774	7.7400e-001	-272.354126	-51.974614
 775	7.7500e-001	-271.339417	-52.097244
 776	7.7600e-001	-269.844055	-51.943957
 777	7.7700e-001	-268.798828	-52.010381
 778	7.7800e-001	-267.807007	-51.913299
 779	7.7900e-001	-266.365051	-52.020600
 780	7.8000e-001	-265.182495	-52.061477
 781	7.8100e-001	-264.137268	-52.005271
 782	7.8200e-001	-262.527466	-51.749793
 783	7.8300e-001	-261.352539	-51.734464
 784	7.8400e-001	-260.353088	-51.862203
 785	7.8500e-001	-259.246826	-51.846875
 786	7.8600e-001	-258.033752	-51.959285
 787	7.8700e-001	-256.835938	-51.463656
 788	7.8800e-001	-255.424500	-51.851984
 789	7.8900e-001	-254.417419	-51.734464
 790	7.9000e-001	-253.257751	-51.698697
 791	7.9100e-001	-251.983643	-51.708916
 792	7.9200e-001	-250.823975	-51.427889
 793	7.9300e-001	-249.679565	-51.662930
 794	7.9400e-001	-248.344421	-51.673149
 795	7.9500e-001	-247.154236	-51.668039
 796	7.9600e-001	-246.009827	-51.560738
 797	7.9700e-001	-244.857788	-51.550519
 798	7.9800e-001	-243.766785	-51.167301
 799	7.9900e-001	-242.561340	-51.530081
 800	8.0000e-001	-241.233826	-51.412561
 801	8.0100e-001	-240.142822	-51.438108
 802	8.0200e-001	-239.395142	-51.943957
 803	8.0300e-001	-237.457275	-51.269492
 804	8.0400e-001	-236.534119	-51.453437
 805	8.0500e-001	-235.427856	-51.238835
 806	8.0600e-001	-234.046936	-51.279712
 807	8.0700e-001	-232.818604	-51.274602
 808	8.0800e-001	-231.567383	-50.978247
 809	8.0900e-001	-230.377197	-51.228616
 810	8.1000e-001	-229.263306	-51.131534
 811	8.1100e-001	-228.073120	-51.356355
 812	8.1200e-001	-226.989746	-51.034452
 813	8.1300e-001	-225.761414	-51.111096
 814	8.1400e-001	-224.525452	-51.111096
 815	8.1500e-001	-223.220825	-51.019123
 816	8.1600e-001	-221.908569	-51.049781
 817	8.1700e-001	-219.490051	-50.232248
 818	8.1800e-001	-219.726563	-50.819850
 819	8.1900e-001	-218.399048	-50.758535
 820	8.2000e-001	-217.224121	-50.789192
 821	8.2100e-001	-216.041565	-50.799411
 822	8.2200e-001	-214.752197	-50.615467
 823	8.2300e-001	-213.439941	-50.773863
 824	8.2400e-001	-212.471008	-50.835178
 825	8.2500e-001	-211.189270	-50.768754
 826	8.2600e-001	-210.044861	-50.789192
 827	8.2700e-001	-208.961487	-50.595028
 828	8.2800e-001	-207.664490	-50.411084
 829	8.2900e-001	-206.420898	-50.666562
 830	8.3000e-001	-205.207825	-50.543933
 831	8.3100e-001	-204.071045	-50.513275
 832	8.3200e-001	-202.796936	-50.523494
 833	8.3300e-001	-201.210022	-50.533713
 834	8.3400e-001	-200.347900	-50.405974
 835	8.3500e-001	-199.424744	-50.314002
 836	8.3600e-001	-198.036194	-50.314002
 837	8.3700e-001	-196.929932	-50.329330
 838	8.3800e-001	-195.442200	-50.641014
 839	8.3900e-001	-194.564819	-50.130057
 840	8.4000e-001	-193.191528	-50.748316
 841	8.4100e-001	-192.016602	-50.268015
 842	8.4200e-001	-190.895081	-50.124947
 843	8.4300e-001	-189.674377	-50.053413
 844	8.4400e-001	-188.652039	-50.579700
 845	8.4500e-001	-187.133789	-50.002317
 846	8.4600e-001	-185.981750	-50.181153
 847	8.4700e-001	-184.776306	-49.900126
 848	8.4800e-001	-184.272766	-50.600138
 849	8.4900e-001	-182.327271	-49.854140
 850	8.5000e-001	-181.236267	-49.803044
 851	8.5100e-001	-180.038452	-49.818373
 852	8.5200e-001	-178.672791	-49.854140
 853	8.5300e-001	-177.246094	-49.869468
 854	8.5400e-001	-176.506042	-49.782606
 855	8.5500e-001	-175.186157	-49.705962
 856	8.5600e-001	-174.064636	-49.746839
 857	8.5700e-001	-173.027039	-49.711072
 858	8.5800e-001	-171.676636	-49.465812
 859	8.5900e-001	-170.997620	-49.583332
 860	8.6000e-001	-169.342041	-49.639537
 861	8.6100e-001	-167.991638	-49.552675
 862	8.6200e-001	-166.915894	-49.435154
 863	8.6300e-001	-165.496826	-49.332963
 864	8.6400e-001	-164.543152	-49.542455
 865	8.6500e-001	-163.177490	-49.281867
 866	8.6600e-001	-161.994934	-49.307415
 867	8.6700e-001	-160.667419	-49.440264
 868	8.6800e-001	-159.393311	-48.862882
 869	8.6900e-001	-158.523560	-49.256319
 870	8.7000e-001	-157.135010	-49.123470
 871	8.7100e-001	-156.005859	-49.143908
 872	8.7200e-001	-154.945374	-49.113251
 873	8.7300e-001	-153.579712	-49.143908
 874	8.7400e-001	-152.320862	-49.021279
 875	8.7500e-001	-151.206970	-48.791348
 876	8.7600e-001	-149.887085	-49.103032
 877	8.7700e-001	-148.880005	-48.827115
 878	8.7800e-001	-147.544861	-48.770909
 879	8.7900e-001	-146.720886	-48.428568
 880	8.8000e-001	-145.111084	-48.658499
 881	8.8100e-001	-144.042969	-48.724923
 882	8.8200e-001	-142.921448	-48.668718
 883	8.8300e-001	-141.334534	-48.162870
 884	8.8400e-001	-140.457153	-48.535869
 885	8.8500e-001	-139.282227	-48.469444
 886	8.8600e-001	-137.908936	-48.530759
 887	8.8700e-001	-136.856079	-48.316157
 888	8.8800e-001	-135.597229	-48.883320
 889	8.8900e-001	-134.384155	-48.280390
 890	8.9000e-001	-133.117676	-48.336595
 891	8.9100e-001	-131.744385	-48.316157
 892	8.9200e-001	-130.859375	-48.300828
 893	8.9300e-001	-129.585266	-48.121993
 894	8.9400e-001	-130.149841	-48.959964
 895	8.9500e-001	-127.166748	-47.897172
 896	8.9600e-001	-125.930786	-48.076007
 897	8.9700e-001	-124.931335	-48.019802
 898	8.9800e-001	-123.542786	-47.595707
 899	8.9900e-001	-122.413635	-47.886953
 900	9.0000e-001	-121.269226	-47.886953
 901	9.0100e-001	-119.972229	-47.866514
 902	9.0200e-001	-118.736267	-47.815419
 903	9.0300e-001	-117.790222	-48.305938
 904	9.0400e-001	-116.371155	-47.605926
 905	9.0500e-001	-115.425110	-47.626364
 906	9.0600e-001	-113.906860	-47.575268
 907	9.0700e-001	-112.846375	-47.544611
 908	9.0800e-001	-111.793518	-47.411762
 909	9.0900e-001	-110.443115	-47.519063
 910	9.1000e-001	-109.909058	-47.442419
 911	9.1100e-001	-108.047485	-47.156283
 912	9.1200e-001	-106.826782	-47.437310
 913	9.1300e-001	-105.758667	-47.503734
 914	9.1400e-001	-104.270935	-47.289132
 915	9.1500e-001	-103.271484	-47.176721
 916	9.1600e-001	-102.165222	-47.120516
 917	9.1700e-001	-100.868225	-47.069420
 918	9.1800e-001	-99.594116	-47.309570
 919	9.1900e-001	-98.396301	-46.870147
 920	9.2000e-001	-97.274780	-46.844599
 921	9.2100e-001	-96.084595	-46.757736
 922	9.2200e-001	-94.886780	-46.788394
 923	9.2300e-001	-93.734741	-46.762846
 924	9.2400e-001	-92.384338	-46.813942
 925	9.2500e-001	-90.415955	-46.701531
 926	9.2600e-001	-90.255737	-46.604449
 927	9.2700e-001	-88.790894	-46.466490
 928	9.2800e-001	-87.738037	-46.405175
 929	9.2900e-001	-86.364746	-46.476709
 930	9.3000e-001	-85.212708	-46.594230
 931	9.3100e-001	-84.197998	-46.313203
 932	9.3200e-001	-82.885742	-46.221231
 933	9.3300e-001	-81.726074	-46.359189
 934	9.3400e-001	-80.505371	-46.119039
 935	9.3500e-001	-79.063416	-46.062834
 936	9.3600e-001	-78.613281	-46.691312
 937	9.3700e-001	-76.850891	-46.047505
 938	9.3800e-001	-75.538635	-45.929985
 939	9.3900e-001	-74.455261	-45.746040
 940	9.4000e-001	-73.249817	-45.807355
 941	9.4100e-001	-71.754456	-46.001519
 942	9.4200e-001	-70.816040	-45.751150
 943	9.4300e-001	-69.778442	-45.674506
 944	9.4400e-001	-68.443298	-45.740930
 945	9.4500e-001	-67.390442	-45.613191
 946	9.4600e-001	-66.093445	-45.449685
 947	9.4700e-001	-64.857483	-45.449685
 948	9.4800e-001	-63.529968	-45.321945
 949	9.4900e-001	-62.423706	-45.219754
 950	9.5000e-001	-61.210632	-45.015371
 951	9.5100e-001	-59.997559	-45.071576
 952	9.5200e-001	-58.670044	-45.352603
 953	9.5300e-001	-57.701111	-45.035809
 954	9.5400e-001	-56.480408	-44.959165
 955	9.5500e-001	-55.091858	-44.969384
 956	9.5600e-001	-53.390503	-44.182510
 957	9.5700e-001	-52.978516	-45.015371
 958	9.5800e-001	-51.673889	-44.739453
 959	9.5900e-001	-50.132751	-44.627043
 960	9.6000e-001	-49.354553	-44.575947
 961	9.6100e-001	-48.057556	-44.499303
 962	9.6200e-001	-46.707153	-44.448208
 963	9.6300e-001	-45.684814	-44.228496
 964	9.6400e-001	-44.502258	-44.397112
 965	9.6500e-001	-43.312073	-44.182510
 966	9.6600e-001	-42.144775	-44.141633
 967	9.6700e-001	-40.298462	-43.799291
 968	9.6800e-001	-39.703369	-44.126304
 969	9.6900e-001	-38.284302	-44.151852
 970	9.7000e-001	-37.155151	-43.927031
 971	9.7100e-001	-34.851074	-43.017526
 972	9.7200e-001	-34.934998	-43.753305
 973	9.7300e-001	-33.523560	-43.717538
 974	9.7400e-001	-32.257080	-43.554032
 975	9.7500e-001	-31.280518	-43.543812
 976	9.7600e-001	-29.998779	-43.456950
 977	9.7700e-001	-28.877258	-43.421183
 978	9.7800e-001	-27.511597	-42.833581
 979	9.7900e-001	-26.351929	-43.191252
 980	9.8000e-001	-25.253296	-43.145265
 981	9.8100e-001	-23.826599	-43.022636
 982	9.8200e-001	-23.841858	-43.600018
 983	9.8300e-001	-21.492004	-43.048184
 984	9.8400e-001	-20.431519	-42.859129
 985	9.8500e-001	-19.287109	-42.767157
 986	9.8600e-001	-18.020630	-42.695623
 987	9.8700e-001	-16.517639	-42.031378
 988	9.8800e-001	-15.640259	-42.598541
 989	9.8900e-001	-14.152527	-41.750351
 990	9.9000e-001	-13.038635	-42.419706
 991	9.9100e-001	-12.008667	-42.184665
 992	9.9200e-001	-10.696411	-42.082474
 993	9.9300e-001	-9.559631	-41.975172
 994	9.9400e-001	-8.407593	-41.627721
 995	9.9500e-001	-7.186890	-41.857652
 996	9.9600e-001	-6.141663	-41.719694
 997	9.9700e-001	-4.898071	-41.484653
 998	9.9800e-001	-3.669739	-41.310927
 999	9.9900e-001	-2.319336	-41.499982
1000	1.0000e+000	-1.144409	-41.259832
1001	1.0010e+000	0.007629	-41.208736
1002	1.0020e+000	0.625610	-41.489763
1003	1.0030e+000	2.311707	-40.774422
1004	1.0040e+000	3.730774	-40.774422
1005	1.0050e+000	4.974365	-40.334998
1006	1.0060e+000	5.752563	-40.610915
1007	1.0070e+000	7.095337	-40.621135
1008	1.0080e+000	8.338928	-40.304341
1009	1.0090e+000	9.475708	-40.963476
1010	1.0100e+000	10.688782	-40.023314
1011	1.0110e+000	11.848450	-39.931342
1012	1.0120e+000	13.206482	-39.870027
1013	1.0130e+000	14.511108	-39.977328
1014	1.0140e+000	15.502930	-39.558343
1015	1.0150e+000	16.723633	-39.445932
1016	1.0160e+000	17.951965	-39.052495
1017	1.0170e+000	18.562317	-39.292645
1018	1.0180e+000	20.469666	-38.909426
1019	1.0190e+000	21.591187	-38.664167
1020	1.0200e+000	22.956848	-39.098481
1021	1.0210e+000	24.017334	-38.316716
1022	1.0220e+000	25.207520	-38.229853
1023	1.0230e+000	26.306152	-37.907949
1024	1.0240e+000	27.404785	-36.788952
1025	1.0250e+000	28.640747	-37.734224
1026	1.0260e+000	29.762268	-37.018883
1027	1.0270e+000	31.036377	-36.916692
1028	1.0280e+000	32.264709	-36.421063
1029	1.0290e+000	33.531189	-35.930543
1030	1.0300e+000	34.767151	-35.496229
1031	1.0310e+000	35.942078	-34.872861
1032	1.0320e+000	36.903381	-34.290369
1033	1.0330e+000	37.879944	-33.912260
1034	1.0340e+000	39.375305	-32.312963
1035	1.0350e+000	40.626526	-31.796896
1036	1.0360e+000	41.839600	-30.642131
1037	1.0370e+000	42.976379	-29.349408
1038	1.0380e+000	44.143677	-27.969823
1039	1.0390e+000	45.135498	-26.656662
1040	1.0400e+000	46.516418	-25.118679
1041	1.0410e+000	47.554016	-23.687997
1042	1.0420e+000	48.889160	-22.027385
1043	1.0430e+000	49.972534	-20.295239
1044	1.0440e+000	51.071167	-18.557982
1045	1.0450e+000	52.391052	-16.468166
1046	1.0460e+000	53.634644	-14.352801
1047	1.0470e+000	54.710388	-12.339628
1048	1.0480e+000	56.144714	-9.851264
1049	1.0490e+000	57.052612	-8.205980
1050	1.0500e+000	58.250427	-6.351204
1051	1.0510e+000	59.387207	-4.281825
1052	1.0520e+000	60.798645	-1.778133
1053	1.0530e+000	61.897278	0.025548
1054	1.0540e+000	63.156128	2.207337
1055	1.0550e+000	64.430237	4.649715
1056	1.0560e+000	65.544128	5.952657
1057	1.0570e+000	66.757202	8.195761
1058	1.0580e+000	67.939758	10.030099
1059	1.0590e+000	69.618225	11.654944
1060	1.0600e+000	70.388794	13.519940
1061	1.0610e+000	71.365356	15.073251
1062	1.0620e+000	72.853088	16.698097
1063	1.0630e+000	74.020386	18.307613
1064	1.0640e+000	75.080872	19.687199
1065	1.0650e+000	76.332092	21.337592
1066	1.0660e+000	77.667236	22.487247
1067	1.0670e+000	78.758240	23.856614
1068	1.0680e+000	80.001831	25.052254
1069	1.0690e+000	81.230164	26.258115
1070	1.0700e+000	82.534790	27.458865
1071	1.0710e+000	83.648682	28.163987
1072	1.0720e+000	85.113525	29.053053
1073	1.0730e+000	86.318970	30.115845
1074	1.0740e+000	87.356567	30.734104
1075	1.0750e+000	88.584900	31.321705
1076	1.0760e+000	89.721680	32.169895
1077	1.0770e+000	91.026306	32.675743
1078	1.0780e+000	91.957092	33.314440
1079	1.0790e+000	93.269348	34.172849
1080	1.0800e+000	94.856262	34.397670
1081	1.0810e+000	95.817566	34.811546
1082	1.0820e+000	97.007751	35.240750
1083	1.0830e+000	98.266602	35.690393
1084	1.0840e+000	99.403381	36.088940
1085	1.0850e+000	100.585938	36.548802
1086	1.0860e+000	101.921082	37.197718
1087	1.0870e+000	103.118896	37.151732
1088	1.0880e+000	104.362488	37.591156
1089	1.0890e+000	104.888916	37.734224
1090	1.0900e+000	106.513977	38.291168
1091	1.0910e+000	107.810974	38.470003
1092	1.0920e+000	109.161377	38.577304
1093	1.0930e+000	110.160828	39.098481
1094	1.0940e+000	112.373352	40.232807
1095	1.0950e+000	112.586975	39.486809
1096	1.0960e+000	113.883972	39.926232
1097	1.0970e+000	114.990234	40.564929
1098	1.0980e+000	116.203308	40.375875
1099	1.0990e+000	117.523193	40.738655
1100	1.1000e+000	118.766785	40.794860
1101	1.1010e+000	120.002747	40.207259
1102	1.1020e+000	121.040344	41.326256
1103	1.1030e+000	122.367859	41.423338
1104	1.1040e+000	123.756409	41.617502
1105	1.1050e+000	124.633789	41.791228
1106	1.1060e+000	126.037598	42.062035
1107	1.1070e+000	126.991272	42.143788
1108	1.1080e+000	128.364563	42.327733
1109	1.1090e+000	129.585266	42.501459
1110	1.1100e+000	130.599976	42.562774
1111	1.1110e+000	132.019043	42.843800
1112	1.1120e+000	133.110046	42.184665
1113	1.1130e+000	134.208679	43.145265
1114	1.1140e+000	135.559082	43.196361
1115	1.1150e+000	136.734009	43.405854
1116	1.1160e+000	137.855530	43.569360
1117	1.1170e+000	139.045715	43.410963
1118	1.1180e+000	140.304565	44.151852
1119	1.1190e+000	141.510010	43.799291
1120	1.1200e+000	142.646790	44.003674
1121	1.1210e+000	144.012451	44.197838
1122	1.1220e+000	144.935608	44.208057
1123	1.1230e+000	146.369934	44.366454
1124	1.1240e+000	147.750854	44.284701
1125	1.1250e+000	148.658752	44.647481
1126	1.1260e+000	150.009155	44.713906
1127	1.1270e+000	151.161194	44.856974
1128	1.1280e+000	152.343750	44.964275
1129	1.1290e+000	153.602600	45.040918
1130	1.1300e+000	154.693604	45.132891
1131	1.1310e+000	155.845642	45.076685
1132	1.1320e+000	157.058716	44.739453
1133	1.1330e+000	158.172607	45.275959
1134	1.1340e+000	159.416199	45.240192
1135	1.1350e+000	160.568237	45.608081
1136	1.1360e+000	162.078857	45.398589
1137	1.1370e+000	163.108826	45.735821
1138	1.1380e+000	165.985107	46.762846
1139	1.1390e+000	165.435791	45.730711
1140	1.1400e+000	166.801453	46.037286
1141	1.1410e+000	168.022156	46.047505
1142	1.1420e+000	169.021606	46.221231
1143	1.1430e+000	170.326233	45.597862
1144	1.1440e+000	171.653748	46.405175
1145	1.1450e+000	172.500610	46.354080
1146	1.1460e+000	173.835754	46.149697
1147	1.1470e+000	174.987793	46.767955
1148	1.1480e+000	176.544189	46.502257
1149	1.1490e+000	177.574158	46.624887
1150	1.1500e+000	178.825378	46.701531
1151	1.1510e+000	179.962158	46.752627
1152	1.1520e+000	181.274414	46.727079
1153	1.1530e+000	181.632996	46.236559
1154	1.1540e+000	183.479309	47.059201
1155	1.1550e+000	184.814453	46.926352
1156	1.1560e+000	185.928345	47.130735
1157	1.1570e+000	187.026978	47.166502
1158	1.1580e+000	188.377380	47.043872
1159	1.1590e+000	189.605713	47.232927
1160	1.1600e+000	190.620422	47.289132
1161	1.1610e+000	191.795349	47.391324
1162	1.1620e+000	193.153381	47.467967
1163	1.1630e+000	193.305969	47.192050
1164	1.1640e+000	195.182800	47.401543
1165	1.1650e+000	196.739197	47.748994
1166	1.1660e+000	197.853088	47.677460
1167	1.1670e+000	199.028015	47.692789
1168	1.1680e+000	200.027466	47.238036
1169	1.1690e+000	201.545715	48.004473
1170	1.1700e+000	202.674866	47.922720
1171	1.1710e+000	203.903198	47.943158
1172	1.1720e+000	205.131531	48.050459
1173	1.1730e+000	206.230164	48.137322
1174	1.1740e+000	207.534790	48.070897
1175	1.1750e+000	208.732605	48.275280
1176	1.1760e+000	209.831238	48.091336
1177	1.1770e+000	211.082458	48.316157
1178	1.1780e+000	212.455750	48.622732
1179	1.1790e+000	213.310242	48.561417
1180	1.1800e+000	214.767456	48.520540
1181	1.1810e+000	215.835571	48.489883
1182	1.1820e+000	216.964722	48.454116
1183	1.1830e+000	218.162537	48.678937
1184	1.1840e+000	219.535828	48.765800
1185	1.1850e+000	220.817566	48.837334
1186	1.1860e+000	221.916199	48.816896
1187	1.1870e+000	223.190308	49.016169
1188	1.1880e+000	224.273682	48.934416
1189	1.1890e+000	225.585938	49.297196
1190	1.1900e+000	226.699829	49.026388
1191	1.1910e+000	227.836609	49.036607
1192	1.1920e+000	229.103088	49.072374
1193	1.1930e+000	230.094910	49.639537
1194	1.1940e+000	231.536865	49.481141
1195	1.1950e+000	232.780457	49.358511
1196	1.1960e+000	233.779907	49.445374
1197	1.1970e+000	234.046936	48.719814
1198	1.1980e+000	236.511230	49.562894
1199	1.1990e+000	237.419128	49.501579
1200	1.2000e+000	238.731384	49.292086
1201	1.2010e+000	239.982605	49.716181
1202	1.2020e+000	241.035461	49.731510
1203	1.2030e+000	242.370605	49.762167
1204	1.2040e+000	243.431091	49.813263
1205	1.2050e+000	244.621277	49.746839
1206	1.2060e+000	245.948792	50.063632
1207	1.2070e+000	247.108459	49.889907
1208	1.2080e+000	248.123169	50.089180
1209	1.2090e+000	249.473572	49.930783
1210	1.2100e+000	250.701904	50.298673
1211	1.2110e+000	252.029419	50.191372
1212	1.2120e+000	253.608704	49.981879
1213	1.2130e+000	254.188538	50.411084
1214	1.2140e+000	255.378723	50.324221
1215	1.2150e+000	256.690979	50.462179
1216	1.2160e+000	257.919312	50.513275
1217	1.2170e+000	259.117126	50.462179
1218	1.2180e+000	260.253906	50.354878
1219	1.2190e+000	261.375427	50.426412
1220	1.2200e+000	262.664795	50.983356
1221	1.2210e+000	263.946533	50.697220
1222	1.2220e+000	266.067505	51.131534
1223	1.2230e+000	266.380310	50.681891
1224	1.2240e+000	267.395020	50.543933
1225	1.2250e+000	268.730164	50.978247
1226	1.2260e+000	269.889832	51.019123
1227	1.2270e+000	270.896912	50.457070
1228	1.2280e+000	272.315979	50.983356
1229	1.2290e+000	273.780823	51.279712
1230	1.2300e+000	274.810791	51.249054
1231	1.2310e+000	275.978088	51.305259
1232	1.2320e+000	277.145386	51.392122
1233	1.2330e+000	278.358459	51.387013
1234	1.2340e+000	279.502869	51.376794
1235	1.2350e+000	280.647278	50.870945
1236	1.2360e+000	282.066345	51.494314
1237	1.2370e+000	282.768250	51.458547
1238	1.2380e+000	284.187317	51.714026
1239	1.2390e+000	285.636902	51.744683
1240	1.2400e+000	286.521912	51.683368
1241	1.2410e+000	287.734985	51.739573
1242	1.2420e+000	289.192200	51.749793
1243	1.2430e+000	290.275574	52.000162
1244	1.2440e+000	291.389465	52.035929
1245	1.2450e+000	292.823792	52.122792
1246	1.2460e+000	293.807983	52.071696
1247	1.2470e+000	295.074463	52.260750
1248	1.2480e+000	296.432495	52.286298
1249	1.2490e+000	297.409058	52.255641
1250	1.2500e+000	298.713684	52.439585
1251	1.2510e+000	300.193787	52.638859
1252	1.2520e+000	298.873901	52.562215
1253	1.2530e+000	297.996521	52.638859
1254	1.2540e+000	296.745300	52.485572
1255	1.2550e+000	295.326233	52.756379
1256	1.2560e+000	292.304993	51.218397
1257	1.2570e+000	293.266296	52.531558
1258	1.2580e+000	291.824341	52.286298
1259	1.2590e+000	290.779114	52.383380
1260	1.2600e+000	289.543152	52.449805
1261	1.2610e+000	288.146973	52.270969
1262	1.2620e+000	287.055969	52.235202
1263	1.2630e+000	285.919189	52.265860
1264	1.2640e+000	284.545898	52.296517
1265	1.2650e+000	283.454895	52.138120
1266	1.2660e+000	282.585144	52.281189
1267	1.2670e+000	280.815125	52.127901
1268	1.2680e+000	279.930115	52.061477
1269	1.2690e+000	278.778076	52.112573
1270	1.2700e+000	277.252197	52.398709
1271	1.2710e+000	275.444031	51.581177
1272	1.2720e+000	275.260925	52.429366
1273	1.2730e+000	273.651123	51.964395
1274	1.2740e+000	272.583008	52.076806
1275	1.2750e+000	271.537781	52.081915
1276	1.2760e+000	270.057678	52.071696
1277	1.2770e+000	268.943787	52.087025
1278	1.2780e+000	267.936707	52.061477
1279	1.2790e+000	266.517639	51.846875
1280	1.2800e+000	265.464783	51.954176
1281	1.2810e+000	264.083862	51.882642
1282	1.2820e+000	262.687683	51.734464
1283	1.2830e+000	261.726379	51.811108
1284	1.2840e+000	260.574341	52.010381
1285	1.2850e+000	259.155273	51.887751
1286	1.2860e+000	257.781982	51.668039
1287	1.2870e+000	257.118225	51.831546
1288	1.2880e+000	255.676270	51.714026
1289	1.2890e+000	254.684448	51.662930
1290	1.2900e+000	253.402710	51.724245
1291	1.2910e+000	252.113342	51.504533
1292	1.2920e+000	251.029968	51.632272
1293	1.2930e+000	249.687195	51.550519
1294	1.2940e+000	248.474121	51.524971
1295	1.2950e+000	247.406006	51.489204
1296	1.2960e+000	245.994568	51.632272
1297	1.2970e+000	244.895935	51.402341
1298	1.2980e+000	243.820190	51.443218
1299	1.2990e+000	242.584229	51.325698
1300	1.3000e+000	240.905762	51.105986
1301	1.3010e+000	240.203857	51.494314
1302	1.3020e+000	239.112854	51.233725
1303	1.3030e+000	237.533569	51.238835
1304	1.3040e+000	236.541748	51.228616
1305	1.3050e+000	235.542297	51.330807
1306	1.3060e+000	234.024048	51.054890
1307	1.3070e+000	232.940674	51.243945
1308	1.3080e+000	231.910706	51.427889
1309	1.3090e+000	230.270386	51.080438
1310	1.3100e+000	229.377747	50.482618
1311	1.3110e+000	228.256226	50.942479
1312	1.3120e+000	227.027893	51.019123
1313	1.3130e+000	225.646973	50.932260
1314	1.3140e+000	224.632263	50.896493
1315	1.3150e+000	222.404480	50.216920
1316	1.3160e+000	222.229004	50.835178
1317	1.3170e+000	220.848083	50.840288
1318	1.3180e+000	219.650269	50.748316
1319	1.3190e+000	218.605042	50.763644
1320	1.3200e+000	217.346191	50.835178
1321	1.3210e+000	216.094971	50.579700
1322	1.3220e+000	214.996338	50.661453
1323	1.3230e+000	213.813782	50.676781
1324	1.3240e+000	212.547302	50.589919
1325	1.3250e+000	211.402893	50.278235
1326	1.3260e+000	210.655212	50.656343
1327	1.3270e+000	208.854675	50.477508
1328	1.3280e+000	207.695007	50.451960
1329	1.3290e+000	206.604004	50.365097
1330	1.3300e+000	205.513000	50.743206
1331	1.3310e+000	204.132080	50.211810
1332	1.3320e+000	202.957153	50.344659
1333	1.3330e+000	201.774597	50.222029
1334	1.3340e+000	200.630188	50.150495
1335	1.3350e+000	199.310303	50.227139
1336	1.3360e+000	198.066711	50.094290
1337	1.3370e+000	196.998596	50.084071
1338	1.3380e+000	195.884705	50.186262
1339	1.3390e+000	194.595337	50.155605
1340	1.3400e+000	193.572998	50.043194
1341	1.3410e+000	191.970825	49.685524
1342	1.3420e+000	190.994263	49.823482
1343	1.3430e+000	189.704895	49.797934
1344	1.3440e+000	188.575745	49.976769
1345	1.3450e+000	187.683105	50.068742
1346	1.3460e+000	186.172485	49.731510
1347	1.3470e+000	184.936523	49.700852
1348	1.3480e+000	183.883667	49.680414
1349	1.3490e+000	182.579041	49.568003
1350	1.3500e+000	181.350708	49.522017
1351	1.3510e+000	180.198669	49.501579
1352	1.3520e+000	178.993225	49.455593
1353	1.3530e+000	177.665710	49.399387
1354	1.3540e+000	176.620483	49.338072
1355	1.3550e+000	175.308228	49.251210
1356	1.3560e+000	174.133301	49.435154
1357	1.3570e+000	173.042297	49.246100
1358	1.3580e+000	171.890259	49.343182
1359	1.3590e+000	168.968201	47.406652
1360	1.3600e+000	169.761658	49.516908
1361	1.3610e+000	168.029785	49.031498
1362	1.3620e+000	166.946411	49.286977
1363	1.3630e+000	166.000366	48.939525
1364	1.3640e+000	164.604187	48.842443
1365	1.3650e+000	163.543701	48.801567
1366	1.3660e+000	162.353516	48.760690
1367	1.3670e+000	160.949707	48.801567
1368	1.3680e+000	159.477234	48.776019
1369	1.3690e+000	158.683777	48.939525
1370	1.3700e+000	157.379150	48.607403
1371	1.3710e+000	156.188965	48.770909
1372	1.3720e+000	155.220032	48.607403
1373	1.3730e+000	153.755188	48.494992
1374	1.3740e+000	152.801514	48.806676
1375	1.3750e+000	151.390076	48.316157
1376	1.3760e+000	150.154114	48.198637
1377	1.3770e+000	148.887634	48.070897
1378	1.3780e+000	148.063660	48.265061
1379	1.3790e+000	146.690369	48.106664
1380	1.3800e+000	145.408630	48.259952
1381	1.3810e+000	144.302368	48.076007
1382	1.3820e+000	142.845154	47.999363
1383	1.3830e+000	141.647339	48.055569
1384	1.3840e+000	140.739441	47.892062
1385	1.3850e+000	139.312744	47.846076
1386	1.3860e+000	137.977600	47.733665
1387	1.3870e+000	137.252808	47.943158
1388	1.3880e+000	135.612488	47.672350
1389	1.3890e+000	134.483337	47.825638
1390	1.3900e+000	133.811951	48.106664
1391	1.3910e+000	131.965637	47.345338
1392	1.3920e+000	130.966187	47.605926
1393	1.3930e+000	129.920959	47.442419
1394	1.3940e+000	128.585815	47.406652
1395	1.3950e+000	127.410889	47.508844
1396	1.3960e+000	126.495361	47.498625
1397	1.3970e+000	124.885559	47.161393
1398	1.3980e+000	123.764038	47.094968
1399	1.3990e+000	122.634888	47.416872
1400	1.4000e+000	121.383667	46.997886
1401	1.4010e+000	120.086670	46.967229
1402	1.4020e+000	118.988037	47.002996
1403	1.4030e+000	117.904663	46.931462
1404	1.4040e+000	116.447449	47.125626
1405	1.4050e+000	115.592957	46.921243
1406	1.4060e+000	113.777161	46.389847
1407	1.4070e+000	112.808228	46.670873
1408	1.4080e+000	111.778259	46.701531
1409	1.4090e+000	110.633850	46.507367
1410	1.4100e+000	109.375000	46.665764
1411	1.4110e+000	108.146667	46.430723
1412	1.4120e+000	106.956482	46.338751
1413	1.4130e+000	105.659485	46.348970
1414	1.4140e+000	104.644775	46.282546
1415	1.4150e+000	103.363037	46.093491
1416	1.4160e+000	102.294922	46.052615
1417	1.4170e+000	100.929260	46.073053
1418	1.4180e+000	99.746704	45.357712
1419	1.4190e+000	98.594666	45.848232
1420	1.4200e+000	97.305298	45.848232
1421	1.4210e+000	96.260071	45.848232
1422	1.4220e+000	94.635010	45.183987
1423	1.4230e+000	94.238281	46.021957
1424	1.4240e+000	92.544556	45.516109
1425	1.4250e+000	91.453552	45.516109
1426	1.4260e+000	90.019226	45.475232
1427	1.4270e+000	89.019775	45.265740
1428	1.4280e+000	87.722778	45.408808
1429	1.4290e+000	86.410522	45.209534
1430	1.4300e+000	85.472107	45.051138
1431	1.4310e+000	84.243774	45.168658
1432	1.4320e+000	82.794189	45.066466
1433	1.4330e+000	82.000732	45.613191
1434	1.4340e+000	80.657959	44.565728
1435	1.4350e+000	79.223633	44.765001
1436	1.4360e+000	78.300476	44.698577
1437	1.4370e+000	77.011108	44.540180
1438	1.4380e+000	75.660706	44.872302
1439	1.4390e+000	74.768066	44.351126
1440	1.4400e+000	73.562622	44.279591
1441	1.4410e+000	71.990967	44.151852
1442	1.4420e+000	71.212769	44.146743
1443	1.4430e+000	69.740295	44.121195
1444	1.4440e+000	68.275452	43.906592
1445	1.4450e+000	67.436218	43.875935
1446	1.4460e+000	66.078186	43.865716
1447	1.4470e+000	64.826965	43.574470
1448	1.4480e+000	63.941956	43.727757
1449	1.4490e+000	62.721252	43.630675
1450	1.4500e+000	61.378479	43.431402
1451	1.4510e+000	59.883118	43.170813
1452	1.4520e+000	59.127808	43.129937
1453	1.4530e+000	57.586670	42.976649
1454	1.4540e+000	56.457520	42.772266
1455	1.4550e+000	55.320740	42.997088
1456	1.4560e+000	53.947449	42.690513
1457	1.4570e+000	52.955627	42.664965
1458	1.4580e+000	51.895142	42.516788
1459	1.4590e+000	50.476074	42.419706
1460	1.4600e+000	49.613953	42.297076
1461	1.4610e+000	48.217773	42.174446
1462	1.4620e+000	46.875000	42.005830
1463	1.4630e+000	45.852661	41.872981
1464	1.4640e+000	44.609070	41.893419
1465	1.4650e+000	43.601990	41.678817
1466	1.4660e+000	42.343140	41.418229
1467	1.4670e+000	41.252136	41.203626
1468	1.4680e+000	39.649963	41.091216
1469	1.4690e+000	38.925171	40.881723
1470	1.4700e+000	37.269592	40.478066
1471	1.4710e+000	36.155701	40.437190
1472	1.4720e+000	35.133362	40.212368
1473	1.4730e+000	33.813477	39.972218
1474	1.4740e+000	32.623291	39.849589
1475	1.4750e+000	31.387329	39.430603
1476	1.4760e+000	30.197144	39.190453
1477	1.4770e+000	28.892517	38.470003
1478	1.4780e+000	27.824402	38.776577
1479	1.4790e+000	26.794434	38.214524
1480	1.4800e+000	25.367737	37.872182
1481	1.4810e+000	24.139404	37.708676
1482	1.4820e+000	23.071289	37.248814
1483	1.4830e+000	21.850586	36.753185
1484	1.4840e+000	20.507813	36.191132
1485	1.4850e+000	19.439697	36.053173
1486	1.4860e+000	18.318176	35.286737
1487	1.4870e+000	17.005920	34.607163
1488	1.4880e+000	16.105652	33.876493
1489	1.4890e+000	14.648438	33.585248
1490	1.4900e+000	13.481140	32.997646
1491	1.4910e+000	12.390137	32.261867
1492	1.4920e+000	10.940552	30.912939
1493	1.4930e+000	10.009766	30.892501
1494	1.4940e+000	8.766174	29.942119
1495	1.4950e+000	7.591248	29.293203
1496	1.4960e+000	6.370544	28.588082
1497	1.4970e+000	4.974365	27.034770
1498	1.4980e+000	3.997803	26.390964
1499	1.4990e+000	2.647400	25.210651
1500	1.5000e+000	1.487732	24.280708
1501	1.5010e+000	-0.289917	22.732507
1502	1.5020e+000	-0.488281	22.083590
1503	1.5030e+000	-1.701355	20.504731
1504	1.5040e+000	-2.914429	19.339748
1505	1.5050e+000	-4.318237	17.791546
1506	1.5060e+000	-5.554199	15.890783
1507	1.5070e+000	-6.523132	14.557184
1508	1.5080e+000	-7.698059	13.504611
1509	1.5090e+000	-8.956909	11.787793
1510	1.5100e+000	-10.108948	10.137400
1511	1.5110e+000	-11.421204	8.624965
1512	1.5120e+000	-12.565613	6.938805
1513	1.5130e+000	-13.702393	5.324179
1514	1.5140e+000	-15.098572	3.341663
1515	1.5150e+000	-16.334534	1.640174
1516	1.5160e+000	-17.227173	0.091972
1517	1.5170e+000	-19.142151	-2.370844
1518	1.5180e+000	-19.813538	-3.443855
1519	1.5190e+000	-20.919800	-5.375275
1520	1.5200e+000	-22.140503	-7.046106
1521	1.5210e+000	-23.521423	-8.318391
1522	1.5220e+000	-24.459839	-10.704563
1523	1.5230e+000	-25.871277	-12.421381
1524	1.5240e+000	-27.091980	-14.296596
1525	1.5250e+000	-27.763367	-15.717058
1526	1.5260e+000	-29.373169	-17.331684
1527	1.5270e+000	-30.654907	-19.068940
1528	1.5280e+000	-31.333923	-20.300348
1529	1.5290e+000	-32.936096	-22.088700
1530	1.5300e+000	-34.370422	-23.636902
1531	1.5310e+000	-35.308838	-24.873419
1532	1.5320e+000	-36.697388	-26.334758
1533	1.5330e+000	-38.597107	-27.433317
1534	1.5340e+000	-38.894653	-28.772026
1535	1.5350e+000	-40.344238	-29.691750
1536	1.5360e+000	-41.709900	-30.647241
1537	1.5370e+000	-42.617798	-31.822444
1538	1.5380e+000	-43.968201	-32.660414
1539	1.5390e+000	-45.188904	-33.585248
1540	1.5400e+000	-46.257019	-34.423218
1541	1.5410e+000	-47.576904	-35.082353
1542	1.5420e+000	-49.003601	-36.180912
1543	1.5430e+000	-49.942017	-36.513035
1544	1.5440e+000	-51.254272	-37.172170
1545	1.5450e+000	-52.314758	-37.744443
1546	1.5460e+000	-53.565979	-38.260510
1547	1.5470e+000	-54.817200	-38.679495
1548	1.5480e+000	-56.121826	-39.021837
1549	1.5490e+000	-57.243347	-39.752507
1550	1.5500e+000	-58.624268	-39.762726
1551	1.5510e+000	-59.715271	-39.737178
1552	1.5520e+000	-60.638428	-40.472957
1553	1.5530e+000	-61.943054	-40.585368
1554	1.5540e+000	-63.453674	-40.769312
1555	1.5550e+000	-64.300537	-41.121873
1556	1.5560e+000	-65.780640	-41.157640
1557	1.5570e+000	-67.085266	-41.346694
1558	1.5580e+000	-67.970276	-41.387571
1559	1.5590e+000	-69.137573	-41.704365
1560	1.5600e+000	-70.808411	-42.455473
1561	1.5610e+000	-71.594238	-42.000720
1562	1.5620e+000	-73.226929	-41.918967
1563	1.5630e+000	-74.111938	-42.077364
1564	1.5640e+000	-76.347351	-42.859129
1565	1.5650e+000	-76.583862	-42.067145
1566	1.5660e+000	-77.835083	-42.317514
1567	1.5670e+000	-78.804016	-42.527007
1568	1.5680e+000	-80.131531	-42.470801
1569	1.5690e+000	-81.405640	-42.664965
1570	1.5700e+000	-82.695007	-42.808033
1571	1.5710e+000	-83.671570	-42.348172
1572	1.5720e+000	-85.060120	-42.854020
1573	1.5730e+000	-86.006165	-43.032855
1574	1.5740e+000	-87.287903	-43.181033
1575	1.5750e+000	-88.562012	-43.175923
1576	1.5760e+000	-89.530945	-43.257676
1577	1.5770e+000	-90.980530	-43.022636
1578	1.5780e+000	-92.193604	-43.625566
1579	1.5790e+000	-93.315125	-43.492717
1580	1.5800e+000	-94.802856	-43.528484
1581	1.5810e+000	-95.596313	-43.615347
1582	1.5820e+000	-96.900940	-43.717538
1583	1.5830e+000	-98.052979	-43.737976
1584	1.5840e+000	-99.403381	-43.952579
1585	1.5850e+000	-100.608826	-43.891264
1586	1.5860e+000	-101.959229	-44.029222
1587	1.5870e+000	-102.828979	-44.136523
1588	1.5880e+000	-104.217529	-44.090537
1589	1.5890e+000	-105.293274	-44.003674
1590	1.5900e+000	-106.887817	-44.248934
1591	1.5910e+000	-107.627869	-44.443098
1592	1.5920e+000	-108.978271	-44.381783
1593	1.5930e+000	-110.198975	-44.851864
1594	1.5940e+000	-111.358643	-44.473755
1595	1.5950e+000	-112.632751	-44.708796
1596	1.5960e+000	-113.502502	-44.412440
1597	1.5970e+000	-114.952087	-44.785440
1598	1.5980e+000	-116.020203	-44.437988
1599	1.5990e+000	-117.393494	-44.816097
1600	1.6000e+000	-118.644714	-44.943836
1601	1.6010e+000	-119.804382	-44.989823
1602	1.6020e+000	-121.017456	-45.209534
1603	1.6030e+000	-122.222900	-45.092014
1604	1.6040e+000	-123.435974	-45.327055
1605	1.6050e+000	-124.649048	-45.260630
1606	1.6060e+000	-125.747681	-45.306616
1607	1.6070e+000	-127.555847	-45.408808
1608	1.6080e+000	-127.952576	-45.373041
1609	1.6090e+000	-129.425049	-45.204425
1610	1.6100e+000	-130.424500	-45.567205
1611	1.6110e+000	-131.759644	-45.618301
1612	1.6120e+000	-132.789612	-45.940204
1613	1.6130e+000	-134.185791	-45.061357
1614	1.6140e+000	-135.185242	-46.256998
1615	1.6150e+000	-136.611938	-45.781807
1616	1.6160e+000	-137.756348	-45.838012
1617	1.6170e+000	-138.671875	-45.929985
1618	1.6180e+000	-140.174866	-45.970861
1619	1.6190e+000	-141.349792	-46.241669
1620	1.6200e+000	-142.532349	-46.083272
1621	1.6210e+000	-143.714905	-46.195683
1622	1.6220e+000	-144.920349	-46.282546
1623	1.6230e+000	-146.675110	-46.696421
1624	1.6240e+000	-147.346497	-46.190573
1625	1.6250e+000	-148.529053	-46.471600
1626	1.6260e+000	-149.795532	-46.318313
1627	1.6270e+000	-151.000977	-46.624887
1628	1.6280e+000	-151.687622	-45.960642
1629	1.6290e+000	-153.457642	-46.338751
1630	1.6300e+000	-154.602051	-46.706640
1631	1.6310e+000	-155.578613	-46.767955
1632	1.6320e+000	-156.959534	-47.207379
1633	1.6330e+000	-158.058167	-46.900804
1634	1.6340e+000	-159.248352	-46.951900
1635	1.6350e+000	-160.705566	-46.844599
1636	1.6360e+000	-161.613464	-46.951900
1637	1.6370e+000	-162.902832	-46.987667
1638	1.6380e+000	-164.199829	-47.146064
1639	1.6390e+000	-165.153503	-47.120516
1640	1.6400e+000	-166.503906	-47.222708
1641	1.6410e+000	-167.793274	-47.462858
1642	1.6420e+000	-168.952942	-47.340228
1643	1.6430e+000	-170.478821	-47.324899
1644	1.6440e+000	-171.371460	-47.330009
1645	1.6450e+000	-172.691345	-48.142431
1646	1.6460e+000	-173.889160	-47.483296
1647	1.6470e+000	-175.010681	-47.524173
1648	1.6480e+000	-176.094055	-47.646803
1649	1.6490e+000	-177.398682	-47.662131
1650	1.6500e+000	-178.565979	-47.938048
1651	1.6510e+000	-179.687500	-47.580378
1652	1.6520e+000	-180.923462	-47.687679
1653	1.6530e+000	-182.228088	-47.866514
1654	1.6540e+000	-183.120728	-47.846076
1655	1.6550e+000	-184.608459	-47.677460
1656	1.6560e+000	-185.813904	-48.832224
1657	1.6570e+000	-186.874390	-48.035130
1658	1.6580e+000	-188.186646	-48.101555
1659	1.6590e+000	-189.201355	-47.840966
1660	1.6600e+000	-190.582275	-48.367253
1661	1.6610e+000	-191.757202	-48.137322
1662	1.6620e+000	-192.924500	-48.178199
1663	1.6630e+000	-194.381714	-48.290609
1664	1.6640e+000	-195.297241	-48.224185
1665	1.6650e+000	-196.823120	-48.464335
1666	1.6660e+000	-197.761536	-48.653389
1667	1.6670e+000	-198.982239	-48.515431
1668	1.6680e+000	-200.225830	-48.678937
1669	1.6690e+000	-201.217651	-48.479664
1670	1.6700e+000	-202.514648	-48.673827
1671	1.6710e+000	-203.628540	-48.719814
1672	1.6720e+000	-204.872131	-48.878211
1673	1.6730e+000	-206.130981	-48.827115
1674	1.6740e+000	-207.427979	-48.806676
1675	1.6750e+000	-209.228516	-49.470921
1676	1.6760e+000	-209.640503	-48.827115
1677	1.6770e+000	-210.914612	-49.261429
1678	1.6780e+000	-212.066650	-48.980402
1679	1.6790e+000	-213.264465	-49.011060
1680	1.6800e+000	-214.569092	-49.011060
1681	1.6810e+000	-215.606689	-49.286977
1682	1.6820e+000	-216.636658	-49.143908
1683	1.6830e+000	-218.170166	-49.302305
1684	1.6840e+000	-219.367981	-49.353401
1685	1.6850e+000	-220.573425	-49.312525
1686	1.6860e+000	-221.771240	-49.430045
1687	1.6870e+000	-222.877502	-49.527127
1688	1.6880e+000	-224.273682	-49.281867
1689	1.6890e+000	-225.570679	-49.613990
1690	1.6900e+000	-226.409912	-49.578223
1691	1.6910e+000	-227.645874	-49.716181
1692	1.6920e+000	-228.828430	-49.440264
1693	1.6930e+000	-229.927063	-49.751948
1694	1.6940e+000	-231.002808	-49.828592
1695	1.6950e+000	-232.597351	-49.777496
1696	1.6960e+000	-233.619690	-49.787715
1697	1.6970e+000	-234.924316	-49.818373
1698	1.6980e+000	-236.038208	-49.680414
1699	1.6990e+000	-237.236023	-49.981879
1700	1.7000e+000	-238.677979	-49.879688
1701	1.7010e+000	-239.761353	-50.017646
1702	1.7020e+000	-240.875244	-50.099399
1703	1.7030e+000	-242.240906	-50.227139
1704	1.7040e+000	-243.247986	-50.196481
1705	1.7050e+000	-244.438171	-50.206700
1706	1.7060e+000	-246.047974	-50.549042
1707	1.7070e+000	-246.902466	-50.365097
1708	1.7080e+000	-248.107910	-51.065109
1709	1.7090e+000	-249.008179	-49.823482
1710	1.7100e+000	-250.610352	-50.513275
1711	1.7110e+000	-251.701355	-50.324221
1712	1.7120e+000	-252.906799	-50.533713
1713	1.7130e+000	-254.158020	-50.538823
1714	1.7140e+000	-255.355835	-50.702329
1715	1.7150e+000	-256.553650	-50.707439
1716	1.7160e+000	-257.690430	-50.528604
1717	1.7170e+000	-258.911133	-50.886274
1718	1.7180e+000	-260.101318	-50.891384
1719	1.7190e+000	-261.245728	-50.794302
1720	1.7200e+000	-262.474060	-51.008904
1721	1.7210e+000	-264.541626	-51.576067
1722	1.7220e+000	-264.755249	-50.579700
1723	1.7230e+000	-266.128540	-51.034452
1724	1.7240e+000	-267.494202	-50.446851
1725	1.7250e+000	-268.554688	-51.075328
1726	1.7260e+000	-269.683838	-51.172410
1727	1.7270e+000	-270.835876	-51.213287
1728	1.7280e+000	-271.949768	-51.223506
1729	1.7290e+000	-273.429871	-51.295040
1730	1.7300e+000	-274.536133	-51.182630
1731	1.7310e+000	-275.756836	-51.341026
1732	1.7320e+000	-276.824951	-51.351246
1733	1.7330e+000	-278.175354	-51.422780
1734	1.7340e+000	-279.319763	-51.346136
1735	1.7350e+000	-280.738831	-50.886274
1736	1.7360e+000	-281.692505	-51.565848
1737	1.7370e+000	-282.638550	-51.412561
1738	1.7380e+000	-284.271240	-51.601615
1739	1.7390e+000	-285.438538	-51.652711
1740	1.7400e+000	-286.483765	-51.754902
1741	1.7410e+000	-287.796021	-51.851984
1742	1.7420e+000	-288.734436	-51.877532
1743	1.7430e+000	-290.138245	-51.954176
1744	1.7440e+000	-291.374207	-51.933737
1745	1.7450e+000	-292.572021	-51.933737
1746	1.7460e+000	-293.548584	-51.647601
1747	1.7470e+000	-295.082092	-52.342503
1748	1.7480e+000	-296.043396	-52.112573
1749	1.7490e+000	-297.256470	-52.133011
1750	1.7500e+000	-298.637390	-52.189216
1751	1.7510e+000	-299.797058	-51.974614
1752	1.7520e+000	-298.965454	-51.826436
1753	1.7530e+000	-297.790527	-52.214764
1754	1.7540e+000	-296.157837	-52.224983
1755	1.7550e+000	-295.028687	-52.061477
1756	1.7560e+000	-293.998718	-51.943957
1757	1.7570e+000	-292.907715	-52.189216
1758	1.7580e+000	-291.519165	-52.000162
1759	1.7590e+000	-290.496826	-52.092134
1760	1.7600e+000	-289.245605	-52.010381
1761	1.7610e+000	-287.994385	-51.984833
1762	1.7620e+000	-286.643982	-51.821327
1763	1.7630e+000	-285.606384	-51.882642
1764	1.7640e+000	-284.317017	-51.984833
1765	1.7650e+000	-283.241272	-51.949066
1766	1.7660e+000	-282.043457	-51.913299
1767	1.7670e+000	-281.295776	-52.756379
1768	1.7680e+000	-279.762268	-51.805998
1769	1.7690e+000	-278.480530	-52.035929
1770	1.7700e+000	-276.947021	-51.841765
1771	1.7710e+000	-276.260376	-51.918409
1772	1.7720e+000	-274.780273	-51.504533
1773	1.7730e+000	-273.582458	-51.662930
1774	1.7740e+000	-272.888184	-51.923518
1775	1.7750e+000	-271.163940	-51.831546
1776	1.7760e+000	-270.111084	-51.570957
1777	1.7770e+000	-268.936157	-51.530081
1778	1.7780e+000	-267.616272	-51.637382
1779	1.7790e+000	-266.288757	-51.698697
1780	1.7800e+000	-265.350342	-51.550519
1781	1.7810e+000	-263.961792	-51.514752
1782	1.7820e+000	-263.763428	-51.954176
1783	1.7830e+000	-261.840820	-51.586286
1784	1.7840e+000	-260.688782	-51.673149
1785	1.7850e+000	-259.048462	-51.422780
1786	1.7860e+000	-258.201599	-51.397232
1787	1.7870e+000	-256.706238	-50.738096
1788	1.7880e+000	-255.455017	-51.325698
1789	1.7890e+000	-254.669189	-51.407451
1790	1.7900e+000	-253.402710	-51.438108
1791	1.7910e+000	-252.059937	-51.330807
1792	1.7920e+000	-251.098633	-51.458547
1793	1.7930e+000	-249.740601	-50.896493
1794	1.7940e+000	-248.466492	-51.095767
1795	1.7950e+000	-247.421265	-51.223506
1796	1.7960e+000	-245.880127	-51.080438
1797	1.7970e+000	-245.429993	-51.432999
1798	1.7980e+000	-243.843079	-51.126424
1799	1.7990e+000	-242.561340	-50.610357
1800	1.8000e+000	-241.195679	-51.141753
1801	1.8010e+000	-239.700317	-50.911822
1802	1.8020e+000	-238.822937	-50.983356
1803	1.8030e+000	-237.648010	-51.085548
1804	1.8040e+000	-236.572266	-51.075328
1805	1.8050e+000	-235.282898	-50.911822
1806	1.8060e+000	-233.886719	-50.804521
1807	1.8070e+000	-233.062744	-50.927151
1808	1.8080e+000	-231.697083	-50.952699
1809	1.8090e+000	-230.522156	-50.824959
1810	1.8100e+000	-229.293823	-50.799411
1811	1.8110e+000	-228.202820	-50.656343
1812	1.8120e+000	-225.135803	-49.654866
1813	1.8130e+000	-225.814819	-50.865836
1814	1.8140e+000	-224.449158	-51.065109
1815	1.8150e+000	-223.197937	-50.778973
1816	1.8160e+000	-222.259521	-50.641014
1817	1.8170e+000	-220.802307	-50.523494
1818	1.8180e+000	-219.711304	-50.492837
1819	1.8190e+000	-218.475342	-51.295040
1820	1.8200e+000	-217.353821	-50.431522
1821	1.8210e+000	-216.018677	-50.252687
1822	1.8220e+000	-214.782715	-50.457070
1823	1.8230e+000	-213.722229	-50.262906
1824	1.8240e+000	-212.348938	-50.206700
1825	1.8250e+000	-211.181641	-50.354878
1826	1.8260e+000	-210.052490	-50.186262
1827	1.8270e+000	-207.824707	-49.900126
1828	1.8280e+000	-207.954407	-50.211810
1829	1.8290e+000	-206.405640	-50.554152
1830	1.8300e+000	-205.375671	-49.741729
1831	1.8310e+000	-204.238892	-50.206700
1832	1.8320e+000	-202.774048	-50.053413
1833	1.8330e+000	-201.866150	-50.114728
1834	1.8340e+000	-200.439453	-50.094290
1835	1.8350e+000	-199.256897	-49.833701
1836	1.8360e+000	-198.097229	-49.976769
1837	1.8370e+000	-196.807861	-49.910345
1838	1.8380e+000	-195.777893	-49.915455
1839	1.8390e+000	-194.747925	-49.971660
1840	1.8400e+000	-193.145752	-49.746839
1841	1.8410e+000	-191.993713	-49.854140
1842	1.8420e+000	-190.711975	-49.665085
1843	1.8430e+000	-189.346313	-49.910345
1844	1.8440e+000	-188.301086	-49.649757
1845	1.8450e+000	-187.255859	-49.644647
1846	1.8460e+000	-186.073303	-49.828592
1847	1.8470e+000	-184.860229	-49.522017
1848	1.8480e+000	-183.898926	-49.910345
1849	1.8490e+000	-182.235718	-49.189895
1850	1.8500e+000	-181.213379	-49.562894
1851	1.8510e+000	-180.206299	-49.792825
1852	1.8520e+000	-178.787231	-49.261429
1853	1.8530e+000	-177.597046	-49.281867
1854	1.8540e+000	-176.506042	-49.256319
1855	1.8550e+000	-175.117493	-49.312525
1856	1.8560e+000	-174.118042	-49.281867
1857	1.8570e+000	-172.729492	-49.189895
1858	1.8580e+000	-170.921326	-48.832224
1859	1.8590e+000	-170.623779	-49.256319
1860	1.8600e+000	-169.113159	-48.919087
1861	1.8610e+000	-167.991638	-49.123470
1862	1.8620e+000	-167.083740	-48.980402
1863	1.8630e+000	-165.672302	-49.123470
1864	1.8640e+000	-164.443970	-49.041717
1865	1.8650e+000	-163.223267	-48.832224
1866	1.8660e+000	-162.544250	-49.302305
1867	1.8670e+000	-160.682678	-48.678937
1868	1.8680e+000	-159.469604	-48.474554
1869	1.8690e+000	-158.493042	-48.740252
1870	1.8700e+000	-157.112122	-48.750471
1871	1.8710e+000	-156.005859	-48.735142
1872	1.8720e+000	-154.708862	-48.627841
1873	1.8730e+000	-154.335022	-48.796457
1874	1.8740e+000	-152.336121	-48.551198
1875	1.8750e+000	-150.863647	-48.142431
1876	1.8760e+000	-149.894714	-48.540978
1877	1.8770e+000	-148.880005	-48.561417
1878	1.8780e+000	-147.430420	-48.162870
1879	1.8790e+000	-146.362305	-48.454116
1880	1.8800e+000	-145.278931	-48.341705
1881	1.8810e+000	-144.081116	-48.213966
1882	1.8820e+000	-142.623901	-48.648280
1883	1.8830e+000	-141.662598	-48.035130
1884	1.8840e+000	-140.357971	-48.116884
1885	1.8850e+000	-138.916016	-48.070897
1886	1.8860e+000	-137.969971	-48.193527
1887	1.8870e+000	-136.970520	-47.953377
1888	1.8880e+000	-134.948730	-48.101555
1889	1.8890e+000	-134.674072	-47.907391
1890	1.8900e+000	-133.239746	-47.897172
1891	1.8910e+000	-132.019043	-47.846076
1892	1.8920e+000	-130.867004	-47.871624
1893	1.8930e+000	-129.676819	-47.764323
1894	1.8940e+000	-128.196716	-47.636583
1895	1.8950e+000	-127.189636	-47.697898
1896	1.8960e+000	-125.938416	-47.442419
1897	1.8970e+000	-124.725342	-47.498625
1898	1.8980e+000	-123.718262	-47.365776
1899	1.8990e+000	-122.367859	-47.483296
1900	1.9000e+000	-121.139526	-47.467967
1901	1.9010e+000	-120.010376	-47.360666
1902	1.9020e+000	-118.873596	-47.120516
1903	1.9030e+000	-117.652893	-47.197160
1904	1.9040e+000	-116.424561	-47.309570
1905	1.9050e+000	-115.104675	-46.957010
1906	1.9060e+000	-114.013672	-47.192050
1907	1.9070e+000	-112.854004	-47.120516
1908	1.9080e+000	-111.549377	-46.931462
1909	1.9090e+000	-110.412598	-47.059201
1910	1.9100e+000	-109.085083	-47.002996
1911	1.9110e+000	-108.139038	-46.885476
1912	1.9120e+000	-106.948853	-46.941681
1913	1.9130e+000	-105.560303	-46.752627
1914	1.9140e+000	-104.286194	-46.670873
1915	1.9150e+000	-103.157043	-46.834380
1916	1.9160e+000	-102.096558	-46.773065
1917	1.9170e+000	-100.730896	-46.594230
1918	1.9180e+000	-100.631714	-47.089859
1919	1.9190e+000	-98.472595	-46.374518
1920	1.9200e+000	-97.160339	-46.374518
1921	1.9210e+000	-96.443176	-46.670873
1922	1.9220e+000	-94.802856	-46.512477
1923	1.9230e+000	-93.627930	-46.001519
1924	1.9240e+000	-92.399597	-46.256998
1925	1.9250e+000	-91.293335	-46.180354
1926	1.9260e+000	-89.897156	-46.103710
1927	1.9270e+000	-88.851929	-46.134368
1928	1.9280e+000	-87.707520	-46.957010
1929	1.9290e+000	-86.608887	-46.098601
1930	1.9300e+000	-84.655762	-45.669396
1931	1.9310e+000	-84.045410	-45.843122
1932	1.9320e+000	-82.763672	-45.674506
1933	1.9330e+000	-82.489014	-46.190573
1934	1.9340e+000	-80.291748	-45.730711
1935	1.9350e+000	-79.231262	-45.643848
1936	1.9360e+000	-78.018188	-45.756259
1937	1.9370e+000	-76.866150	-45.510999
1938	1.9380e+000	-75.492859	-45.214644
1939	1.9390e+000	-74.485779	-45.434356
1940	1.9400e+000	-73.402405	-45.342383
1941	1.9410e+000	-71.838379	-45.444575
1942	1.9420e+000	-71.075439	-45.224863
1943	1.9430e+000	-69.679260	-44.897850
1944	1.9440e+000	-68.763733	-45.025590
1945	1.9450e+000	-67.375183	-45.071576
1946	1.9460e+000	-65.986633	-44.994932
1947	1.9470e+000	-64.880371	-44.933617
1948	1.9480e+000	-64.865112	-45.556986
1949	1.9490e+000	-61.882019	-44.489084
1950	1.9500e+000	-61.195374	-44.744563
1951	1.9510e+000	-59.944153	-44.831426
1952	1.9520e+000	-58.853149	-44.754782
1953	1.9530e+000	-57.434082	-44.310249
1954	1.9540e+000	-56.480408	-44.499303
1955	1.9550e+000	-55.343628	-44.601495
1956	1.9560e+000	-54.039001	-44.596385
1957	1.9570e+000	-53.009033	-44.279591
1958	1.9580e+000	-51.956177	-44.979604
1959	1.9590e+000	-51.254272	-44.591276
1960	1.9600e+000	-49.423218	-44.213167
1961	1.9610e+000	-48.057556	-44.141633
1962	1.9620e+000	-46.844482	-44.090537
1963	1.9630e+000	-46.295166	-44.121195
1964	1.9640e+000	-44.288635	-43.957688
1965	1.9650e+000	-43.174744	-43.783963
1966	1.9660e+000	-41.938782	-43.763524
1967	1.9670e+000	-40.855408	-43.748196
1968	1.9680e+000	-39.566040	-43.548922
1969	1.9690e+000	-38.391113	-43.605127
1970	1.9700e+000	-37.208557	-43.579579
1971	1.9710e+000	-36.010742	-43.364977
1972	1.9720e+000	-34.934998	-43.364977
1973	1.9730e+000	-33.622742	-42.869348
1974	1.9740e+000	-32.806396	-43.656223
1975	1.9750e+000	-31.105042	-43.119718
1976	1.9760e+000	-29.891968	-43.109498
1977	1.9770e+000	-28.701782	-42.925554
1978	1.9780e+000	-27.442932	-42.869348
1979	1.9790e+000	-26.062012	-42.332843
1980	1.9800e+000	-25.169373	-42.762047
1981	1.9810e+000	-24.147034	-42.644527
1982	1.9820e+000	-22.933960	-42.562774
1983	1.9830e+000	-21.499634	-42.373719
1984	1.9840e+000	-20.545959	-42.465692
1985	1.9850e+000	-19.233704	-42.297076
1986	1.9860e+000	-17.982483	-42.164227
1987	1.9870e+000	-16.899109	-42.154008
1988	1.9880e+000	-15.594482	-42.143788
1989	1.9890e+000	-14.419556	-41.704365
1990	1.9900e+000	-13.038635	-41.816776
1991	1.9910e+000	-11.932373	-41.755461
1992	1.9920e+000	-10.795593	-41.576625
1993	1.9930e+000	-9.773254	-41.678817
1994	1.9940e+000	-7.850647	-41.673707
1995	1.9950e+000	-7.194519	-41.377352
1996	1.9960e+000	-5.950928	-41.285380
1997	1.9970e+000	-4.768372	-41.157640
1998	1.9980e+000	-3.684998	-41.075887
1999	1.9990e+000	-2.433777	-40.779531
2000	2.0000e+000	-1.319885	-40.876613
2001	2.0010e+000	-0.205994	-40.707997

Center data before PMax,±Pr and ±Vc Calc.

PMax (µC/cm2):	5.26e+001
Pr (µC/cm2):	2.30e+001
-Pr (µC/cm2):	-4.07e+001
Ec:	6.19e-003
-Ec:	-1.73e-003
C (Max-Eff) (nF):	1.38e+000
K (Eff):	1.98e+003
Vert. (±Pr) Shift (µC/cm2):	-8.86e+000
Horiz. Shift (±Ec):	2.23e-003
Offset (µC/cm2):	4.14e+001

A (Loop Area - µC/cm2·Volts):	7.47e+003



Hysteresis Version: 5.16.2 - Radiant Technologies, Inc., 1999 - 3/20/18

