»»»»»»»»»»»»»»»»»»»»»»»»»»»»»»»»»»»» Hysteresis ««««««««««««««««««««««««««««««««««««
»»»  Executed Version:	5.12.0
»»»  Vision Version:	5.12.5 (R)
»»»  Vision Compiled:	2/24/17
»»»  Driver Version:	5.12.4
»»»  Windows Version:	Windows 7
»»»  Processor Information:	x86 (AMD or Intel) - 2 Processors
»»»  Tester Name:	PMF0910-256
»»»  Tester S/N:	PMF0910-256
»»»  Internal Amp Type:	 RTI 100V      
»»»  Internal Amp S/N:	 iAB1-0000     
»»»  Execution Count:	1
»»»»»»»»»»»»»»»»»»»»»»»»»»»»»»»»»»»»»»»»»»««««««««««««««««««««««««««««««««««««««««««

Stored:	8/3/2017 - 10:49:24
Configured:	08/03/17 10:04:09 AM
Executed:	08/03/17 10:48:59 AM

»»»»»»»»»»»»»»»»»»»»»»»»»»»»»»»»»»» Sample Info ««««««««««««««««««««««««««««««««««««
Sample Name:	
Lot Name:	
Wafer Name:	
Die Row/Column:	0/0
Capacitor Number:	0
Sample Area (cm2):	4.91e-006
Sample Thickness (µm):	1.00e-001

Mux Loop Adjustment:	Disabled

Amplifier:	Internal

»»»»»»»»»»»»»»»»»»»»»»»»»»»»»»»»»»» Tester Info «««««««««««««««««««««««««««««««««««
Tester Name:	PMF0910-256
Tester Serial Number:	PMF0910-256
Return Signal Amp. Level:	16.67 [Index: 1]

»»»»»»»»»»»»»»»»»»»»»»»»»»»»»»»» Hysteresis Info ««««««««««««««««««««««««««««««««««
Task Name:	Hyst-1
Volts:	3.00
Field:	300.00 (kV/cm)
Hysteresis Period (ms):	8.00e+000
Preset:	Enabled
Preset Delay (ms):	1.00e+003
Profile:	Double Bipolar

»»»»»»»»»»»»»»»»»»»»»»»»»»»»»»»»»»»»»» Data «««««««««««««««««««««««««««««««««««««««
Points:	2001

Valid Data

Point	Time (ms)	Drive Voltage	Measured Polarization
   1	4.0000e-003	-0.0019	-9.936279
   2	8.0000e-003	0.0123	-9.932571
   3	1.2000e-002	0.0201	-9.742549
   4	1.6000e-002	0.0335	-9.796312
   5	2.0000e-002	0.0447	-9.652637
   6	2.4000e-002	0.0567	-9.579409
   7	2.8000e-002	0.0701	-9.349529
   8	3.2000e-002	0.0809	-9.293913
   9	3.6000e-002	0.0967	-9.077010
  10	4.0000e-002	0.1064	-8.774829
  11	4.4000e-002	0.1154	-8.593150
  12	4.8000e-002	0.1297	-8.243696
  13	5.2000e-002	0.1414	-8.085190
  14	5.6000e-002	0.1542	-7.571668
  15	6.0000e-002	0.1682	-7.180501
  16	6.4000e-002	0.1781	-6.968233
  17	6.8000e-002	0.1918	-6.503839
  18	7.2000e-002	0.2013	-6.068179
  19	7.6000e-002	0.2126	-5.633447
  20	8.0000e-002	0.2276	-5.285846
  21	8.4000e-002	0.2365	-4.713927
  22	8.8000e-002	0.2515	-4.268999
  23	9.2000e-002	0.2635	-3.804604
  24	9.6000e-002	0.2716	-3.330941
  25	1.0000e-001	0.2853	-2.944409
  26	1.0400e-001	0.2975	-2.436448
  27	1.0800e-001	0.3090	-2.020255
  28	1.1200e-001	0.3208	-1.467801
  29	1.1600e-001	0.3349	-0.981161
  30	1.2000e-001	0.3471	-0.372164
  31	1.2400e-001	0.3612	0.041249
  32	1.2800e-001	0.3705	0.575163
  33	1.3200e-001	0.3810	0.987649
  34	1.3600e-001	0.3962	1.552153
  35	1.4000e-001	0.4070	2.165783
  36	1.4400e-001	0.4160	2.636666
  37	1.4800e-001	0.4298	3.136284
  38	1.5200e-001	0.4421	3.654441
  39	1.5600e-001	0.4536	4.334811
  40	1.6000e-001	0.4663	4.700950
  41	1.6400e-001	0.4776	5.174614
  42	1.6800e-001	0.4895	5.773414
  43	1.7200e-001	0.4993	6.209074
  44	1.7600e-001	0.5145	6.730938
  45	1.8000e-001	0.5250	7.255583
  46	1.8400e-001	0.5377	7.838625
  47	1.8800e-001	0.5501	8.203837
  48	1.9200e-001	0.5608	8.820249
  49	1.9600e-001	0.5720	9.233662
  50	2.0000e-001	0.5883	9.907544
  51	2.0400e-001	0.5978	10.154109
  52	2.0800e-001	0.6109	10.625918
  53	2.1200e-001	0.6217	11.124609
  54	2.1600e-001	0.6344	11.713213
  55	2.2000e-001	0.6483	11.964412
  56	2.2400e-001	0.6597	12.579897
  57	2.2800e-001	0.6717	13.141620
  58	2.3200e-001	0.6827	13.616210
  59	2.3600e-001	0.6958	13.973080
  60	2.4000e-001	0.7085	14.464356
  61	2.4400e-001	0.7191	14.923189
  62	2.4800e-001	0.7330	15.362556
  63	2.5200e-001	0.7401	15.786165
  64	2.5600e-001	0.7549	16.172697
  65	2.6000e-001	0.7656	16.761301
  66	2.6400e-001	0.7793	17.020842
  67	2.6800e-001	0.7893	17.410155
  68	2.7200e-001	0.8041	17.823568
  69	2.7600e-001	0.8163	18.254593
  70	2.8000e-001	0.8278	18.728256
  71	2.8400e-001	0.8370	19.069368
  72	2.8800e-001	0.8493	19.556009
  73	2.9200e-001	0.8610	19.952737
  74	2.9600e-001	0.8753	20.298484
  75	3.0000e-001	0.8876	20.545049
  76	3.0400e-001	0.8994	21.070621
  77	3.0800e-001	0.9109	21.500719
  78	3.1200e-001	0.9232	21.713914
  79	3.1600e-001	0.9349	22.274709
  80	3.2000e-001	0.9476	22.559278
  81	3.2400e-001	0.9573	22.930052
  82	3.2800e-001	0.9708	23.319365
  83	3.3200e-001	0.9841	23.710532
  84	3.3600e-001	0.9953	23.975635
  85	3.4000e-001	1.0081	24.527161
  86	3.4400e-001	1.0196	24.842319
  87	3.4800e-001	1.0303	25.264075
  88	3.5200e-001	1.0430	25.612602
  89	3.5600e-001	1.0550	26.010257
  90	3.6000e-001	1.0677	26.431086
  91	3.6400e-001	1.0789	26.787029
  92	3.6800e-001	1.0892	27.129994
  93	3.7200e-001	1.1028	27.418271
  94	3.7600e-001	1.1160	27.971651
  95	3.8000e-001	1.1278	28.293298
  96	3.8400e-001	1.1394	28.518543
  97	3.8800e-001	1.1494	29.025576
  98	3.9200e-001	1.1643	29.386154
  99	3.9600e-001	1.1734	29.763417
 100	4.0000e-001	1.1868	30.004420
 101	4.0400e-001	1.1971	30.398367
 102	4.0800e-001	1.2108	30.671813
 103	4.1200e-001	1.2249	30.956382
 104	4.1600e-001	1.2341	31.291932
 105	4.2000e-001	1.2469	31.649729
 106	4.2400e-001	1.2610	31.591332
 107	4.2800e-001	1.2685	31.873120
 108	4.3200e-001	1.2830	32.104854
 109	4.3600e-001	1.2951	32.189205
 110	4.4000e-001	1.3073	32.363469
 111	4.4400e-001	1.3184	32.535879
 112	4.4800e-001	1.3318	32.786151
 113	4.5200e-001	1.3419	32.798201
 114	4.5600e-001	1.3544	32.961342
 115	4.6000e-001	1.3654	32.886260
 116	4.6400e-001	1.3786	33.091113
 117	4.6800e-001	1.3905	33.063305
 118	4.7200e-001	1.4028	33.077209
 119	4.7600e-001	1.4143	33.212541
 120	4.8000e-001	1.4263	33.276500
 121	4.8400e-001	1.4370	33.284842
 122	4.8800e-001	1.4503	33.427590
 123	4.9200e-001	1.4606	33.584242
 124	4.9600e-001	1.4751	33.392367
 125	5.0000e-001	1.4851	33.551800
 126	5.0400e-001	1.4997	33.600927
 127	5.0800e-001	1.5099	33.658397
 128	5.1200e-001	1.5218	33.700109
 129	5.1600e-001	1.5356	33.751091
 130	5.2000e-001	1.5461	33.807634
 131	5.2400e-001	1.5591	33.692694
 132	5.2800e-001	1.5734	33.837296
 133	5.3200e-001	1.5830	33.870665
 134	5.3600e-001	1.5949	33.875300
 135	5.4000e-001	1.6065	33.920720
 136	5.4400e-001	1.6173	33.978190
 137	5.4800e-001	1.6331	34.096837
 138	5.5200e-001	1.6431	34.018048
 139	5.5600e-001	1.6566	34.083860
 140	5.6000e-001	1.6668	34.123718
 141	5.6400e-001	1.6795	34.161723
 142	5.6800e-001	1.6885	34.364721
 143	5.7200e-001	1.7023	34.169138
 144	5.7600e-001	1.7142	34.257197
 145	5.8000e-001	1.7274	34.290567
 146	5.8400e-001	1.7410	34.280370
 147	5.8800e-001	1.7530	34.348037
 148	5.9200e-001	1.7625	34.396237
 149	5.9600e-001	1.7753	34.411068
 150	6.0000e-001	1.7884	34.399018
 151	6.0400e-001	1.7981	34.623336
 152	6.0800e-001	1.8108	34.468538
 153	6.1200e-001	1.8218	34.491712
 154	6.1600e-001	1.8351	34.525081
 155	6.2000e-001	1.8458	34.617775
 156	6.2400e-001	1.8581	34.585332
 157	6.2800e-001	1.8729	34.586259
 158	6.3200e-001	1.8806	34.570501
 159	6.3600e-001	1.8954	34.615921
 160	6.4000e-001	1.9096	34.754961
 161	6.4400e-001	1.9185	34.597382
 162	6.4800e-001	1.9315	34.746619
 163	6.5200e-001	1.9439	34.708614
 164	6.5600e-001	1.9546	34.815212
 165	6.6000e-001	1.9701	34.837458
 166	6.6400e-001	1.9801	34.875463
 167	6.6800e-001	1.9891	35.136858
 168	6.7200e-001	2.0050	34.886586
 169	6.7600e-001	2.0164	34.995964
 170	6.8000e-001	2.0251	34.919955
 171	6.8400e-001	2.0388	34.957033
 172	6.8800e-001	2.0518	34.640021
 173	6.9200e-001	2.0628	34.941275
 174	6.9600e-001	2.0740	35.029334
 175	7.0000e-001	2.0861	35.029334
 176	7.0400e-001	2.0994	34.916248
 177	7.0800e-001	2.1082	35.128516
 178	7.1200e-001	2.1249	35.056215
 179	7.1600e-001	2.1334	35.100708
 180	7.2000e-001	2.1471	35.022845
 181	7.2400e-001	2.1577	35.122027
 182	7.2800e-001	2.1699	35.247164
 183	7.3200e-001	2.1843	35.207305
 184	7.3600e-001	2.1966	35.240675
 185	7.4000e-001	2.2093	35.283314
 186	7.4400e-001	2.2158	35.209159
 187	7.4800e-001	2.2317	35.279606
 188	7.5200e-001	2.2431	35.337076
 189	7.5600e-001	2.2568	35.343565
 190	7.6000e-001	2.2694	35.400108
 191	7.6400e-001	2.2791	35.458505
 192	7.6800e-001	2.2903	35.539148
 193	7.7200e-001	2.3024	35.383423
 194	7.7600e-001	2.3148	35.513194
 195	7.8000e-001	2.3281	35.546563
 196	7.8400e-001	2.3399	35.538221
 197	7.8800e-001	2.3499	35.438112
 198	7.9200e-001	2.3627	35.494655
 199	7.9600e-001	2.3760	35.605887
 200	8.0000e-001	2.3862	35.553052
 201	8.0400e-001	2.3989	35.527098
 202	8.0800e-001	2.4091	35.703215
 203	8.1200e-001	2.4235	35.634622
 204	8.1600e-001	2.4368	35.608668
 205	8.2000e-001	2.4490	35.741220
 206	8.2400e-001	2.4586	35.729170
 207	8.2800e-001	2.4707	35.718046
 208	8.3200e-001	2.4845	35.678188
 209	8.3600e-001	2.4959	35.761612
 210	8.4000e-001	2.5072	35.842256
 211	8.4400e-001	2.5196	35.749562
 212	8.4800e-001	2.5320	35.754197
 213	8.5200e-001	2.5434	35.824644
 214	8.5600e-001	2.5550	35.854306
 215	8.6000e-001	2.5666	35.756978
 216	8.6400e-001	2.5778	35.869137
 217	8.6800e-001	2.5901	35.964611
 218	8.7200e-001	2.6020	35.936803
 219	8.7600e-001	2.6167	35.957196
 220	8.8000e-001	2.6274	35.865429
 221	8.8400e-001	2.6394	36.012812
 222	8.8800e-001	2.6511	35.976661
 223	8.9200e-001	2.6656	35.982223
 224	8.9600e-001	2.6758	35.963684
 225	9.0000e-001	2.6881	36.088820
 226	9.0400e-001	2.6983	36.056378
 227	9.0800e-001	2.7110	36.078624
 228	9.1200e-001	2.7249	36.147217
 229	9.1600e-001	2.7332	36.222299
 230	9.2000e-001	2.7467	36.226934
 231	9.2400e-001	2.7582	36.111994
 232	9.2800e-001	2.7734	36.251034
 233	9.3200e-001	2.7821	36.248253
 234	9.3600e-001	2.7953	36.172245
 235	9.4000e-001	2.8046	36.217664
 236	9.4400e-001	2.8187	36.207468
 237	9.4800e-001	2.8329	36.244545
 238	9.5200e-001	2.8414	36.187076
 239	9.5600e-001	2.8548	36.300162
 240	9.6000e-001	2.8669	36.314066
 241	9.6400e-001	2.8796	36.326116
 242	9.6800e-001	2.8941	36.393782
 243	9.7200e-001	2.9037	36.411394
 244	9.7600e-001	2.9139	36.442910
 245	9.8000e-001	2.9286	36.401197
 246	9.8400e-001	2.9389	36.470718
 247	9.8800e-001	2.9520	36.437348
 248	9.9200e-001	2.9649	36.399344
 249	9.9600e-001	2.9774	36.559703
 250	1.0000e+000	2.9865	36.572680
 251	1.0040e+000	3.0004	36.536530
 252	1.0080e+000	2.9872	36.408613
 253	1.0120e+000	2.9775	36.616246
 254	1.0160e+000	2.9646	36.522626
 255	1.0200e+000	2.9526	36.492964
 256	1.0240e+000	2.9411	36.422517
 257	1.0280e+000	2.9259	36.515210
 258	1.0320e+000	2.9176	36.467937
 259	1.0360e+000	2.9034	36.304796
 260	1.0400e+000	2.8902	36.442910
 261	1.0440e+000	2.8805	36.431786
 262	1.0480e+000	2.8677	36.379878
 263	1.0520e+000	2.8561	36.239911
 264	1.0560e+000	2.8431	36.359485
 265	1.0600e+000	2.8332	36.356705
 266	1.0640e+000	2.8197	36.250107
 267	1.0680e+000	2.8057	36.335385
 268	1.0720e+000	2.7966	36.300162
 269	1.0760e+000	2.7805	36.287184
 270	1.0800e+000	2.7695	36.266792
 271	1.0840e+000	2.7573	36.335385
 272	1.0880e+000	2.7463	36.380805
 273	1.0920e+000	2.7352	36.188929
 274	1.0960e+000	2.7235	36.254742
 275	1.1000e+000	2.7100	36.248253
 276	1.1040e+000	2.6962	36.223226
 277	1.1080e+000	2.6868	36.082332
 278	1.1120e+000	2.6740	36.188002
 279	1.1160e+000	2.6630	36.161121
 280	1.1200e+000	2.6498	36.117555
 281	1.1240e+000	2.6396	36.151852
 282	1.1280e+000	2.6261	36.160194
 283	1.1320e+000	2.6170	36.041547
 284	1.1360e+000	2.6035	36.048962
 285	1.1400e+000	2.5912	36.140729
 286	1.1440e+000	2.5779	35.994273
 287	1.1480e+000	2.5643	36.008177
 288	1.1520e+000	2.5532	35.926607
 289	1.1560e+000	2.5436	36.026716
 290	1.1600e+000	2.5303	35.997981
 291	1.1640e+000	2.5188	35.894164
 292	1.1680e+000	2.5068	35.961830
 293	1.1720e+000	2.4958	35.938657
 294	1.1760e+000	2.4825	35.934022
 295	1.1800e+000	2.4705	35.881187
 296	1.1840e+000	2.4627	35.829279
 297	1.1880e+000	2.4450	35.853379
 298	1.1920e+000	2.4348	35.882114
 299	1.1960e+000	2.4219	35.820009
 300	1.2000e+000	2.4112	35.780151
 301	1.2040e+000	2.4015	35.838548
 302	1.2080e+000	2.3878	35.741220
 303	1.2120e+000	2.3756	35.739366
 304	1.2160e+000	2.3635	35.760685
 305	1.2200e+000	2.3502	35.748635
 306	1.2240e+000	2.3379	35.734731
 307	1.2280e+000	2.3283	35.723608
 308	1.2320e+000	2.3152	35.701362
 309	1.2360e+000	2.3042	35.739366
 310	1.2400e+000	2.2923	35.626280
 311	1.2440e+000	2.2790	35.643892
 312	1.2480e+000	2.2669	35.688385
 313	1.2520e+000	2.2569	35.541002
 314	1.2560e+000	2.2405	35.487240
 315	1.2600e+000	2.2332	35.613303
 316	1.2640e+000	2.2179	35.570664
 317	1.2680e+000	2.2072	35.425135
 318	1.2720e+000	2.1964	35.463139
 319	1.2760e+000	2.1815	35.584568
 320	1.2800e+000	2.1708	35.545637
 321	1.2840e+000	2.1613	35.455724
 322	1.2880e+000	2.1484	35.492801
 323	1.2920e+000	2.1354	35.507632
 324	1.2960e+000	2.1235	35.489094
 325	1.3000e+000	2.1117	35.381569
 326	1.3040e+000	2.0982	35.391765
 327	1.3080e+000	2.0872	35.343565
 328	1.3120e+000	2.0773	35.316684
 329	1.3160e+000	2.0621	35.310195
 330	1.3200e+000	2.0513	35.423281
 331	1.3240e+000	2.0396	35.230479
 332	1.3280e+000	2.0284	35.317611
 333	1.3320e+000	2.0155	35.364884
 334	1.3360e+000	2.0040	35.313903
 335	1.3400e+000	1.9907	35.185986
 336	1.3440e+000	1.9800	35.215648
 337	1.3480e+000	1.9659	35.320391
 338	1.3520e+000	1.9547	35.198036
 339	1.3560e+000	1.9436	35.056215
 340	1.3600e+000	1.9312	35.160959
 341	1.3640e+000	1.9193	35.191547
 342	1.3680e+000	1.9059	35.087731
 343	1.3720e+000	1.8935	35.073827
 344	1.3760e+000	1.8827	35.146128
 345	1.3800e+000	1.8707	35.006160
 346	1.3840e+000	1.8604	35.022845
 347	1.3880e+000	1.8452	35.108123
 348	1.3920e+000	1.8339	35.012649
 349	1.3960e+000	1.8224	35.028407
 350	1.4000e+000	1.8104	35.084023
 351	1.4040e+000	1.7982	35.056215
 352	1.4080e+000	1.7873	35.018211
 353	1.4120e+000	1.7746	34.974645
 354	1.4160e+000	1.7639	34.899563
 355	1.4200e+000	1.7520	34.913467
 356	1.4240e+000	1.7384	34.834677
 357	1.4280e+000	1.7259	34.862486
 358	1.4320e+000	1.7149	34.869901
 359	1.4360e+000	1.7039	34.924590
 360	1.4400e+000	1.6903	34.925517
 361	1.4440e+000	1.6796	34.827262
 362	1.4480e+000	1.6679	34.937567
 363	1.4520e+000	1.6551	34.741057
 364	1.4560e+000	1.6425	34.733642
 365	1.4600e+000	1.6299	34.790185
 366	1.4640e+000	1.6172	34.774427
 367	1.4680e+000	1.6047	34.725299
 368	1.4720e+000	1.5958	34.758669
 369	1.4760e+000	1.5807	34.674318
 370	1.4800e+000	1.5689	34.699345
 371	1.4840e+000	1.5613	34.718811
 372	1.4880e+000	1.5475	34.605725
 373	1.4920e+000	1.5331	34.650217
 374	1.4960e+000	1.5229	34.719738
 375	1.5000e+000	1.5097	34.634460
 376	1.5040e+000	1.4976	34.565866
 377	1.5080e+000	1.4876	34.614994
 378	1.5120e+000	1.4758	34.597382
 379	1.5160e+000	1.4615	34.470392
 380	1.5200e+000	1.4510	34.555670
 381	1.5240e+000	1.4400	34.454634
 382	1.5280e+000	1.4251	34.474100
 383	1.5320e+000	1.4169	34.329498
 384	1.5360e+000	1.4034	34.458342
 385	1.5400e+000	1.3911	34.488004
 386	1.5440e+000	1.3780	34.408287
 387	1.5480e+000	1.3652	34.364721
 388	1.5520e+000	1.3557	34.346183
 389	1.5560e+000	1.3412	34.384187
 390	1.5600e+000	1.3311	34.321156
 391	1.5640e+000	1.3181	34.285005
 392	1.5680e+000	1.3074	34.320229
 393	1.5720e+000	1.2950	34.259051
 394	1.5760e+000	1.2814	34.215485
 395	1.5800e+000	1.2695	34.211777
 396	1.5840e+000	1.2579	34.243293
 397	1.5880e+000	1.2490	34.117230
 398	1.5920e+000	1.2348	34.130207
 399	1.5960e+000	1.2226	34.281297
 400	1.6000e+000	1.2089	34.053271
 401	1.6040e+000	1.1984	34.056979
 402	1.6080e+000	1.1883	34.114449
 403	1.6120e+000	1.1768	34.059760
 404	1.6160e+000	1.1617	33.910523
 405	1.6200e+000	1.1483	33.985605
 406	1.6240e+000	1.1420	33.923500
 407	1.6280e+000	1.1246	33.915158
 408	1.6320e+000	1.1145	33.803926
 409	1.6360e+000	1.1019	33.929062
 410	1.6400e+000	1.0925	33.823391
 411	1.6440e+000	1.0790	33.862323
 412	1.6480e+000	1.0674	33.838222
 413	1.6520e+000	1.0557	33.929989
 414	1.6560e+000	1.0403	33.850273
 415	1.6600e+000	1.0309	33.704744
 416	1.6640e+000	1.0188	33.889204
 417	1.6680e+000	1.0075	33.846565
 418	1.6720e+000	0.9931	33.729771
 419	1.6760e+000	0.9834	33.655616
 420	1.6800e+000	0.9702	33.681570
 421	1.6840e+000	0.9558	33.616685
 422	1.6880e+000	0.9451	33.476718
 423	1.6920e+000	0.9357	33.582388
 424	1.6960e+000	0.9235	33.584242
 425	1.7000e+000	0.9106	33.541603
 426	1.7040e+000	0.8991	33.557361
 427	1.7080e+000	0.8862	33.537896
 428	1.7120e+000	0.8749	33.524918
 429	1.7160e+000	0.8630	33.448910
 430	1.7200e+000	0.8512	33.466522
 431	1.7240e+000	0.8396	33.320066
 432	1.7280e+000	0.8247	33.374755
 433	1.7320e+000	0.8144	33.318212
 434	1.7360e+000	0.8012	33.319139
 435	1.7400e+000	0.7900	33.270938
 436	1.7440e+000	0.7791	33.281135
 437	1.7480e+000	0.7665	33.177318
 438	1.7520e+000	0.7526	33.077209
 439	1.7560e+000	0.7429	33.178245
 440	1.7600e+000	0.7303	33.199564
 441	1.7640e+000	0.7197	33.064232
 442	1.7680e+000	0.7045	33.077209
 443	1.7720e+000	0.6937	33.016031
 444	1.7760e+000	0.6831	33.038278
 445	1.7800e+000	0.6720	32.914068
 446	1.7840e+000	0.6600	32.907580
 447	1.7880e+000	0.6466	32.798201
 448	1.7920e+000	0.6350	32.817667
 449	1.7960e+000	0.6223	32.769467
 450	1.8000e+000	0.6120	32.861233
 451	1.8040e+000	0.5965	32.767613
 452	1.8080e+000	0.5849	32.698093
 453	1.8120e+000	0.5756	32.748147
 454	1.8160e+000	0.5656	32.746293
 455	1.8200e+000	0.5504	32.590568
 456	1.8240e+000	0.5408	32.309707
 457	1.8280e+000	0.5252	32.674919
 458	1.8320e+000	0.5150	32.429281
 459	1.8360e+000	0.5001	32.379227
 460	1.8400e+000	0.4928	32.350492
 461	1.8440e+000	0.4783	32.467286
 462	1.8480e+000	0.4669	32.352346
 463	1.8520e+000	0.4560	32.154909
 464	1.8560e+000	0.4426	32.246675
 465	1.8600e+000	0.4301	32.184571
 466	1.8640e+000	0.4165	32.120612
 467	1.8680e+000	0.4064	31.986206
 468	1.8720e+000	0.3961	32.126174
 469	1.8760e+000	0.3829	32.013088
 470	1.8800e+000	0.3712	31.842532
 471	1.8840e+000	0.3585	31.836043
 472	1.8880e+000	0.3469	31.872194
 473	1.8920e+000	0.3323	31.611725
 474	1.8960e+000	0.3210	31.595040
 475	1.9000e+000	0.3117	31.601529
 476	1.9040e+000	0.2966	31.371649
 477	1.9080e+000	0.2862	31.370722
 478	1.9120e+000	0.2750	31.264124
 479	1.9160e+000	0.2628	31.182554
 480	1.9200e+000	0.2508	30.949893
 481	1.9240e+000	0.2352	30.777483
 482	1.9280e+000	0.2270	30.735771
 483	1.9320e+000	0.2155	30.487353
 484	1.9360e+000	0.2054	30.298258
 485	1.9400e+000	0.1893	30.022958
 486	1.9440e+000	0.1787	29.848695
 487	1.9480e+000	0.1671	29.504802
 488	1.9520e+000	0.1545	29.198913
 489	1.9560e+000	0.1413	28.950495
 490	1.9600e+000	0.1296	28.500004
 491	1.9640e+000	0.1175	28.097715
 492	1.9680e+000	0.1063	27.749187
 493	1.9720e+000	0.0943	27.261619
 494	1.9760e+000	0.0821	26.645208
 495	1.9800e+000	0.0694	26.076069
 496	1.9840e+000	0.0584	25.564401
 497	1.9880e+000	0.0474	24.944282
 498	1.9920e+000	0.0349	24.136922
 499	1.9960e+000	0.0223	23.501971
 500	2.0000e+000	0.0098	22.786377
 501	2.0040e+000	-0.0042	22.049464
 502	2.0080e+000	-0.0134	21.268058
 503	2.0120e+000	-0.0268	20.403228
 504	2.0160e+000	-0.0368	19.760862
 505	2.0200e+000	-0.0496	18.889543
 506	2.0240e+000	-0.0600	18.010809
 507	2.0280e+000	-0.0748	17.068116
 508	2.0320e+000	-0.0851	16.302468
 509	2.0360e+000	-0.0998	15.495107
 510	2.0400e+000	-0.1101	14.608031
 511	2.0440e+000	-0.1220	13.721881
 512	2.0480e+000	-0.1321	12.797727
 513	2.0520e+000	-0.1431	11.923627
 514	2.0560e+000	-0.1570	11.044893
 515	2.0600e+000	-0.1688	10.297783
 516	2.0640e+000	-0.1812	9.418122
 517	2.0680e+000	-0.1932	8.538461
 518	2.0720e+000	-0.2055	7.611526
 519	2.0760e+000	-0.2155	6.927448
 520	2.0800e+000	-0.2319	6.172923
 521	2.0840e+000	-0.2427	5.199641
 522	2.0880e+000	-0.2523	4.495171
 523	2.0920e+000	-0.2644	3.799043
 524	2.0960e+000	-0.2789	3.048225
 525	2.1000e+000	-0.2888	2.095336
 526	2.1040e+000	-0.2988	1.641138
 527	2.1080e+000	-0.3140	0.774454
 528	2.1120e+000	-0.3250	0.100572
 529	2.1160e+000	-0.3373	-0.563113
 530	2.1200e+000	-0.3488	-1.260168
 531	2.1240e+000	-0.3611	-1.888630
 532	2.1280e+000	-0.3732	-2.540265
 533	2.1320e+000	-0.3851	-3.181704
 534	2.1360e+000	-0.3973	-3.800897
 535	2.1400e+000	-0.4112	-4.405258
 536	2.1440e+000	-0.4233	-4.960492
 537	2.1480e+000	-0.4357	-5.380394
 538	2.1520e+000	-0.4453	-6.060764
 539	2.1560e+000	-0.4567	-6.742061
 540	2.1600e+000	-0.4694	-7.052584
 541	2.1640e+000	-0.4796	-7.562398
 542	2.1680e+000	-0.4938	-8.054601
 543	2.1720e+000	-0.5080	-8.675647
 544	2.1760e+000	-0.5177	-8.929627
 545	2.1800e+000	-0.5287	-9.545112
 546	2.1840e+000	-0.5413	-10.040096
 547	2.1880e+000	-0.5531	-10.503563
 548	2.1920e+000	-0.5656	-10.878045
 549	2.1960e+000	-0.5772	-11.448110
 550	2.2000e+000	-0.5877	-11.827226
 551	2.2040e+000	-0.6021	-12.228589
 552	2.2080e+000	-0.6126	-12.631806
 553	2.2120e+000	-0.6266	-13.169428
 554	2.2160e+000	-0.6350	-13.326080
 555	2.2200e+000	-0.6467	-13.765447
 556	2.2240e+000	-0.6622	-14.164956
 557	2.2280e+000	-0.6739	-14.662720
 558	2.2320e+000	-0.6851	-14.777660
 559	2.2360e+000	-0.6965	-15.220735
 560	2.2400e+000	-0.7082	-15.663810
 561	2.2440e+000	-0.7200	-16.130058
 562	2.2480e+000	-0.7335	-16.341399
 563	2.2520e+000	-0.7442	-16.770570
 564	2.2560e+000	-0.7546	-17.047723
 565	2.2600e+000	-0.7708	-17.364735
 566	2.2640e+000	-0.7811	-17.813372
 567	2.2680e+000	-0.7944	-18.041398
 568	2.2720e+000	-0.8056	-18.361190
 569	2.2760e+000	-0.8150	-18.581801
 570	2.2800e+000	-0.8301	-19.101811
 571	2.2840e+000	-0.8408	-19.310372
 572	2.2880e+000	-0.8550	-19.588452
 573	2.2920e+000	-0.8672	-19.834090
 574	2.2960e+000	-0.8777	-20.106609
 575	2.3000e+000	-0.8889	-20.590469
 576	2.3040e+000	-0.9020	-20.753609
 577	2.3080e+000	-0.9140	-21.020566
 578	2.3120e+000	-0.9260	-21.302355
 579	2.3160e+000	-0.9364	-21.711133
 580	2.3200e+000	-0.9515	-21.873347
 581	2.3240e+000	-0.9639	-22.093030
 582	2.3280e+000	-0.9732	-22.344230
 583	2.3320e+000	-0.9857	-22.661241
 584	2.3360e+000	-0.9974	-23.056116
 585	2.3400e+000	-1.0101	-23.061677
 586	2.3440e+000	-1.0204	-23.375908
 587	2.3480e+000	-1.0348	-23.536268
 588	2.3520e+000	-1.0435	-23.985831
 589	2.3560e+000	-1.0582	-24.080379
 590	2.3600e+000	-1.0683	-24.309332
 591	2.3640e+000	-1.0841	-24.471545
 592	2.3680e+000	-1.0920	-24.654151
 593	2.3720e+000	-1.1074	-25.051806
 594	2.3760e+000	-1.1159	-25.067564
 595	2.3800e+000	-1.1313	-25.229778
 596	2.3840e+000	-1.1412	-25.476343
 597	2.3880e+000	-1.1548	-25.861948
 598	2.3920e+000	-1.1663	-25.950006
 599	2.3960e+000	-1.1792	-26.000988
 600	2.4000e+000	-1.1897	-26.275361
 601	2.4040e+000	-1.2038	-26.547879
 602	2.4080e+000	-1.2131	-26.717508
 603	2.4120e+000	-1.2254	-26.731412
 604	2.4160e+000	-1.2384	-27.001151
 605	2.4200e+000	-1.2507	-27.187464
 606	2.4240e+000	-1.2619	-27.350605
 607	2.4280e+000	-1.2735	-27.491499
 608	2.4320e+000	-1.2861	-27.721379
 609	2.4360e+000	-1.2979	-27.793680
 610	2.4400e+000	-1.3065	-27.965163
 611	2.4440e+000	-1.3219	-28.289590
 612	2.4480e+000	-1.3316	-28.292371
 613	2.4520e+000	-1.3446	-28.294225
 614	2.4560e+000	-1.3557	-28.488881
 615	2.4600e+000	-1.3689	-28.844824
 616	2.4640e+000	-1.3827	-28.763254
 617	2.4680e+000	-1.3948	-28.837409
 618	2.4720e+000	-1.4044	-29.122905
 619	2.4760e+000	-1.4167	-29.269360
 620	2.4800e+000	-1.4291	-29.358346
 621	2.4840e+000	-1.4417	-29.420451
 622	2.4880e+000	-1.4542	-29.627157
 623	2.4920e+000	-1.4657	-29.722631
 624	2.4960e+000	-1.4754	-29.858891
 625	2.5000e+000	-1.4890	-29.951584
 626	2.5040e+000	-1.5018	-30.086917
 627	2.5080e+000	-1.5121	-30.084136
 628	2.5120e+000	-1.5239	-30.288062
 629	2.5160e+000	-1.5385	-30.574485
 630	2.5200e+000	-1.5472	-30.462326
 631	2.5240e+000	-1.5630	-30.567069
 632	2.5280e+000	-1.5741	-30.777483
 633	2.5320e+000	-1.5836	-30.946186
 634	2.5360e+000	-1.5984	-30.878519
 635	2.5400e+000	-1.6078	-30.910035
 636	2.5440e+000	-1.6226	-31.131573
 637	2.5480e+000	-1.6328	-31.214997
 638	2.5520e+000	-1.6470	-31.340133
 639	2.5560e+000	-1.6582	-31.359598
 640	2.5600e+000	-1.6671	-31.503273
 641	2.5640e+000	-1.6797	-31.544985
 642	2.5680e+000	-1.6933	-31.708126
 643	2.5720e+000	-1.7056	-31.748911
 644	2.5760e+000	-1.7172	-31.770231
 645	2.5800e+000	-1.7268	-31.868486
 646	2.5840e+000	-1.7436	-31.986206
 647	2.5880e+000	-1.7532	-32.125247
 648	2.5920e+000	-1.7654	-32.097439
 649	2.5960e+000	-1.7757	-32.178082
 650	2.6000e+000	-1.7897	-32.331026
 651	2.6040e+000	-1.8027	-32.390350
 652	2.6080e+000	-1.8150	-32.358834
 653	2.6120e+000	-1.8269	-32.419085
 654	2.6160e+000	-1.8385	-32.548856
 655	2.6200e+000	-1.8488	-32.581299
 656	2.6240e+000	-1.8614	-32.782444
 657	2.6280e+000	-1.8738	-32.721266
 658	2.6320e+000	-1.8864	-32.818594
 659	2.6360e+000	-1.8990	-32.917776
 660	2.6400e+000	-1.9106	-33.049401
 661	2.6440e+000	-1.9196	-33.081844
 662	2.6480e+000	-1.9318	-33.058670
 663	2.6520e+000	-1.9463	-33.214395
 664	2.6560e+000	-1.9534	-33.157852
 665	2.6600e+000	-1.9696	-33.307089
 666	2.6640e+000	-1.9827	-33.314504
 667	2.6680e+000	-1.9933	-33.444275
 668	2.6720e+000	-2.0061	-33.414613
 669	2.6760e+000	-2.0169	-33.497110
 670	2.6800e+000	-2.0302	-33.588877
 671	2.6840e+000	-2.0418	-33.538822
 672	2.6880e+000	-2.0534	-33.656543
 673	2.6920e+000	-2.0670	-33.678790
 674	2.6960e+000	-2.0770	-33.884569
 675	2.7000e+000	-2.0883	-33.732552
 676	2.7040e+000	-2.1033	-33.866957
 677	2.7080e+000	-2.1133	-33.945747
 678	2.7120e+000	-2.1249	-34.030098
 679	2.7160e+000	-2.1366	-33.867884
 680	2.7200e+000	-2.1488	-34.133915
 681	2.7240e+000	-2.1630	-34.158015
 682	2.7280e+000	-2.1718	-34.147819
 683	2.7320e+000	-2.1849	-34.214558
 684	2.7360e+000	-2.1980	-34.252562
 685	2.7400e+000	-2.2093	-34.292421
 686	2.7440e+000	-2.2215	-34.263686
 687	2.7480e+000	-2.2333	-34.396237
 688	2.7520e+000	-2.2458	-34.465757
 689	2.7560e+000	-2.2573	-34.354525
 690	2.7600e+000	-2.2694	-34.416630
 691	2.7640e+000	-2.2826	-34.671537
 692	2.7680e+000	-2.2923	-34.631679
 693	2.7720e+000	-2.3047	-34.594601
 694	2.7760e+000	-2.3183	-34.648364
 695	2.7800e+000	-2.3288	-34.732715
 696	2.7840e+000	-2.3401	-34.720664
 697	2.7880e+000	-2.3536	-34.702126
 698	2.7920e+000	-2.3674	-34.813358
 699	2.7960e+000	-2.3784	-34.821700
 700	2.8000e+000	-2.3936	-34.907905
 701	2.8040e+000	-2.4025	-35.012649
 702	2.8080e+000	-2.4138	-34.999672
 703	2.8120e+000	-2.4251	-34.892147
 704	2.8160e+000	-2.4373	-34.968156
 705	2.8200e+000	-2.4488	-35.113685
 706	2.8240e+000	-2.4610	-35.054361
 707	2.8280e+000	-2.4725	-35.041384
 708	2.8320e+000	-2.4863	-35.191547
 709	2.8360e+000	-2.4979	-35.290729
 710	2.8400e+000	-2.5092	-35.251798
 711	2.8440e+000	-2.5221	-35.233259
 712	2.8480e+000	-2.5325	-35.333368
 713	2.8520e+000	-2.5463	-35.541002
 714	2.8560e+000	-2.5568	-35.363030
 715	2.8600e+000	-2.5705	-35.361177
 716	2.8640e+000	-2.5798	-35.422354
 717	2.8680e+000	-2.5931	-35.396400
 718	2.8720e+000	-2.6057	-35.436258
 719	2.8760e+000	-2.6173	-35.544710
 720	2.8800e+000	-2.6292	-35.497436
 721	2.8840e+000	-2.6411	-35.568810
 722	2.8880e+000	-2.6544	-35.695800
 723	2.8920e+000	-2.6645	-35.625353
 724	2.8960e+000	-2.6782	-35.618864
 725	2.9000e+000	-2.6899	-35.698581
 726	2.9040e+000	-2.7029	-35.768101
 727	2.9080e+000	-2.7136	-35.642038
 728	2.9120e+000	-2.7264	-35.847817
 729	2.9160e+000	-2.7403	-35.798690
 730	2.9200e+000	-2.7516	-35.798690
 731	2.9240e+000	-2.7625	-35.921045
 732	2.9280e+000	-2.7746	-35.931241
 733	2.9320e+000	-2.7864	-35.870991
 734	2.9360e+000	-2.7979	-35.917337
 735	2.9400e+000	-2.8094	-35.983150
 736	2.9440e+000	-2.8206	-35.992419
 737	2.9480e+000	-2.8342	-36.015593
 738	2.9520e+000	-2.8455	-36.069355
 739	2.9560e+000	-2.8577	-36.162048
 740	2.9600e+000	-2.8708	-36.097163
 741	2.9640e+000	-2.8822	-36.087893
 742	2.9680e+000	-2.8938	-36.188929
 743	2.9720e+000	-2.9055	-36.241765
 744	2.9760e+000	-2.9190	-36.182441
 745	2.9800e+000	-2.9295	-36.166683
 746	2.9840e+000	-2.9391	-36.370609
 747	2.9880e+000	-2.9549	-36.301089
 748	2.9920e+000	-2.9648	-36.257523
 749	2.9960e+000	-2.9779	-36.308504
 750	3.0000e+000	-2.9890	-36.477206
 751	3.0040e+000	-3.0013	-36.348362
 752	3.0080e+000	-2.9897	-36.381732
 753	3.0120e+000	-2.9781	-36.477206
 754	3.0160e+000	-2.9652	-36.373389
 755	3.0200e+000	-2.9537	-36.301089
 756	3.0240e+000	-2.9442	-36.430859
 757	3.0280e+000	-2.9292	-36.413248
 758	3.0320e+000	-2.9182	-36.169464
 759	3.0360e+000	-2.9063	-36.327043
 760	3.0400e+000	-2.8922	-36.323335
 761	3.0440e+000	-2.8806	-36.362266
 762	3.0480e+000	-2.8688	-36.121263
 763	3.0520e+000	-2.8571	-36.286258
 764	3.0560e+000	-2.8453	-36.407686
 765	3.0600e+000	-2.8339	-36.188929
 766	3.0640e+000	-2.8226	-36.156487
 767	3.0680e+000	-2.8094	-36.171318
 768	3.0720e+000	-2.7986	-36.266792
 769	3.0760e+000	-2.7845	-36.100871
 770	3.0800e+000	-2.7744	-36.175952
 771	3.0840e+000	-2.7599	-36.172245
 772	3.0880e+000	-2.7488	-36.071209
 773	3.0920e+000	-2.7384	-36.095309
 774	3.0960e+000	-2.7280	-36.057305
 775	3.1000e+000	-2.7126	-36.058232
 776	3.1040e+000	-2.7029	-36.068428
 777	3.1080e+000	-2.6897	-36.052670
 778	3.1120e+000	-2.6784	-36.020227
 779	3.1160e+000	-2.6656	-35.988711
 780	3.1200e+000	-2.6533	-35.967392
 781	3.1240e+000	-2.6425	-35.960903
 782	3.1280e+000	-2.6299	-35.998908
 783	3.1320e+000	-2.6172	-35.898799
 784	3.1360e+000	-2.6050	-35.861721
 785	3.1400e+000	-2.5930	-36.034131
 786	3.1440e+000	-2.5818	-35.801471
 787	3.1480e+000	-2.5706	-35.782005
 788	3.1520e+000	-2.5599	-35.898799
 789	3.1560e+000	-2.5476	-35.789420
 790	3.1600e+000	-2.5340	-35.725462
 791	3.1640e+000	-2.5197	-35.902507
 792	3.1680e+000	-2.5107	-35.614230
 793	3.1720e+000	-2.4977	-35.719900
 794	3.1760e+000	-2.4874	-35.721754
 795	3.1800e+000	-2.4746	-35.765320
 796	3.1840e+000	-2.4619	-35.710631
 797	3.1880e+000	-2.4507	-35.735658
 798	3.1920e+000	-2.4368	-35.617011
 799	3.1960e+000	-2.4246	-35.519682
 800	3.2000e+000	-2.4123	-35.661503
 801	3.2040e+000	-2.4004	-35.496509
 802	3.2080e+000	-2.3914	-35.591983
 803	3.2120e+000	-2.3771	-35.488167
 804	3.2160e+000	-2.3640	-35.573445
 805	3.2200e+000	-2.3555	-35.554906
 806	3.2240e+000	-2.3407	-35.506705
 807	3.2280e+000	-2.3304	-35.420500
 808	3.2320e+000	-2.3183	-35.480751
 809	3.2360e+000	-2.3050	-35.523390
 810	3.2400e+000	-2.2915	-35.285168
 811	3.2440e+000	-2.2810	-35.412158
 812	3.2480e+000	-2.2705	-35.421427
 813	3.2520e+000	-2.2574	-35.307414
 814	3.2560e+000	-2.2443	-35.218429
 815	3.2600e+000	-2.2359	-35.303707
 816	3.2640e+000	-2.2220	-35.261994
 817	3.2680e+000	-2.2118	-35.127589
 818	3.2720e+000	-2.1976	-35.408450
 819	3.2760e+000	-2.1844	-35.242529
 820	3.2800e+000	-2.1747	-35.172082
 821	3.2840e+000	-2.1645	-35.069192
 822	3.2880e+000	-2.1488	-35.196182
 823	3.2920e+000	-2.1387	-35.192474
 824	3.2960e+000	-2.1254	-34.960741
 825	3.3000e+000	-2.1146	-35.024699
 826	3.3040e+000	-2.1027	-35.037676
 827	3.3080e+000	-2.0891	-35.115539
 828	3.3120e+000	-2.0784	-34.900490
 829	3.3160e+000	-2.0649	-35.028407
 830	3.3200e+000	-2.0509	-34.904198
 831	3.3240e+000	-2.0406	-34.935713
 832	3.3280e+000	-2.0302	-34.925517
 833	3.3320e+000	-2.0191	-34.964448
 834	3.3360e+000	-2.0050	-34.800381
 835	3.3400e+000	-1.9919	-34.728080
 836	3.3440e+000	-1.9807	-34.985768
 837	3.3480e+000	-1.9691	-34.693783
 838	3.3520e+000	-1.9562	-34.825408
 839	3.3560e+000	-1.9460	-34.670610
 840	3.3600e+000	-1.9315	-34.736422
 841	3.3640e+000	-1.9220	-34.644656
 842	3.3680e+000	-1.9109	-34.570501
 843	3.3720e+000	-1.8978	-34.542693
 844	3.3760e+000	-1.8845	-34.576063
 845	3.3800e+000	-1.8732	-34.499127
 846	3.3840e+000	-1.8614	-34.557524
 847	3.3880e+000	-1.8494	-34.483369
 848	3.3920e+000	-1.8358	-34.373064
 849	3.3960e+000	-1.8259	-34.420338
 850	3.4000e+000	-1.8149	-34.507469
 851	3.4040e+000	-1.8005	-34.429607
 852	3.4080e+000	-1.7888	-34.258124
 853	3.4120e+000	-1.7796	-34.309105
 854	3.4160e+000	-1.7646	-34.412922
 855	3.4200e+000	-1.7516	-34.249782
 856	3.4240e+000	-1.7424	-34.194165
 857	3.4280e+000	-1.7311	-34.189531
 858	3.4320e+000	-1.7191	-34.279443
 859	3.4360e+000	-1.7049	-34.223827
 860	3.4400e+000	-1.6937	-34.098691
 861	3.4440e+000	-1.6805	-34.107961
 862	3.4480e+000	-1.6727	-33.988386
 863	3.4520e+000	-1.6554	-34.089422
 864	3.4560e+000	-1.6467	-33.961505
 865	3.4600e+000	-1.6341	-33.887350
 866	3.4640e+000	-1.6212	-33.890131
 867	3.4680e+000	-1.6109	-33.896619
 868	3.4720e+000	-1.5970	-33.902181
 869	3.4760e+000	-1.5870	-33.772410
 870	3.4800e+000	-1.5744	-33.834515
 871	3.4840e+000	-1.5631	-33.748310
 872	3.4880e+000	-1.5494	-33.790022
 873	3.4920e+000	-1.5381	-33.676936
 874	3.4960e+000	-1.5248	-33.688059
 875	3.5000e+000	-1.5144	-33.597219
 876	3.5040e+000	-1.5001	-33.549019
 877	3.5080e+000	-1.4876	-33.683424
 878	3.5120e+000	-1.4764	-33.539749
 879	3.5160e+000	-1.4635	-33.422956
 880	3.5200e+000	-1.4544	-33.381244
 881	3.5240e+000	-1.4408	-33.527699
 882	3.5280e+000	-1.4302	-33.351582
 883	3.5320e+000	-1.4176	-33.258888
 884	3.5360e+000	-1.4068	-33.321920
 885	3.5400e+000	-1.3918	-33.209761
 886	3.5440e+000	-1.3795	-33.256107
 887	3.5480e+000	-1.3686	-33.084624
 888	3.5520e+000	-1.3570	-33.171756
 889	3.5560e+000	-1.3437	-33.071647
 890	3.5600e+000	-1.3345	-32.988223
 891	3.5640e+000	-1.3209	-32.979881
 892	3.5680e+000	-1.3086	-32.950219
 893	3.5720e+000	-1.2995	-32.847329
 894	3.5760e+000	-1.2850	-32.776882
 895	3.5800e+000	-1.2701	-32.929826
 896	3.5840e+000	-1.2635	-32.729608
 897	3.5880e+000	-1.2478	-32.648038
 898	3.5920e+000	-1.2373	-32.705508
 899	3.5960e+000	-1.2271	-32.637842
 900	3.6000e+000	-1.2119	-32.502509
 901	3.6040e+000	-1.2032	-32.521048
 902	3.6080e+000	-1.1900	-32.533098
 903	3.6120e+000	-1.1777	-32.244821
 904	3.6160e+000	-1.1654	-32.407035
 905	3.6200e+000	-1.1551	-32.361615
 906	3.6240e+000	-1.1416	-32.322684
 907	3.6280e+000	-1.1308	-32.228137
 908	3.6320e+000	-1.1185	-32.150274
 909	3.6360e+000	-1.1057	-32.174374
 910	3.6400e+000	-1.0936	-32.010307
 911	3.6440e+000	-1.0830	-31.975083
 912	3.6480e+000	-1.0682	-31.833262
 913	3.6520e+000	-1.0579	-32.024211
 914	3.6560e+000	-1.0458	-31.740569
 915	3.6600e+000	-1.0327	-31.713688
 916	3.6640e+000	-1.0219	-31.799893
 917	3.6680e+000	-1.0072	-31.464342
 918	3.6720e+000	-0.9973	-31.534789
 919	3.6760e+000	-0.9830	-31.515324
 920	3.6800e+000	-0.9725	-31.432826
 921	3.6840e+000	-0.9620	-31.229828
 922	3.6880e+000	-0.9502	-31.411507
 923	3.6920e+000	-0.9377	-31.235389
 924	3.6960e+000	-0.9248	-31.126938
 925	3.7000e+000	-0.9116	-31.042587
 926	3.7040e+000	-0.9025	-31.037952
 927	3.7080e+000	-0.8900	-30.934135
 928	3.7120e+000	-0.8775	-30.861834
 929	3.7160e+000	-0.8656	-30.713525
 930	3.7200e+000	-0.8540	-30.584681
 931	3.7240e+000	-0.8425	-30.636589
 932	3.7280e+000	-0.8292	-30.522576
 933	3.7320e+000	-0.8185	-30.450275
 934	3.7360e+000	-0.8051	-30.363143
 935	3.7400e+000	-0.7932	-30.341824
 936	3.7440e+000	-0.7822	-30.133264
 937	3.7480e+000	-0.7694	-30.015543
 938	3.7520e+000	-0.7568	-29.881137
 939	3.7560e+000	-0.7446	-29.850548
 940	3.7600e+000	-0.7307	-29.704093
 941	3.7640e+000	-0.7206	-29.574322
 942	3.7680e+000	-0.7087	-29.434355
 943	3.7720e+000	-0.6967	-29.434355
 944	3.7760e+000	-0.6860	-29.320342
 945	3.7800e+000	-0.6725	-29.020015
 946	3.7840e+000	-0.6609	-28.989426
 947	3.7880e+000	-0.6514	-28.839262
 948	3.7920e+000	-0.6374	-28.936591
 949	3.7960e+000	-0.6248	-28.548205
 950	3.8000e+000	-0.6121	-28.441607
 951	3.8040e+000	-0.6025	-28.316471
 952	3.8080e+000	-0.5900	-28.079176
 953	3.8120e+000	-0.5768	-28.143134
 954	3.8160e+000	-0.5652	-27.906766
 955	3.8200e+000	-0.5533	-27.635174
 956	3.8240e+000	-0.5424	-27.656494
 957	3.8280e+000	-0.5299	-27.561946
 958	3.8320e+000	-0.5157	-27.256058
 959	3.8360e+000	-0.5049	-26.999297
 960	3.8400e+000	-0.4958	-26.913092
 961	3.8440e+000	-0.4821	-26.735120
 962	3.8480e+000	-0.4677	-26.423670
 963	3.8520e+000	-0.4588	-26.280922
 964	3.8560e+000	-0.4465	-26.200279
 965	3.8600e+000	-0.4337	-25.899952
 966	3.8640e+000	-0.4211	-25.726615
 967	3.8680e+000	-0.4086	-25.544009
 968	3.8720e+000	-0.3979	-25.247390
 969	3.8760e+000	-0.3842	-24.976725
 970	3.8800e+000	-0.3730	-24.887739
 971	3.8840e+000	-0.3590	-24.640247
 972	3.8880e+000	-0.3449	-24.218492
 973	3.8920e+000	-0.3384	-23.987685
 974	3.8960e+000	-0.3233	-23.885722
 975	3.9000e+000	-0.3120	-23.612276
 976	3.9040e+000	-0.2980	-23.256333
 977	3.9080e+000	-0.2876	-22.915221
 978	3.9120e+000	-0.2782	-22.801208
 979	3.9160e+000	-0.2655	-22.452681
 980	3.9200e+000	-0.2523	-22.070784
 981	3.9240e+000	-0.2432	-21.914132
 982	3.9280e+000	-0.2262	-21.598047
 983	3.9320e+000	-0.2185	-21.192976
 984	3.9360e+000	-0.2041	-20.849084
 985	3.9400e+000	-0.1966	-20.703555
 986	3.9440e+000	-0.1806	-20.330000
 987	3.9480e+000	-0.1698	-19.938833
 988	3.9520e+000	-0.1551	-19.621822
 989	3.9560e+000	-0.1441	-19.263098
 990	3.9600e+000	-0.1319	-18.849685
 991	3.9640e+000	-0.1211	-18.494669
 992	3.9680e+000	-0.1074	-18.265716
 993	3.9720e+000	-0.0977	-17.790198
 994	3.9760e+000	-0.0837	-17.428694
 995	3.9800e+000	-0.0722	-17.039381
 996	3.9840e+000	-0.0609	-16.711246
 997	3.9880e+000	-0.0478	-16.187528
 998	3.9920e+000	-0.0387	-15.818608
 999	3.9960e+000	-0.0254	-15.478423
1000	4.0000e+000	-0.0124	-15.097452
1001	4.0040e+000	0.0002	-14.744290
1002	4.0080e+000	0.0110	-14.199252
1003	4.0120e+000	0.0223	-13.865556
1004	4.0160e+000	0.0331	-13.445654
1005	4.0200e+000	0.0466	-13.030388
1006	4.0240e+000	0.0571	-12.361141
1007	4.0280e+000	0.0686	-12.083987
1008	4.0320e+000	0.0832	-11.636277
1009	4.0360e+000	0.0941	-11.334097
1010	4.0400e+000	0.1067	-10.820575
1011	4.0440e+000	0.1157	-10.186551
1012	4.0480e+000	0.1305	-10.028045
1013	4.0520e+000	0.1436	-9.559943
1014	4.0560e+000	0.1539	-9.083499
1015	4.0600e+000	0.1662	-8.493041
1016	4.0640e+000	0.1814	-8.127829
1017	4.0680e+000	0.1901	-7.635626
1018	4.0720e+000	0.2015	-7.237044
1019	4.0760e+000	0.2137	-6.824558
1020	4.0800e+000	0.2277	-5.935628
1021	4.0840e+000	0.2385	-5.751168
1022	4.0880e+000	0.2509	-5.336828
1023	4.0920e+000	0.2609	-4.752859
1024	4.0960e+000	0.2753	-4.157767
1025	4.1000e+000	0.2861	-3.710984
1026	4.1040e+000	0.2983	-3.164092
1027	4.1080e+000	0.3114	-2.594954
1028	4.1120e+000	0.3213	-2.038793
1029	4.1160e+000	0.3355	-1.631869
1030	4.1200e+000	0.3452	-0.970037
1031	4.1240e+000	0.3585	-0.413876
1032	4.1280e+000	0.3713	0.045883
1033	4.1320e+000	0.3817	0.482470
1034	4.1360e+000	0.3947	1.249045
1035	4.1400e+000	0.4082	1.869164
1036	4.1440e+000	0.4188	2.210276
1037	4.1480e+000	0.4305	2.836884
1038	4.1520e+000	0.4411	3.487593
1039	4.1560e+000	0.4562	3.974233
1040	4.1600e+000	0.4666	4.402477
1041	4.1640e+000	0.4769	5.031866
1042	4.1680e+000	0.4931	5.539827
1043	4.1720e+000	0.5030	6.083937
1044	4.1760e+000	0.5154	6.655856
1045	4.1800e+000	0.5259	7.328811
1046	4.1840e+000	0.5384	7.808963
1047	4.1880e+000	0.5503	8.165833
1048	4.1920e+000	0.5637	8.782245
1049	4.1960e+000	0.5716	9.307817
1050	4.2000e+000	0.5860	9.745330
1051	4.2040e+000	0.5952	9.984479
1052	4.2080e+000	0.6119	10.942003
1053	4.2120e+000	0.6212	11.265503
1054	4.2160e+000	0.6350	11.672428
1055	4.2200e+000	0.6468	12.260105
1056	4.2240e+000	0.6580	12.831097
1057	4.2280e+000	0.6705	13.144401
1058	4.2320e+000	0.6831	13.609722
1059	4.2360e+000	0.6950	14.154760
1060	4.2400e+000	0.7052	14.495872
1061	4.2440e+000	0.7187	15.052960
1062	4.2480e+000	0.7321	15.495107
1063	4.2520e+000	0.7433	15.955794
1064	4.2560e+000	0.7519	16.312664
1065	4.2600e+000	0.7681	16.794670
1066	4.2640e+000	0.7777	17.216426
1067	4.2680e+000	0.7912	17.679893
1068	4.2720e+000	0.8034	18.031201
1069	4.2760e+000	0.8134	18.490034
1070	4.2800e+000	0.8279	18.961844
1071	4.2840e+000	0.8395	19.253829
1072	4.2880e+000	0.8485	19.832236
1073	4.2920e+000	0.8620	20.179837
1074	4.2960e+000	0.8759	20.520022
1075	4.3000e+000	0.8874	20.850010
1076	4.3040e+000	0.9007	21.263423
1077	4.3080e+000	0.9096	21.657371
1078	4.3120e+000	0.9209	22.125473
1079	4.3160e+000	0.9348	22.536105
1080	4.3200e+000	0.9492	22.867948
1081	4.3240e+000	0.9583	23.229452
1082	4.3280e+000	0.9724	23.669746
1083	4.3320e+000	0.9802	24.010859
1084	4.3360e+000	0.9939	24.334359
1085	4.3400e+000	1.0074	24.786703
1086	4.3440e+000	1.0196	25.194554
1087	4.3480e+000	1.0300	25.506931
1088	4.3520e+000	1.0457	25.869363
1089	4.3560e+000	1.0542	26.320780
1090	4.3600e+000	1.0662	26.753659
1091	4.3640e+000	1.0783	26.973342
1092	4.3680e+000	1.0892	27.465545
1093	4.3720e+000	1.1020	27.912328
1094	4.3760e+000	1.1147	28.204312
1095	4.3800e+000	1.1250	28.550059
1096	4.3840e+000	1.1399	28.931029
1097	4.3880e+000	1.1489	29.392643
1098	4.3920e+000	1.1626	29.550222
1099	4.3960e+000	1.1740	29.973831
1100	4.4000e+000	1.1875	30.403002
1101	4.4040e+000	1.1990	30.693132
1102	4.4080e+000	1.2095	30.834026
1103	4.4120e+000	1.2237	31.225193
1104	4.4160e+000	1.2341	31.519958
1105	4.4200e+000	1.2466	31.613579
1106	4.4240e+000	1.2608	31.860143
1107	4.4280e+000	1.2698	32.069631
1108	4.4320e+000	1.2818	32.267068
1109	4.4360e+000	1.2946	32.334734
1110	4.4400e+000	1.3068	32.531244
1111	4.4440e+000	1.3191	32.686042
1112	4.4480e+000	1.3309	32.712923
1113	4.4520e+000	1.3433	32.760197
1114	4.4560e+000	1.3542	32.940023
1115	4.4600e+000	1.3682	33.046620
1116	4.4640e+000	1.3788	33.004908
1117	4.4680e+000	1.3889	33.142094
1118	4.4720e+000	1.4033	33.155998
1119	4.4760e+000	1.4126	33.233861
1120	4.4800e+000	1.4268	33.261669
1121	4.4840e+000	1.4376	33.387732
1122	4.4880e+000	1.4514	33.420175
1123	4.4920e+000	1.4628	33.453544
1124	4.4960e+000	1.4745	33.546238
1125	4.5000e+000	1.4855	33.547165
1126	4.5040e+000	1.5006	33.545311
1127	4.5080e+000	1.5112	33.588877
1128	4.5120e+000	1.5239	33.710305
1129	4.5160e+000	1.5337	33.732552
1130	4.5200e+000	1.5445	33.778899
1131	4.5240e+000	1.5585	33.746456
1132	4.5280e+000	1.5685	33.782606
1133	4.5320e+000	1.5816	33.863250
1134	4.5360e+000	1.5937	33.856761
1135	4.5400e+000	1.6074	33.984678
1136	4.5440e+000	1.6194	33.963359
1137	4.5480e+000	1.6311	34.009705
1138	4.5520e+000	1.6416	33.998582
1139	4.5560e+000	1.6538	34.094983
1140	4.5600e+000	1.6676	34.081079
1141	4.5640e+000	1.6772	34.156161
1142	4.5680e+000	1.6911	34.140403
1143	4.5720e+000	1.7060	34.110741
1144	4.5760e+000	1.7152	34.222900
1145	4.5800e+000	1.7274	34.160796
1146	4.5840e+000	1.7390	34.213631
1147	4.5880e+000	1.7516	34.354525
1148	4.5920e+000	1.7627	34.386041
1149	4.5960e+000	1.7745	34.363795
1150	4.6000e+000	1.7868	34.384187
1151	4.6040e+000	1.8005	34.473173
1152	4.6080e+000	1.8103	34.392530
1153	4.6120e+000	1.8221	34.477808
1154	4.6160e+000	1.8378	34.489858
1155	4.6200e+000	1.8462	34.612213
1156	4.6240e+000	1.8592	34.507469
1157	4.6280e+000	1.8707	34.482442
1158	4.6320e+000	1.8827	34.640948
1159	4.6360e+000	1.8960	34.689149
1160	4.6400e+000	1.9063	34.626117
1161	4.6440e+000	1.9183	34.597382
1162	4.6480e+000	1.9317	34.844874
1163	4.6520e+000	1.9433	34.755888
1164	4.6560e+000	1.9547	34.754961
1165	4.6600e+000	1.9682	34.699345
1166	4.6640e+000	1.9802	34.892147
1167	4.6680e+000	1.9912	34.872682
1168	4.6720e+000	2.0044	34.825408
1169	4.6760e+000	2.0144	34.904198
1170	4.6800e+000	2.0266	34.886586
1171	4.6840e+000	2.0376	34.864339
1172	4.6880e+000	2.0500	34.857851
1173	4.6920e+000	2.0631	35.033968
1174	4.6960e+000	2.0742	34.859705
1175	4.7000e+000	2.0883	35.024699
1176	4.7040e+000	2.0983	35.110904
1177	4.7080e+000	2.1113	35.147981
1178	4.7120e+000	2.1223	35.029334
1179	4.7160e+000	2.1356	35.082169
1180	4.7200e+000	2.1478	35.243456
1181	4.7240e+000	2.1597	35.133151
1182	4.7280e+000	2.1728	35.148908
1183	4.7320e+000	2.1828	35.109050
1184	4.7360e+000	2.1952	35.270337
1185	4.7400e+000	2.2079	35.218429
1186	4.7440e+000	2.2183	35.265702
1187	4.7480e+000	2.2320	35.452016
1188	4.7520e+000	2.2432	35.299999
1189	4.7560e+000	2.2512	35.337076
1190	4.7600e+000	2.2660	35.427916
1191	4.7640e+000	2.2816	35.355615
1192	4.7680e+000	2.2910	35.292583
1193	4.7720e+000	2.3042	35.338930
1194	4.7760e+000	2.3150	35.552125
1195	4.7800e+000	2.3269	35.409377
1196	4.7840e+000	2.3384	35.409377
1197	4.7880e+000	2.3515	35.521536
1198	4.7920e+000	2.3647	35.591983
1199	4.7960e+000	2.3750	35.582714
1200	4.8000e+000	2.3865	35.533586
1201	4.8040e+000	2.3988	35.548417
1202	4.8080e+000	2.4118	35.717120
1203	4.8120e+000	2.4229	35.673554
1204	4.8160e+000	2.4348	35.639257
1205	4.8200e+000	2.4493	35.718973
1206	4.8240e+000	2.4606	35.628134
1207	4.8280e+000	2.4703	35.718973
1208	4.8320e+000	2.4850	35.693019
1209	4.8360e+000	2.4941	35.724535
1210	4.8400e+000	2.5087	35.716193
1211	4.8440e+000	2.5201	35.756051
1212	4.8480e+000	2.5313	35.874698
1213	4.8520e+000	2.5450	35.780151
1214	4.8560e+000	2.5575	35.833913
1215	4.8600e+000	2.5675	35.889529
1216	4.8640e+000	2.5808	35.907141
1217	4.8680e+000	2.5915	35.931241
1218	4.8720e+000	2.6035	35.916411
1219	4.8760e+000	2.6150	35.977588
1220	4.8800e+000	2.6298	35.999835
1221	4.8840e+000	2.6389	35.986858
1222	4.8880e+000	2.6517	35.976661
1223	4.8920e+000	2.6630	35.964611
1224	4.8960e+000	2.6762	36.068428
1225	4.9000e+000	2.6870	36.176879
1226	4.9040e+000	2.6995	36.023935
1227	4.9080e+000	2.7113	36.076770
1228	4.9120e+000	2.7209	36.266792
1229	4.9160e+000	2.7357	36.203760
1230	4.9200e+000	2.7489	36.180587
1231	4.9240e+000	2.7617	36.124044
1232	4.9280e+000	2.7704	36.174098
1233	4.9320e+000	2.7853	36.133313
1234	4.9360e+000	2.7943	36.201906
1235	4.9400e+000	2.8071	36.271427
1236	4.9440e+000	2.8219	36.163902
1237	4.9480e+000	2.8312	36.377097
1238	4.9520e+000	2.8430	36.280696
1239	4.9560e+000	2.8576	36.335385
1240	4.9600e+000	2.8661	36.295527
1241	4.9640e+000	2.8820	36.322408
1242	4.9680e+000	2.8883	36.365047
1243	4.9720e+000	2.9026	36.380805
1244	4.9760e+000	2.9163	36.351143
1245	4.9800e+000	2.9276	36.381732
1246	4.9840e+000	2.9386	36.493891
1247	4.9880e+000	2.9523	36.324262
1248	4.9920e+000	2.9629	36.448471
1249	4.9960e+000	2.9748	36.495745
1250	5.0000e+000	2.9867	36.461448
1251	5.0040e+000	3.0010	36.462375
1252	5.0080e+000	2.9896	36.544872
1253	5.0120e+000	2.9769	36.525407
1254	5.0160e+000	2.9639	36.419736
1255	5.0200e+000	2.9533	36.479987
1256	5.0240e+000	2.9388	36.515210
1257	5.0280e+000	2.9263	36.469791
1258	5.0320e+000	2.9156	36.326116
1259	5.0360e+000	2.9040	36.459594
1260	5.0400e+000	2.8915	36.424371
1261	5.0440e+000	2.8796	36.270500
1262	5.0480e+000	2.8687	36.329823
1263	5.0520e+000	2.8539	36.357632
1264	5.0560e+000	2.8433	36.203760
1265	5.0600e+000	2.8307	36.272354
1266	5.0640e+000	2.8180	36.326116
1267	5.0680e+000	2.8056	36.200980
1268	5.0720e+000	2.7966	36.282550
1269	5.0760e+000	2.7840	36.319627
1270	5.0800e+000	2.7709	36.285331
1271	5.0840e+000	2.7602	36.263084
1272	5.0880e+000	2.7481	36.119409
1273	5.0920e+000	2.7341	36.077697
1274	5.0960e+000	2.7230	36.232495
1275	5.1000e+000	2.7100	36.088820
1276	5.1040e+000	2.7002	36.179660
1277	5.1080e+000	2.6876	36.246399
1278	5.1120e+000	2.6737	36.116628
1279	5.1160e+000	2.6634	36.007250
1280	5.1200e+000	2.6529	36.138875
1281	5.1240e+000	2.6373	35.959976
1282	5.1280e+000	2.6266	35.883968
1283	5.1320e+000	2.6125	36.099017
1284	5.1360e+000	2.6035	36.026716
1285	5.1400e+000	2.5914	36.013739
1286	5.1440e+000	2.5796	36.046181
1287	5.1480e+000	2.5690	35.998908
1288	5.1520e+000	2.5568	35.953488
1289	5.1560e+000	2.5439	35.942365
1290	5.1600e+000	2.5324	35.972027
1291	5.1640e+000	2.5184	35.748635
1292	5.1680e+000	2.5063	35.946999
1293	5.1720e+000	2.4957	35.912703
1294	5.1760e+000	2.4823	35.915484
1295	5.1800e+000	2.4703	35.917337
1296	5.1840e+000	2.4609	35.814448
1297	5.1880e+000	2.4461	35.782932
1298	5.1920e+000	2.4351	35.806105
1299	5.1960e+000	2.4236	35.820009
1300	5.2000e+000	2.4103	35.622572
1301	5.2040e+000	2.3989	35.831133
1302	5.2080e+000	2.3867	35.683750
1303	5.2120e+000	2.3747	35.767174
1304	5.2160e+000	2.3615	35.863575
1305	5.2200e+000	2.3511	35.673554
1306	5.2240e+000	2.3363	35.662430
1307	5.2280e+000	2.3267	35.749562
1308	5.2320e+000	2.3130	35.718046
1309	5.2360e+000	2.3035	35.480751
1310	5.2400e+000	2.2923	35.727316
1311	5.2440e+000	2.2800	35.625353
1312	5.2480e+000	2.2666	35.612376
1313	5.2520e+000	2.2549	35.597545
1314	5.2560e+000	2.2432	35.542856
1315	5.2600e+000	2.2324	35.634622
1316	5.2640e+000	2.2207	35.433477
1317	5.2680e+000	2.2059	35.555833
1318	5.2720e+000	2.1940	35.494655
1319	5.2760e+000	2.1839	35.515048
1320	5.2800e+000	2.1694	35.551198
1321	5.2840e+000	2.1590	35.398254
1322	5.2880e+000	2.1461	35.728243
1323	5.2920e+000	2.1352	35.269410
1324	5.2960e+000	2.1238	35.441820
1325	5.3000e+000	2.1117	35.468701
1326	5.3040e+000	2.0998	35.368592
1327	5.3080e+000	2.0856	35.196182
1328	5.3120e+000	2.0750	35.427916
1329	5.3160e+000	2.0634	35.376934
1330	5.3200e+000	2.0499	35.304633
1331	5.3240e+000	2.0400	35.394546
1332	5.3280e+000	2.0271	35.341711
1333	5.3320e+000	2.0157	35.303707
1334	5.3360e+000	2.0031	35.280533
1335	5.3400e+000	1.9901	35.295364
1336	5.3440e+000	1.9786	35.077534
1337	5.3480e+000	1.9653	35.216575
1338	5.3520e+000	1.9546	35.118320
1339	5.3560e+000	1.9428	35.165593
1340	5.3600e+000	1.9302	35.233259
1341	5.3640e+000	1.9173	35.027480
1342	5.3680e+000	1.9056	35.173009
1343	5.3720e+000	1.8956	35.143347
1344	5.3760e+000	1.8833	35.136858
1345	5.3800e+000	1.8687	34.966302
1346	5.3840e+000	1.8574	35.114612
1347	5.3880e+000	1.8470	35.066411
1348	5.3920e+000	1.8339	35.095146
1349	5.3960e+000	1.8237	35.092365
1350	5.4000e+000	1.8108	34.995037
1351	5.4040e+000	1.7981	34.918102
1352	5.4080e+000	1.7846	34.971864
1353	5.4120e+000	1.7760	34.967229
1354	5.4160e+000	1.7633	34.864339
1355	5.4200e+000	1.7516	34.966302
1356	5.4240e+000	1.7395	34.878243
1357	5.4280e+000	1.7262	34.908832
1358	5.4320e+000	1.7155	34.946837
1359	5.4360e+000	1.7031	34.928298
1360	5.4400e+000	1.6917	34.862486
1361	5.4440e+000	1.6775	34.826335
1362	5.4480e+000	1.6673	34.848582
1363	5.4520e+000	1.6536	34.715103
1364	5.4560e+000	1.6432	34.728080
1365	5.4600e+000	1.6321	34.739203
1366	5.4640e+000	1.6195	34.815212
1367	5.4680e+000	1.6051	34.757742
1368	5.4720e+000	1.5945	34.618702
1369	5.4760e+000	1.5824	34.622409
1370	5.4800e+000	1.5736	34.676172
1371	5.4840e+000	1.5586	34.652071
1372	5.4880e+000	1.5475	34.719738
1373	5.4920e+000	1.5339	34.639094
1374	5.4960e+000	1.5240	34.606651
1375	5.5000e+000	1.5074	34.547328
1376	5.5040e+000	1.4979	34.661341
1377	5.5080e+000	1.4890	34.444438
1378	5.5120e+000	1.4755	34.521373
1379	5.5160e+000	1.4625	34.601090
1380	5.5200e+000	1.4516	34.529716
1381	5.5240e+000	1.4379	34.537131
1382	5.5280e+000	1.4269	34.389749
1383	5.5320e+000	1.4140	34.427753
1384	5.5360e+000	1.4024	34.414776
1385	5.5400e+000	1.3901	34.411068
1386	5.5440e+000	1.3795	34.324863
1387	5.5480e+000	1.3677	34.376772
1388	5.5520e+000	1.3558	34.267393
1389	5.5560e+000	1.3408	34.197873
1390	5.5600e+000	1.3303	34.417557
1391	5.5640e+000	1.3187	34.282224
1392	5.5680e+000	1.3076	34.160796
1393	5.5720e+000	1.2943	34.180261
1394	5.5760e+000	1.2829	34.325790
1395	5.5800e+000	1.2705	34.106107
1396	5.5840e+000	1.2601	34.091276
1397	5.5880e+000	1.2484	34.196019
1398	5.5920e+000	1.2331	34.142257
1399	5.5960e+000	1.2238	34.268320
1400	5.6000e+000	1.2114	34.019902
1401	5.6040e+000	1.1976	34.089422
1402	5.6080e+000	1.1871	33.955016
1403	5.6120e+000	1.1759	34.069029
1404	5.6160e+000	1.1623	33.933697
1405	5.6200e+000	1.1489	34.012486
1406	5.6240e+000	1.1370	33.871592
1407	5.6280e+000	1.1263	33.854907
1408	5.6320e+000	1.1152	34.054198
1409	5.6360e+000	1.1053	33.864177
1410	5.6400e+000	1.0908	33.850273
1411	5.6440e+000	1.0800	33.879008
1412	5.6480e+000	1.0658	33.978190
1413	5.6520e+000	1.0532	33.734406
1414	5.6560e+000	1.0419	33.756652
1415	5.6600e+000	1.0316	33.792803
1416	5.6640e+000	1.0188	33.688059
1417	5.6680e+000	1.0064	33.728844
1418	5.6720e+000	0.9941	33.618539
1419	5.6760e+000	0.9822	33.789095
1420	5.6800e+000	0.9726	33.667666
1421	5.6840e+000	0.9585	33.615758
1422	5.6880e+000	0.9480	33.485987
1423	5.6920e+000	0.9349	33.612050
1424	5.6960e+000	0.9196	33.459106
1425	5.7000e+000	0.9126	33.452618
1426	5.7040e+000	0.8978	33.486914
1427	5.7080e+000	0.8901	33.532334
1428	5.7120e+000	0.8745	33.310796
1429	5.7160e+000	0.8621	33.340458
1430	5.7200e+000	0.8511	33.425736
1431	5.7240e+000	0.8379	33.295966
1432	5.7280e+000	0.8265	33.319139
1433	5.7320e+000	0.8136	33.288550
1434	5.7360e+000	0.8019	33.287623
1435	5.7400e+000	0.7920	33.354362
1436	5.7440e+000	0.7800	33.214395
1437	5.7480e+000	0.7658	33.245911
1438	5.7520e+000	0.7541	33.187514
1439	5.7560e+000	0.7422	33.255180
1440	5.7600e+000	0.7317	33.034570
1441	5.7640e+000	0.7193	33.096675
1442	5.7680e+000	0.7076	33.079990
1443	5.7720e+000	0.6926	32.930753
1444	5.7760e+000	0.6829	32.962269
1445	5.7800e+000	0.6701	32.989150
1446	5.7840e+000	0.6578	32.972465
1447	5.7880e+000	0.6461	32.854745
1448	5.7920e+000	0.6356	32.946511
1449	5.7960e+000	0.6240	32.819521
1450	5.8000e+000	0.6107	32.823229
1451	5.8040e+000	0.5982	32.699946
1452	5.8080e+000	0.5865	32.774101
1453	5.8120e+000	0.5728	32.744439
1454	5.8160e+000	0.5650	32.640623
1455	5.8200e+000	0.5505	32.646184
1456	5.8240e+000	0.5378	32.558125
1457	5.8280e+000	0.5257	32.577591
1458	5.8320e+000	0.5145	32.399619
1459	5.8360e+000	0.5017	32.579445
1460	5.8400e+000	0.4903	32.469140
1461	5.8440e+000	0.4749	32.448747
1462	5.8480e+000	0.4671	32.338442
1463	5.8520e+000	0.4560	32.374592
1464	5.8560e+000	0.4438	32.213306
1465	5.8600e+000	0.4266	32.100219
1466	5.8640e+000	0.4192	32.278191
1467	5.8680e+000	0.4054	32.135443
1468	5.8720e+000	0.3955	31.942641
1469	5.8760e+000	0.3825	31.943567
1470	5.8800e+000	0.3711	31.958398
1471	5.8840e+000	0.3590	31.803600
1472	5.8880e+000	0.3453	31.726665
1473	5.8920e+000	0.3347	31.773938
1474	5.8960e+000	0.3218	31.784135
1475	5.9000e+000	0.3102	31.616359
1476	5.9040e+000	0.2982	31.284517
1477	5.9080e+000	0.2875	31.393895
1478	5.9120e+000	0.2727	31.294713
1479	5.9160e+000	0.2610	31.172358
1480	5.9200e+000	0.2468	30.930428
1481	5.9240e+000	0.2395	30.975847
1482	5.9280e+000	0.2249	30.717233
1483	5.9320e+000	0.2143	30.427102
1484	5.9360e+000	0.2018	30.225030
1485	5.9400e+000	0.1907	30.123994
1486	5.9440e+000	0.1808	29.832010
1487	5.9480e+000	0.1675	29.606765
1488	5.9520e+000	0.1563	29.344442
1489	5.9560e+000	0.1426	28.991280
1490	5.9600e+000	0.1326	28.570451
1491	5.9640e+000	0.1202	28.241389
1492	5.9680e+000	0.1064	27.770507
1493	5.9720e+000	0.0937	27.175414
1494	5.9760e+000	0.0822	26.803713
1495	5.9800e+000	0.0691	26.111293
1496	5.9840e+000	0.0576	25.588502
1497	5.9880e+000	0.0445	24.875689
1498	5.9920e+000	0.0337	24.273181
1499	5.9960e+000	0.0217	23.586322
1500	6.0000e+000	0.0099	22.858678
1501	6.0040e+000	0.0002	22.157916
1502	6.0080e+000	-0.0134	21.398756
1503	6.0120e+000	-0.0204	20.628473
1504	6.0160e+000	-0.0371	19.714515
1505	6.0200e+000	-0.0485	18.950721
1506	6.0240e+000	-0.0602	18.051594
1507	6.0280e+000	-0.0724	17.267407
1508	6.0320e+000	-0.0840	16.396088
1509	6.0360e+000	-0.0985	15.545162
1510	6.0400e+000	-0.1098	14.704432
1511	6.0440e+000	-0.1212	13.847017
1512	6.0480e+000	-0.1346	12.966429
1513	6.0520e+000	-0.1445	12.064521
1514	6.0560e+000	-0.1563	11.335024
1515	6.0600e+000	-0.1688	10.273683
1516	6.0640e+000	-0.1807	9.532135
1517	6.0680e+000	-0.1949	8.693259
1518	6.0720e+000	-0.2091	7.893314
1519	6.0760e+000	-0.2193	6.983991
1520	6.0800e+000	-0.2274	6.227612
1521	6.0840e+000	-0.2409	5.498114
1522	6.0880e+000	-0.2530	4.711147
1523	6.0920e+000	-0.2650	3.798116
1524	6.0960e+000	-0.2768	3.021344
1525	6.1000e+000	-0.2883	2.431814
1526	6.1040e+000	-0.3014	1.676362
1527	6.1080e+000	-0.3115	0.856024
1528	6.1120e+000	-0.3241	0.325818
1529	6.1160e+000	-0.3373	-0.298937
1530	6.1200e+000	-0.3491	-1.151717
1531	6.1240e+000	-0.3620	-1.764421
1532	6.1280e+000	-0.3738	-2.374344
1533	6.1320e+000	-0.3865	-3.199316
1534	6.1360e+000	-0.3954	-3.762892
1535	6.1400e+000	-0.4090	-4.256022
1536	6.1440e+000	-0.4207	-4.668508
1537	6.1480e+000	-0.4324	-5.410056
1538	6.1520e+000	-0.4446	-5.902258
1539	6.1560e+000	-0.4578	-6.349968
1540	6.1600e+000	-0.4717	-6.920960
1541	6.1640e+000	-0.4825	-7.554983
1542	6.1680e+000	-0.4954	-8.088898
1543	6.1720e+000	-0.5051	-8.384590
1544	6.1760e+000	-0.5167	-8.888842
1545	6.1800e+000	-0.5309	-9.477446
1546	6.1840e+000	-0.5421	-9.937206
1547	6.1880e+000	-0.5518	-10.241240
1548	6.1920e+000	-0.5670	-10.789059
1549	6.1960e+000	-0.5779	-11.191349
1550	6.2000e+000	-0.5874	-11.636277
1551	6.2040e+000	-0.6019	-11.974609
1552	6.2080e+000	-0.6113	-12.515939
1553	6.2120e+000	-0.6245	-12.806069
1554	6.2160e+000	-0.6355	-13.203724
1555	6.2200e+000	-0.6473	-13.676461
1556	6.2240e+000	-0.6608	-13.948053
1557	6.2280e+000	-0.6725	-14.443036
1558	6.2320e+000	-0.6837	-14.797125
1559	6.2360e+000	-0.6981	-15.285620
1560	6.2400e+000	-0.7109	-15.399633
1561	6.2440e+000	-0.7210	-15.952086
1562	6.2480e+000	-0.7336	-16.281148
1563	6.2520e+000	-0.7448	-16.779839
1564	6.2560e+000	-0.7565	-16.986546
1565	6.2600e+000	-0.7689	-17.311900
1566	6.2640e+000	-0.7837	-17.761463
1567	6.2680e+000	-0.7924	-18.037690
1568	6.2720e+000	-0.8054	-18.324113
1569	6.2760e+000	-0.8178	-18.322259
1570	6.2800e+000	-0.8292	-18.946086
1571	6.2840e+000	-0.8392	-19.271440
1572	6.2880e+000	-0.8540	-19.584744
1573	6.2920e+000	-0.8637	-19.808136
1574	6.2960e+000	-0.8781	-20.190960
1575	6.3000e+000	-0.8884	-20.507045
1576	6.3040e+000	-0.9017	-20.654427
1577	6.3080e+000	-0.9144	-20.996466
1578	6.3120e+000	-0.9282	-21.235615
1579	6.3160e+000	-0.9373	-21.508134
1580	6.3200e+000	-0.9502	-21.712987
1581	6.3240e+000	-0.9618	-22.124546
1582	6.3280e+000	-0.9756	-22.346083
1583	6.3320e+000	-0.9869	-22.561132
1584	6.3360e+000	-0.9969	-22.786377
1585	6.3400e+000	-1.0072	-23.129343
1586	6.3440e+000	-1.0224	-23.405570
1587	6.3480e+000	-1.0324	-23.519583
1588	6.3520e+000	-1.0450	-23.875526
1589	6.3560e+000	-1.0577	-24.087794
1590	6.3600e+000	-1.0688	-24.272254
1591	6.3640e+000	-1.0805	-24.400171
1592	6.3680e+000	-1.0890	-24.592974
1593	6.3720e+000	-1.1039	-24.999898
1594	6.3760e+000	-1.1157	-25.134304
1595	6.3800e+000	-1.1304	-25.286321
1596	6.3840e+000	-1.1409	-25.541228
1597	6.3880e+000	-1.1555	-25.756277
1598	6.3920e+000	-1.1653	-25.889756
1599	6.3960e+000	-1.1751	-26.153005
1600	6.4000e+000	-1.1894	-26.353223
1601	6.4040e+000	-1.2009	-26.376396
1602	6.4080e+000	-1.2144	-26.613692
1603	6.4120e+000	-1.2243	-26.887138
1604	6.4160e+000	-1.2370	-26.999297
1605	6.4200e+000	-1.2476	-27.138337
1606	6.4240e+000	-1.2637	-27.343190
1607	6.4280e+000	-1.2736	-27.484084
1608	6.4320e+000	-1.2866	-27.592535
1609	6.4360e+000	-1.2994	-27.760310
1610	6.4400e+000	-1.3084	-27.879885
1611	6.4440e+000	-1.3219	-28.150550
1612	6.4480e+000	-1.3315	-28.210801
1613	6.4520e+000	-1.3445	-28.450877
1614	6.4560e+000	-1.3560	-28.612163
1615	6.4600e+000	-1.3684	-28.662218
1616	6.4640e+000	-1.3801	-28.724323
1617	6.4680e+000	-1.3902	-28.976449
1618	6.4720e+000	-1.4048	-29.148859
1619	6.4760e+000	-1.4156	-29.092316
1620	6.4800e+000	-1.4281	-29.355565
1621	6.4840e+000	-1.4397	-29.502021
1622	6.4880e+000	-1.4525	-29.531683
1623	6.4920e+000	-1.4645	-29.689262
1624	6.4960e+000	-1.4781	-29.815325
1625	6.5000e+000	-1.4911	-30.024812
1626	6.5040e+000	-1.5022	-29.981246
1627	6.5080e+000	-1.5144	-30.144387
1628	6.5120e+000	-1.5265	-30.187026
1629	6.5160e+000	-1.5359	-30.455837
1630	6.5200e+000	-1.5511	-30.415052
1631	6.5240e+000	-1.5611	-30.611562
1632	6.5280e+000	-1.5732	-30.757091
1633	6.5320e+000	-1.5857	-30.766360
1634	6.5360e+000	-1.5984	-30.839588
1635	6.5400e+000	-1.6101	-31.018486
1636	6.5440e+000	-1.6210	-31.113961
1637	6.5480e+000	-1.6330	-31.152892
1638	6.5520e+000	-1.6452	-31.366087
1639	6.5560e+000	-1.6548	-31.487516
1640	6.5600e+000	-1.6714	-31.478246
1641	6.5640e+000	-1.6833	-31.561670
1642	6.5680e+000	-1.6948	-31.643241
1643	6.5720e+000	-1.7052	-31.775792
1644	6.5760e+000	-1.7177	-31.836970
1645	6.5800e+000	-1.7293	-31.780427
1646	6.5840e+000	-1.7426	-31.925029
1647	6.5880e+000	-1.7538	-32.106708
1648	6.5920e+000	-1.7650	-32.185498
1649	6.5960e+000	-1.7789	-32.163251
1650	6.6000e+000	-1.7897	-32.335661
1651	6.6040e+000	-1.8029	-32.439478
1652	6.6080e+000	-1.8145	-32.459870
1653	6.6120e+000	-1.8261	-32.502509
1654	6.6160e+000	-1.8386	-32.566468
1655	6.6200e+000	-1.8486	-32.645257
1656	6.6240e+000	-1.8588	-32.711997
1657	6.6280e+000	-1.8736	-32.756489
1658	6.6320e+000	-1.8860	-32.885333
1659	6.6360e+000	-1.8990	-32.896457
1660	6.6400e+000	-1.9092	-33.040131
1661	6.6440e+000	-1.9225	-33.079990
1662	6.6480e+000	-1.9345	-33.138387
1663	6.6520e+000	-1.9448	-33.143948
1664	6.6560e+000	-1.9560	-33.220884
1665	6.6600e+000	-1.9701	-33.348801
1666	6.6640e+000	-1.9823	-33.374755
1667	6.6680e+000	-1.9928	-33.332116
1668	6.6720e+000	-2.0036	-33.538822
1669	6.6760e+000	-2.0165	-33.619466
1670	6.6800e+000	-2.0296	-33.447056
1671	6.6840e+000	-2.0428	-33.579608
1672	6.6880e+000	-2.0524	-33.671374
1673	6.6920e+000	-2.0656	-33.747383
1674	6.6960e+000	-2.0769	-33.802072
1675	6.7000e+000	-2.0889	-33.817830
1676	6.7040e+000	-2.1029	-33.994874
1677	6.7080e+000	-2.1133	-33.929989
1678	6.7120e+000	-2.1274	-34.032879
1679	6.7160e+000	-2.1381	-33.960578
1680	6.7200e+000	-2.1492	-34.155234
1681	6.7240e+000	-2.1635	-33.936478
1682	6.7280e+000	-2.1734	-34.188604
1683	6.7320e+000	-2.1857	-34.138549
1684	6.7360e+000	-2.1988	-34.190458
1685	6.7400e+000	-2.2108	-34.144111
1686	6.7440e+000	-2.2210	-34.409214
1687	6.7480e+000	-2.2338	-34.268320
1688	6.7520e+000	-2.2482	-34.498200
1689	6.7560e+000	-2.2584	-34.357306
1690	6.7600e+000	-2.2727	-34.443511
1691	6.7640e+000	-2.2823	-34.490785
1692	6.7680e+000	-2.2931	-34.543620
1693	6.7720e+000	-2.3074	-34.495419
1694	6.7760e+000	-2.3183	-34.613140
1695	6.7800e+000	-2.3314	-34.604798
1696	6.7840e+000	-2.3402	-34.617775
1697	6.7880e+000	-2.3558	-34.619629
1698	6.7920e+000	-2.3653	-34.669683
1699	6.7960e+000	-2.3771	-34.688222
1700	6.8000e+000	-2.3911	-34.925517
1701	6.8040e+000	-2.4018	-34.997818
1702	6.8080e+000	-2.4120	-34.914394
1703	6.8120e+000	-2.4249	-35.066411
1704	6.8160e+000	-2.4366	-35.022845
1705	6.8200e+000	-2.4480	-34.978352
1706	6.8240e+000	-2.4610	-35.202671
1707	6.8280e+000	-2.4739	-35.139639
1708	6.8320e+000	-2.4856	-35.247164
1709	6.8360e+000	-2.4998	-35.249017
1710	6.8400e+000	-2.5092	-35.272191
1711	6.8440e+000	-2.5227	-35.216575
1712	6.8480e+000	-2.5352	-35.306487
1713	6.8520e+000	-2.5444	-35.404742
1714	6.8560e+000	-2.5578	-35.305560
1715	6.8600e+000	-2.5708	-35.376007
1716	6.8640e+000	-2.5832	-35.427916
1717	6.8680e+000	-2.5925	-35.439039
1718	6.8720e+000	-2.6072	-35.492801
1719	6.8760e+000	-2.6173	-35.526171
1720	6.8800e+000	-2.6296	-35.419573
1721	6.8840e+000	-2.6428	-35.609595
1722	6.8880e+000	-2.6543	-35.593837
1723	6.8920e+000	-2.6658	-35.573445
1724	6.8960e+000	-2.6773	-35.622572
1725	6.9000e+000	-2.6910	-35.711558
1726	6.9040e+000	-2.7016	-35.739366
1727	6.9080e+000	-2.7147	-35.735658
1728	6.9120e+000	-2.7261	-35.854306
1729	6.9160e+000	-2.7394	-35.810740
1730	6.9200e+000	-2.7515	-35.969246
1731	6.9240e+000	-2.7617	-35.977588
1732	6.9280e+000	-2.7737	-35.917337
1733	6.9320e+000	-2.7858	-35.940511
1734	6.9360e+000	-2.7962	-36.008177
1735	6.9400e+000	-2.8093	-35.946072
1736	6.9440e+000	-2.8201	-35.940511
1737	6.9480e+000	-2.8347	-35.997981
1738	6.9520e+000	-2.8443	-36.033204
1739	6.9560e+000	-2.8568	-36.082332
1740	6.9600e+000	-2.8709	-36.074916
1741	6.9640e+000	-2.8838	-36.264938
1742	6.9680e+000	-2.8958	-36.172245
1743	6.9720e+000	-2.9057	-36.228788
1744	6.9760e+000	-2.9185	-36.241765
1745	6.9800e+000	-2.9282	-36.230641
1746	6.9840e+000	-2.9424	-36.246399
1747	6.9880e+000	-2.9532	-36.239911
1748	6.9920e+000	-2.9662	-36.368755
1749	6.9960e+000	-2.9770	-36.355778
1750	7.0000e+000	-2.9892	-36.544872
1751	7.0040e+000	-3.0017	-36.422517
1752	7.0080e+000	-2.9886	-36.404905
1753	7.0120e+000	-2.9803	-36.261230
1754	7.0160e+000	-2.9639	-36.336312
1755	7.0200e+000	-2.9547	-36.416955
1756	7.0240e+000	-2.9430	-36.411394
1757	7.0280e+000	-2.9295	-36.328897
1758	7.0320e+000	-2.9182	-36.356705
1759	7.0360e+000	-2.9047	-36.515210
1760	7.0400e+000	-2.8960	-36.096236
1761	7.0440e+000	-2.8817	-36.271427
1762	7.0480e+000	-2.8712	-36.240838
1763	7.0520e+000	-2.8585	-36.430859
1764	7.0560e+000	-2.8462	-36.238984
1765	7.0600e+000	-2.8333	-36.144437
1766	7.0640e+000	-2.8215	-36.317773
1767	7.0680e+000	-2.8101	-36.250107
1768	7.0720e+000	-2.7986	-36.313139
1769	7.0760e+000	-2.7864	-36.104578
1770	7.0800e+000	-2.7733	-36.260303
1771	7.0840e+000	-2.7626	-36.117555
1772	7.0880e+000	-2.7496	-36.136094
1773	7.0920e+000	-2.7397	-36.149071
1774	7.0960e+000	-2.7259	-36.031350
1775	7.1000e+000	-2.7150	-36.013739
1776	7.1040e+000	-2.7020	-36.041547
1777	7.1080e+000	-2.6903	-36.108286
1778	7.1120e+000	-2.6775	-36.008177
1779	7.1160e+000	-2.6649	-35.994273
1780	7.1200e+000	-2.6535	-35.954415
1781	7.1240e+000	-2.6408	-36.112921
1782	7.1280e+000	-2.6307	-35.985004
1783	7.1320e+000	-2.6190	-36.106432
1784	7.1360e+000	-2.6047	-35.950707
1785	7.1400e+000	-2.5922	-35.875625
1786	7.1440e+000	-2.5807	-35.932168
1787	7.1480e+000	-2.5723	-35.757905
1788	7.1520e+000	-2.5576	-35.907141
1789	7.1560e+000	-2.5471	-35.747708
1790	7.1600e+000	-2.5346	-35.896018
1791	7.1640e+000	-2.5241	-35.846890
1792	7.1680e+000	-2.5081	-35.757905
1793	7.1720e+000	-2.4992	-35.788494
1794	7.1760e+000	-2.4875	-35.750489
1795	7.1800e+000	-2.4739	-35.643892
1796	7.1840e+000	-2.4599	-35.721754
1797	7.1880e+000	-2.4491	-35.752343
1798	7.1920e+000	-2.4380	-35.642965
1799	7.1960e+000	-2.4274	-35.666138
1800	7.2000e+000	-2.4123	-35.682823
1801	7.2040e+000	-2.4020	-35.457578
1802	7.2080e+000	-2.3906	-35.557687
1803	7.2120e+000	-2.3756	-35.485386
1804	7.2160e+000	-2.3678	-35.516902
1805	7.2200e+000	-2.3550	-35.588276
1806	7.2240e+000	-2.3405	-35.479824
1807	7.2280e+000	-2.3286	-35.491874
1808	7.2320e+000	-2.3174	-35.564175
1809	7.2360e+000	-2.3051	-35.396400
1810	7.2400e+000	-2.2932	-35.331515
1811	7.2440e+000	-2.2823	-35.450162
1812	7.2480e+000	-2.2693	-35.311122
1813	7.2520e+000	-2.2612	-35.362103
1814	7.2560e+000	-2.2445	-35.279606
1815	7.2600e+000	-2.2350	-35.237894
1816	7.2640e+000	-2.2230	-35.226771
1817	7.2680e+000	-2.2090	-35.191547
1818	7.2720e+000	-2.1983	-35.261994
1819	7.2760e+000	-2.1843	-35.157251
1820	7.2800e+000	-2.1745	-35.347272
1821	7.2840e+000	-2.1596	-35.156324
1822	7.2880e+000	-2.1513	-35.063630
1823	7.2920e+000	-2.1356	-35.069192
1824	7.2960e+000	-2.1257	-35.070119
1825	7.3000e+000	-2.1144	-35.044165
1826	7.3040e+000	-2.1004	-34.835604
1827	7.3080e+000	-2.0895	-35.006160
1828	7.3120e+000	-2.0784	-34.997818
1829	7.3160e+000	-2.0643	-34.923663
1830	7.3200e+000	-2.0552	-34.792965
1831	7.3240e+000	-2.0425	-35.013576
1832	7.3280e+000	-2.0300	-34.882878
1833	7.3320e+000	-2.0181	-34.905125
1834	7.3360e+000	-2.0090	-34.898636
1835	7.3400e+000	-1.9949	-34.726226
1836	7.3440e+000	-1.9811	-34.794819
1837	7.3480e+000	-1.9675	-34.737349
1838	7.3520e+000	-1.9586	-34.801308
1839	7.3560e+000	-1.9469	-34.822627
1840	7.3600e+000	-1.9340	-34.616848
1841	7.3640e+000	-1.9211	-34.715103
1842	7.3680e+000	-1.9118	-34.671537
1843	7.3720e+000	-1.8971	-34.606651
1844	7.3760e+000	-1.8854	-34.222900
1845	7.3800e+000	-1.8742	-34.699345
1846	7.3840e+000	-1.8615	-34.640948
1847	7.3880e+000	-1.8490	-34.514885
1848	7.3920e+000	-1.8384	-34.504689
1849	7.3960e+000	-1.8245	-34.523227
1850	7.4000e+000	-1.8118	-34.362868
1851	7.4040e+000	-1.8045	-34.454634
1852	7.4080e+000	-1.7893	-34.247001
1853	7.4120e+000	-1.7795	-34.184896
1854	7.4160e+000	-1.7671	-34.278517
1855	7.4200e+000	-1.7517	-34.255343
1856	7.4240e+000	-1.7414	-34.283151
1857	7.4280e+000	-1.7308	-34.286859
1858	7.4320e+000	-1.7176	-34.160796
1859	7.4360e+000	-1.7056	-34.181188
1860	7.4400e+000	-1.6939	-34.117230
1861	7.4440e+000	-1.6823	-34.120011
1862	7.4480e+000	-1.6714	-33.903108
1863	7.4520e+000	-1.6610	-34.056979
1864	7.4560e+000	-1.6451	-33.927208
1865	7.4600e+000	-1.6335	-33.879935
1866	7.4640e+000	-1.6206	-33.807634
1867	7.4680e+000	-1.6093	-33.830807
1868	7.4720e+000	-1.5984	-33.879008
1869	7.4760e+000	-1.5863	-33.804853
1870	7.4800e+000	-1.5743	-33.740894
1871	7.4840e+000	-1.5604	-33.694548
1872	7.4880e+000	-1.5506	-33.801145
1873	7.4920e+000	-1.5369	-33.665813
1874	7.4960e+000	-1.5251	-33.689913
1875	7.5000e+000	-1.5131	-33.657470
1876	7.5040e+000	-1.5005	-33.583315
1877	7.5080e+000	-1.4893	-33.505453
1878	7.5120e+000	-1.4765	-33.466522
1879	7.5160e+000	-1.4659	-33.455398
1880	7.5200e+000	-1.4532	-33.287623
1881	7.5240e+000	-1.4413	-33.467448
1882	7.5280e+000	-1.4290	-33.347874
1883	7.5320e+000	-1.4176	-33.375682
1884	7.5360e+000	-1.4046	-33.158779
1885	7.5400e+000	-1.3934	-33.130971
1886	7.5440e+000	-1.3801	-33.278354
1887	7.5480e+000	-1.3688	-33.125410
1888	7.5520e+000	-1.3573	-33.118921
1889	7.5560e+000	-1.3451	-33.060524
1890	7.5600e+000	-1.3339	-33.081844
1891	7.5640e+000	-1.3218	-32.925192
1892	7.5680e+000	-1.3083	-32.977100
1893	7.5720e+000	-1.2959	-32.869575
1894	7.5760e+000	-1.2844	-32.801909
1895	7.5800e+000	-1.2732	-32.914995
1896	7.5840e+000	-1.2611	-32.862160
1897	7.5880e+000	-1.2469	-32.801909
1898	7.5920e+000	-1.2364	-32.699019
1899	7.5960e+000	-1.2242	-32.610961
1900	7.6000e+000	-1.2122	-32.687896
1901	7.6040e+000	-1.2016	-32.593349
1902	7.6080e+000	-1.1886	-32.386642
1903	7.6120e+000	-1.1804	-32.443185
1904	7.6160e+000	-1.1636	-32.459870
1905	7.6200e+000	-1.1545	-32.217013
1906	7.6240e+000	-1.1417	-32.203109
1907	7.6280e+000	-1.1301	-32.215159
1908	7.6320e+000	-1.1165	-32.230917
1909	7.6360e+000	-1.1050	-32.103000
1910	7.6400e+000	-1.0942	-32.032553
1911	7.6440e+000	-1.0814	-32.023284
1912	7.6480e+000	-1.0690	-31.923175
1913	7.6520e+000	-1.0587	-31.889805
1914	7.6560e+000	-1.0445	-31.810089
1915	7.6600e+000	-1.0335	-31.803600
1916	7.6640e+000	-1.0204	-31.679391
1917	7.6680e+000	-1.0108	-31.567232
1918	7.6720e+000	-0.9972	-31.539424
1919	7.6760e+000	-0.9866	-31.521812
1920	7.6800e+000	-0.9715	-31.407799
1921	7.6840e+000	-0.9599	-31.345694
1922	7.6880e+000	-0.9483	-31.369795
1923	7.6920e+000	-0.9372	-31.265978
1924	7.6960e+000	-0.9270	-31.184408
1925	7.7000e+000	-0.9132	-31.108399
1926	7.7040e+000	-0.9013	-31.112107
1927	7.7080e+000	-0.8895	-30.921158
1928	7.7120e+000	-0.8801	-30.850711
1929	7.7160e+000	-0.8664	-30.753383
1930	7.7200e+000	-0.8555	-30.659763
1931	7.7240e+000	-0.8416	-30.568923
1932	7.7280e+000	-0.8309	-30.430810
1933	7.7320e+000	-0.8199	-30.403929
1934	7.7360e+000	-0.8057	-30.301039
1935	7.7400e+000	-0.7944	-30.188880
1936	7.7440e+000	-0.7810	-30.123067
1937	7.7480e+000	-0.7688	-30.017397
1938	7.7520e+000	-0.7574	-30.091552
1939	7.7560e+000	-0.7471	-29.778248
1940	7.7600e+000	-0.7354	-29.623449
1941	7.7640e+000	-0.7218	-29.594714
1942	7.7680e+000	-0.7092	-29.429720
1943	7.7720e+000	-0.6969	-29.274922
1944	7.7760e+000	-0.6863	-29.210963
1945	7.7800e+000	-0.6738	-29.039480
1946	7.7840e+000	-0.6613	-28.955129
1947	7.7880e+000	-0.6512	-28.919906
1948	7.7920e+000	-0.6356	-28.725249
1949	7.7960e+000	-0.6247	-28.610310
1950	7.8000e+000	-0.6124	-28.422142
1951	7.8040e+000	-0.5992	-28.331302
1952	7.8080e+000	-0.5892	-28.152404
1953	7.8120e+000	-0.5764	-28.071760
1954	7.8160e+000	-0.5661	-27.805730
1955	7.8200e+000	-0.5540	-27.699133
1956	7.8240e+000	-0.5408	-27.711183
1957	7.8280e+000	-0.5311	-27.179122
1958	7.8320e+000	-0.5175	-27.209711
1959	7.8360e+000	-0.5061	-27.058621
1960	7.8400e+000	-0.4919	-26.850987
1961	7.8440e+000	-0.4799	-26.631304
1962	7.8480e+000	-0.4701	-26.470017
1963	7.8520e+000	-0.4542	-26.319853
1964	7.8560e+000	-0.4433	-26.093681
1965	7.8600e+000	-0.4331	-25.973180
1966	7.8640e+000	-0.4183	-25.705296
1967	7.8680e+000	-0.4112	-25.438338
1968	7.8720e+000	-0.3983	-25.227924
1969	7.8760e+000	-0.3851	-24.965601
1970	7.8800e+000	-0.3723	-24.837684
1971	7.8840e+000	-0.3615	-24.504915
1972	7.8880e+000	-0.3485	-24.195319
1973	7.8920e+000	-0.3377	-24.028470
1974	7.8960e+000	-0.3241	-23.983977
1975	7.9000e+000	-0.3118	-23.450990
1976	7.9040e+000	-0.3008	-23.312877
1977	7.9080e+000	-0.2877	-23.077435
1978	7.9120e+000	-0.2768	-22.730761
1979	7.9160e+000	-0.2655	-22.413750
1980	7.9200e+000	-0.2532	-22.004044
1981	7.9240e+000	-0.2428	-21.945648
1982	7.9280e+000	-0.2316	-21.522965
1983	7.9320e+000	-0.2162	-21.294939
1984	7.9360e+000	-0.2065	-20.907480
1985	7.9400e+000	-0.1933	-20.596957
1986	7.9440e+000	-0.1810	-20.283653
1987	7.9480e+000	-0.1704	-19.936053
1988	7.9520e+000	-0.1568	-19.712661
1989	7.9560e+000	-0.1448	-19.236217
1990	7.9600e+000	-0.1349	-18.860808
1991	7.9640e+000	-0.1221	-18.536381
1992	7.9680e+000	-0.1100	-18.301866
1993	7.9720e+000	-0.0966	-17.795760
1994	7.9760e+000	-0.0841	-17.352685
1995	7.9800e+000	-0.0737	-17.015281
1996	7.9840e+000	-0.0620	-16.613918
1997	7.9880e+000	-0.0481	-16.183820
1998	7.9920e+000	-0.0351	-15.832512
1999	7.9960e+000	-0.0241	-15.521062
2000	8.0000e+000	-0.0115	-15.074279
2001	8.0040e+000	0.0006	-14.743363

Center data before PMax,±Pr and ±Vc Calc.

PMax (µC/cm2):	3.65e+001
Pr (µC/cm2):	2.21e+001
-Pr (µC/cm2):	-1.47e+001
Vc:	3.70e-001
-Vc:	-3.31e-001
C (Max-Eff) (nF):	5.97e-002
Vert. (±Pr) Shift (µC/cm2):	3.70e+000
Horiz. Shift (±Vc):	1.95e-002
Offset (µC/cm2):	9.96e+000

A (Loop Area - µC/cm2·Volts):	5.30e+001



Hysteresis Version: 5.12.0 - Radiant Technologies, Inc., 1999 - 11/30/16

