»»»»»»»»»»»»»»»»»»»»»»»»»»»»»»»»»»»» Hysteresis ««««««««««««««««««««««««««««««««««««
»»»  Executed Version:	5.12.0
»»»  Vision Version:	5.12.5 (R)
»»»  Vision Compiled:	2/24/17
»»»  Driver Version:	5.12.4
»»»  Windows Version:	Windows 7
»»»  Processor Information:	x86 (AMD or Intel) - 2 Processors
»»»  Tester Name:	PMF0910-256
»»»  Tester S/N:	PMF0910-256
»»»  Internal Amp Type:	 RTI 100V      
»»»  Internal Amp S/N:	 iAB1-0000     
»»»  Execution Count:	1
»»»»»»»»»»»»»»»»»»»»»»»»»»»»»»»»»»»»»»»»»»««««««««««««««««««««««««««««««««««««««««««

Stored:	6/19/2017 - 11:21:43
Configured:	06/19/17 10:57:34 AM
Executed:	06/19/17 11:21:14 AM

»»»»»»»»»»»»»»»»»»»»»»»»»»»»»»»»»»» Sample Info ««««««««««««««««««««««««««««««««««««
Sample Name:	
Lot Name:	
Wafer Name:	
Die Row/Column:	0/0
Capacitor Number:	0
Sample Area (cm2):	1.96e-005
Sample Thickness (µm):	1.00e-001

Mux Loop Adjustment:	Disabled

Amplifier:	Internal

»»»»»»»»»»»»»»»»»»»»»»»»»»»»»»»»»»» Tester Info «««««««««««««««««««««««««««««««««««
Tester Name:	PMF0910-256
Tester Serial Number:	PMF0910-256
Return Signal Amp. Level:	2.0 [Index: 1]

»»»»»»»»»»»»»»»»»»»»»»»»»»»»»»»» Hysteresis Info ««««««««««««««««««««««««««««««««««
Task Name:	Hyst-2
Volts:	3.00
Field:	300.00 (kV/cm)
Hysteresis Period (ms):	2.00e-001
Preset:	Enabled
Preset Delay (ms):	1.00e+003
Profile:	Double Bipolar

»»»»»»»»»»»»»»»»»»»»»»»»»»»»»»»»»»»»»» Data «««««««««««««««««««««««««««««««««««««««
Points:	401

Valid Data

Point	Time (ms)	Drive Voltage	Measured Polarization
   1	5.0000e-004	0.0018	-12.486570
   2	1.0000e-003	0.0607	-12.235228
   3	1.5000e-003	0.1205	-11.781952
   4	2.0000e-003	0.1833	-10.903327
   5	2.5000e-003	0.2390	-9.616539
   6	3.0000e-003	0.2992	-7.865734
   7	3.5000e-003	0.3620	-5.713210
   8	4.0000e-003	0.4220	-3.285713
   9	4.5000e-003	0.4823	-0.538131
  10	5.0000e-003	0.5400	2.237379
  11	5.5000e-003	0.6005	5.197636
  12	6.0000e-003	0.6590	8.069815
  13	6.5000e-003	0.7207	10.856066
  14	7.0000e-003	0.7830	13.423197
  15	7.5000e-003	0.8405	15.878621
  16	8.0000e-003	0.9002	18.164334
  17	8.5000e-003	0.9613	20.402787
  18	9.0000e-003	1.0206	22.364118
  19	9.5000e-003	1.0802	24.258855
  20	1.0000e-002	1.1423	26.099885
  21	1.0500e-002	1.1988	27.842098
  22	1.1000e-002	1.2602	29.537049
  23	1.1500e-002	1.3194	31.146071
  24	1.2000e-002	1.3813	32.634792
  25	1.2500e-002	1.4407	33.872171
  26	1.3000e-002	1.5004	34.752944
  27	1.3500e-002	1.5620	35.279260
  28	1.4000e-002	1.6203	35.625125
  29	1.4500e-002	1.6810	35.865726
  30	1.5000e-002	1.7409	36.095586
  31	1.5500e-002	1.8027	36.314705
  32	1.6000e-002	1.8607	36.490860
  33	1.6500e-002	1.9225	36.624050
  34	1.7000e-002	1.9830	36.778722
  35	1.7500e-002	2.0451	36.894727
  36	1.8000e-002	2.1021	37.077326
  37	1.8500e-002	2.1626	37.176145
  38	1.9000e-002	2.2212	37.264222
  39	1.9500e-002	2.2824	37.386671
  40	2.0000e-002	2.3435	37.539195
  41	2.0500e-002	2.4030	37.685274
  42	2.1000e-002	2.4637	37.792686
  43	2.1500e-002	2.5231	37.966692
  44	2.2000e-002	2.5783	38.037584
  45	2.2500e-002	2.6435	38.164329
  46	2.3000e-002	2.7032	38.260999
  47	2.3500e-002	2.7640	38.381300
  48	2.4000e-002	2.8241	38.426413
  49	2.4500e-002	2.8810	38.551010
  50	2.5000e-002	2.9421	38.647680
  51	2.5500e-002	2.9998	38.746499
  52	2.6000e-002	2.9419	38.675607
  53	2.6500e-002	2.8809	38.574640
  54	2.7000e-002	2.8207	38.566047
  55	2.7500e-002	2.7585	38.531676
  56	2.8000e-002	2.7006	38.428561
  57	2.8500e-002	2.6411	38.398486
  58	2.9000e-002	2.5849	38.314705
  59	2.9500e-002	2.5226	38.267444
  60	3.0000e-002	2.4596	38.127809
  61	3.0500e-002	2.3992	38.018250
  62	3.1000e-002	2.3417	37.958099
  63	3.1500e-002	2.2802	37.870022
  64	3.2000e-002	2.2226	37.824909
  65	3.2500e-002	2.1580	37.754018
  66	3.3000e-002	2.1017	37.640162
  67	3.3500e-002	2.0412	37.543491
  68	3.4000e-002	1.9803	37.401708
  69	3.4500e-002	1.9187	37.305038
  70	3.5000e-002	1.8606	37.244888
  71	3.5500e-002	1.7986	37.227702
  72	3.6000e-002	1.7419	37.062288
  73	3.6500e-002	1.6803	36.961322
  74	3.7000e-002	1.6202	36.832428
  75	3.7500e-002	1.5598	36.793760
  76	3.8000e-002	1.4998	36.690645
  77	3.8500e-002	1.4389	36.551010
  78	3.9000e-002	1.3796	36.422117
  79	3.9500e-002	1.3204	36.282482
  80	4.0000e-002	1.2592	36.166478
  81	4.0500e-002	1.2000	36.026843
  82	4.1000e-002	1.1406	35.895801
  83	4.1500e-002	1.0795	35.766908
  84	4.2000e-002	1.0200	35.560678
  85	4.2500e-002	0.9609	35.496231
  86	4.3000e-002	0.9013	35.326521
  87	4.3500e-002	0.8413	35.105254
  88	4.4000e-002	0.7803	34.974212
  89	4.4500e-002	0.7202	34.755093
  90	4.5000e-002	0.6592	34.540270
  91	4.5500e-002	0.5989	34.385597
  92	4.6000e-002	0.5405	34.121366
  93	4.6500e-002	0.4784	33.754019
  94	4.7000e-002	0.4188	33.354448
  95	4.7500e-002	0.3573	32.888283
  96	4.8000e-002	0.3003	32.237370
  97	4.8500e-002	0.2389	31.292150
  98	4.9000e-002	0.1814	30.059068
  99	4.9500e-002	0.1183	28.525234
 100	5.0000e-002	0.0595	26.583237
 101	5.0500e-002	0.0004	24.196556
 102	5.1000e-002	-0.0559	21.502679
 103	5.1500e-002	-0.1166	18.570349
 104	5.2000e-002	-0.1756	15.268524
 105	5.2500e-002	-0.2364	11.738987
 106	5.3000e-002	-0.2966	8.003220
 107	5.3500e-002	-0.3547	4.149301
 108	5.4000e-002	-0.4153	0.200859
 109	5.4500e-002	-0.4777	-3.612244
 110	5.5000e-002	-0.5373	-7.195487
 111	5.5500e-002	-0.5979	-10.398493
 112	5.6000e-002	-0.6568	-13.197633
 113	5.6500e-002	-0.7162	-15.749727
 114	5.7000e-002	-0.7796	-18.005366
 115	5.7500e-002	-0.8392	-20.048330
 116	5.8000e-002	-0.8981	-21.902250
 117	5.8500e-002	-0.9582	-23.580015
 118	5.9000e-002	-1.0195	-25.158962
 119	5.9500e-002	-1.0805	-26.576792
 120	6.0000e-002	-1.1402	-27.850691
 121	6.0500e-002	-1.2012	-28.984954
 122	6.1000e-002	-1.2576	-29.990325
 123	6.1500e-002	-1.3194	-30.823837
 124	6.2000e-002	-1.3792	-31.601495
 125	6.2500e-002	-1.4379	-32.254556
 126	6.3000e-002	-1.5002	-32.841022
 127	6.3500e-002	-1.5589	-33.302891
 128	6.4000e-002	-1.6191	-33.756167
 129	6.4500e-002	-1.6799	-34.160034
 130	6.5000e-002	-1.7402	-34.561752
 131	6.5500e-002	-1.8010	-34.841022
 132	6.6000e-002	-1.8594	-35.150366
 133	6.6500e-002	-1.9202	-35.393116
 134	6.7000e-002	-1.9804	-35.655200
 135	6.7500e-002	-2.0413	-35.887208
 136	6.8000e-002	-2.1009	-36.142847
 137	6.8500e-002	-2.1616	-36.381300
 138	6.9000e-002	-2.2215	-36.533825
 139	6.9500e-002	-2.2796	-36.725017
 140	7.0000e-002	-2.3418	-36.926950
 141	7.0500e-002	-2.4018	-37.143921
 142	7.1000e-002	-2.4617	-37.315779
 143	7.1500e-002	-2.5210	-37.442525
 144	7.2000e-002	-2.5822	-37.625124
 145	7.2500e-002	-2.6406	-37.842095
 146	7.3000e-002	-2.6992	-37.981730
 147	7.3500e-002	-2.7589	-38.151440
 148	7.4000e-002	-2.8197	-38.314705
 149	7.4500e-002	-2.8816	-38.450043
 150	7.5000e-002	-2.9401	-38.566047
 151	7.5500e-002	-3.0038	-38.748647
 152	7.6000e-002	-2.9376	-38.701386
 153	7.6500e-002	-2.8791	-38.609012
 154	7.7000e-002	-2.8166	-38.523083
 155	7.7500e-002	-2.7592	-38.437154
 156	7.8000e-002	-2.6960	-38.310408
 157	7.8500e-002	-2.6385	-38.187959
 158	7.9000e-002	-2.5798	-38.177218
 159	7.9500e-002	-2.5204	-38.033287
 160	8.0000e-002	-2.4574	-37.915135
 161	8.0500e-002	-2.3979	-37.829206
 162	8.1000e-002	-2.3370	-37.702460
 163	8.1500e-002	-2.2779	-37.588604
 164	8.2000e-002	-2.2182	-37.459710
 165	8.2500e-002	-2.1575	-37.294297
 166	8.3000e-002	-2.0985	-37.169700
 167	8.3500e-002	-2.0408	-37.057992
 168	8.4000e-002	-1.9768	-36.939840
 169	8.4500e-002	-1.9167	-36.783019
 170	8.5000e-002	-1.8574	-36.636939
 171	8.5500e-002	-1.8001	-36.488712
 172	8.6000e-002	-1.7382	-36.271741
 173	8.6500e-002	-1.6759	-36.160033
 174	8.7000e-002	-1.6171	-35.992471
 175	8.7500e-002	-1.5577	-35.816317
 176	8.8000e-002	-1.4975	-35.610087
 177	8.8500e-002	-1.4381	-35.425339
 178	8.9000e-002	-1.3762	-35.229851
 179	8.9500e-002	-1.3160	-34.999990
 180	9.0000e-002	-1.2581	-34.770130
 181	9.0500e-002	-1.1971	-34.591827
 182	9.1000e-002	-1.1349	-34.254556
 183	9.1500e-002	-1.0776	-34.067660
 184	9.2000e-002	-1.0178	-33.850689
 185	9.2500e-002	-0.9577	-33.491935
 186	9.3000e-002	-0.8956	-33.156812
 187	9.3500e-002	-0.8394	-32.815243
 188	9.4000e-002	-0.7780	-32.398487
 189	9.4500e-002	-0.7153	-32.039733
 190	9.5000e-002	-0.6588	-31.622977
 191	9.5500e-002	-0.5994	-31.070883
 192	9.6000e-002	-0.5364	-30.535974
 193	9.6500e-002	-0.4785	-29.824911
 194	9.7000e-002	-0.4183	-29.146072
 195	9.7500e-002	-0.3564	-28.291077
 196	9.8000e-002	-0.2968	-27.348005
 197	9.8500e-002	-0.2390	-26.273892
 198	9.9000e-002	-0.1786	-24.967770
 199	9.9500e-002	-0.1189	-23.672389
 200	1.0000e-001	-0.0565	-22.194409
 201	1.0050e-001	-0.0017	-20.413528
 202	1.0100e-001	0.0603	-18.523088
 203	1.0150e-001	0.1212	-16.499458
 204	1.0200e-001	0.1804	-14.282488
 205	1.0250e-001	0.2415	-11.861436
 206	1.0300e-001	0.3002	-9.421050
 207	1.0350e-001	0.3610	-6.636948
 208	1.0400e-001	0.4204	-3.771213
 209	1.0450e-001	0.4790	-0.808808
 210	1.0500e-001	0.5396	2.297529
 211	1.0550e-001	0.5993	5.356604
 212	1.0600e-001	0.6609	8.327602
 213	1.0650e-001	0.7186	11.182596
 214	1.0700e-001	0.7804	13.865732
 215	1.0750e-001	0.8409	16.336193
 216	1.0800e-001	0.9008	18.639093
 217	1.0850e-001	0.9592	20.819543
 218	1.0900e-001	1.0210	22.800209
 219	1.0950e-001	1.0807	24.752947
 220	1.1000e-001	1.1411	26.581088
 221	1.1050e-001	1.2013	28.314708
 222	1.1100e-001	1.2596	29.962398
 223	1.1150e-001	1.3193	31.631570
 224	1.1200e-001	1.3825	33.109551
 225	1.1250e-001	1.4413	34.269593
 226	1.1300e-001	1.5028	34.935544
 227	1.1350e-001	1.5601	35.348003
 228	1.1400e-001	1.6219	35.674534
 229	1.1450e-001	1.6794	35.958100
 230	1.1500e-001	1.7426	36.194405
 231	1.1550e-001	1.8011	36.321150
 232	1.1600e-001	1.8607	36.508046
 233	1.1650e-001	1.9212	36.664866
 234	1.1700e-001	1.9845	36.808798
 235	1.1750e-001	2.0419	37.004286
 236	1.1800e-001	2.1015	37.090215
 237	1.1850e-001	2.1618	37.251332
 238	1.1900e-001	2.2234	37.367337
 239	1.1950e-001	2.2810	37.464007
 240	1.2000e-001	2.3459	37.655199
 241	1.2050e-001	2.4009	37.790537
 242	1.2100e-001	2.4636	37.882911
 243	1.2150e-001	2.5225	38.031139
 244	1.2200e-001	2.5813	38.091289
 245	1.2250e-001	2.6418	38.196552
 246	1.2300e-001	2.7036	38.329742
 247	1.2350e-001	2.7641	38.443599
 248	1.2400e-001	2.8242	38.525231
 249	1.2450e-001	2.8827	38.660569
 250	1.2500e-001	2.9429	38.733609
 251	1.2550e-001	3.0004	38.894726
 252	1.2600e-001	2.9417	38.819538
 253	1.2650e-001	2.8819	38.727164
 254	1.2700e-001	2.8186	38.628346
 255	1.2750e-001	2.7589	38.609012
 256	1.2800e-001	2.7006	38.514490
 257	1.2850e-001	2.6392	38.447895
 258	1.2900e-001	2.5799	38.372707
 259	1.2950e-001	2.5200	38.271740
 260	1.3000e-001	2.4593	38.157884
 261	1.3050e-001	2.3994	38.080548
 262	1.3100e-001	2.3392	38.007508
 263	1.3150e-001	2.2792	37.932320
 264	1.3200e-001	2.2199	37.848540
 265	1.3250e-001	2.1613	37.693867
 266	1.3300e-001	2.0992	37.650903
 267	1.3350e-001	2.0425	37.556381
 268	1.3400e-001	1.9820	37.459710
 269	1.3450e-001	1.9207	37.356596
 270	1.3500e-001	1.8612	37.266370
 271	1.3550e-001	1.8017	37.212664
 272	1.3600e-001	1.7416	37.081623
 273	1.3650e-001	1.6793	36.961322
 274	1.3700e-001	1.6199	36.849614
 275	1.3750e-001	1.5592	36.662718
 276	1.3800e-001	1.4990	36.651977
 277	1.3850e-001	1.4417	36.591827
 278	1.3900e-001	1.3787	36.409227
 279	1.3950e-001	1.3185	36.295371
 280	1.4000e-001	1.2620	36.190108
 281	1.4050e-001	1.1978	36.031139
 282	1.4100e-001	1.1404	35.874319
 283	1.4150e-001	1.0786	35.831354
 284	1.4200e-001	1.0215	35.665941
 285	1.4250e-001	0.9606	35.554233
 286	1.4300e-001	0.9000	35.354448
 287	1.4350e-001	0.8395	35.216961
 288	1.4400e-001	0.7790	35.023621
 289	1.4450e-001	0.7211	34.849615
 290	1.4500e-001	0.6609	34.658422
 291	1.4550e-001	0.5997	34.381301
 292	1.4600e-001	0.5392	34.112773
 293	1.4650e-001	0.4821	33.816317
 294	1.4700e-001	0.4211	33.418895
 295	1.4750e-001	0.3584	32.849615
 296	1.4800e-001	0.2980	32.256704
 297	1.4850e-001	0.2395	31.354449
 298	1.4900e-001	0.1807	30.078402
 299	1.4950e-001	0.1205	28.557457
 300	1.5000e-001	0.0619	26.615460
 301	1.5050e-001	0.0020	24.319005
 302	1.5100e-001	-0.0558	21.612239
 303	1.5150e-001	-0.1186	18.654130
 304	1.5200e-001	-0.1753	15.350157
 305	1.5250e-001	-0.2373	11.854991
 306	1.5300e-001	-0.2942	8.140707
 307	1.5350e-001	-0.3549	4.271750
 308	1.5400e-001	-0.4158	0.267454
 309	1.5450e-001	-0.4761	-3.524167
 310	1.5500e-001	-0.5373	-7.126743
 311	1.5550e-001	-0.5986	-10.336195
 312	1.5600e-001	-0.6576	-13.229857
 313	1.5650e-001	-0.7180	-15.760468
 314	1.5700e-001	-0.7791	-18.074109
 315	1.5750e-001	-0.8395	-20.114925
 316	1.5800e-001	-0.8983	-21.960252
 317	1.5850e-001	-0.9594	-23.674537
 318	1.5900e-001	-1.0191	-25.236298
 319	1.5950e-001	-1.0799	-26.697093
 320	1.6000e-001	-1.1388	-27.992474
 321	1.6050e-001	-1.1974	-29.064439
 322	1.6100e-001	-1.2569	-30.086995
 323	1.6150e-001	-1.3169	-30.969916
 324	1.6200e-001	-1.3800	-31.622977
 325	1.6250e-001	-1.4372	-32.334041
 326	1.6300e-001	-1.5002	-32.909765
 327	1.6350e-001	-1.5599	-33.348004
 328	1.6400e-001	-1.6194	-33.831355
 329	1.6450e-001	-1.6792	-34.265297
 330	1.6500e-001	-1.7386	-34.591827
 331	1.6550e-001	-1.7991	-34.918358
 332	1.6600e-001	-1.8615	-35.249185
 333	1.6650e-001	-1.9200	-35.511268
 334	1.6700e-001	-1.9786	-35.756166
 335	1.6750e-001	-2.0419	-36.039732
 336	1.6800e-001	-2.0979	-36.222332
 337	1.6850e-001	-2.1610	-36.501601
 338	1.6900e-001	-2.2182	-36.712127
 339	1.6950e-001	-2.2819	-36.853910
 340	1.7000e-001	-2.3386	-37.075178
 341	1.7050e-001	-2.4006	-37.277111
 342	1.7100e-001	-2.4595	-37.425339
 343	1.7150e-001	-2.5207	-37.612235
 344	1.7200e-001	-2.5780	-37.751869
 345	1.7250e-001	-2.6403	-37.943062
 346	1.7300e-001	-2.6994	-38.117068
 347	1.7350e-001	-2.7607	-38.288926
 348	1.7400e-001	-2.8194	-38.411375
 349	1.7450e-001	-2.8809	-38.606864
 350	1.7500e-001	-2.9413	-38.735757
 351	1.7550e-001	-3.0021	-38.894726
 352	1.7600e-001	-2.9371	-38.737906
 353	1.7650e-001	-2.8784	-38.733609
 354	1.7700e-001	-2.8209	-38.617605
 355	1.7750e-001	-2.7586	-38.520935
 356	1.7800e-001	-2.6984	-38.432857
 357	1.7850e-001	-2.6393	-38.340484
 358	1.7900e-001	-2.5773	-38.198701
 359	1.7950e-001	-2.5168	-38.127809
 360	1.8000e-001	-2.4573	-37.992471
 361	1.8050e-001	-2.3990	-37.919431
 362	1.8100e-001	-2.3388	-37.818464
 363	1.8150e-001	-2.2804	-37.689571
 364	1.8200e-001	-2.2187	-37.537047
 365	1.8250e-001	-2.1578	-37.401708
 366	1.8300e-001	-2.0971	-37.236295
 367	1.8350e-001	-2.0379	-37.124587
 368	1.8400e-001	-1.9774	-37.068733
 369	1.8450e-001	-1.9168	-36.843169
 370	1.8500e-001	-1.8587	-36.716424
 371	1.8550e-001	-1.7973	-36.553159
 372	1.8600e-001	-1.7361	-36.374856
 373	1.8650e-001	-1.6812	-36.233073
 374	1.8700e-001	-1.6175	-36.037584
 375	1.8750e-001	-1.5575	-35.850688
 376	1.8800e-001	-1.4978	-35.657348
 377	1.8850e-001	-1.4373	-35.515565
 378	1.8900e-001	-1.3765	-35.253481
 379	1.8950e-001	-1.3171	-35.045103
 380	1.9000e-001	-1.2575	-34.853911
 381	1.9050e-001	-1.1981	-34.604717
 382	1.9100e-001	-1.1367	-34.381301
 383	1.9150e-001	-1.0767	-34.114921
 384	1.9200e-001	-1.0191	-33.908691
 385	1.9250e-001	-0.9573	-33.491935
 386	1.9300e-001	-0.8979	-33.163256
 387	1.9350e-001	-0.8372	-32.795909
 388	1.9400e-001	-0.7785	-32.439304
 389	1.9450e-001	-0.7172	-32.061216
 390	1.9500e-001	-0.6592	-31.571420
 391	1.9550e-001	-0.5978	-31.027918
 392	1.9600e-001	-0.5381	-30.447897
 393	1.9650e-001	-0.4776	-29.788391
 394	1.9700e-001	-0.4189	-29.025771
 395	1.9750e-001	-0.3571	-28.185814
 396	1.9800e-001	-0.2968	-27.232001
 397	1.9850e-001	-0.2402	-26.080551
 398	1.9900e-001	-0.1781	-24.862507
 399	1.9950e-001	-0.1179	-23.476900
 400	2.0000e-001	-0.0600	-21.968845
 401	2.0050e-001	-0.0011	-20.228781

Center data before PMax,±Pr and ±Vc Calc.

PMax (µC/cm2):	3.89e+001
Pr (µC/cm2):	2.42e+001
-Pr (µC/cm2):	-2.02e+001
Vc:	4.95e-001
-Vc:	-4.20e-001
C (Max-Eff) (nF):	2.55e-001
Vert. (±Pr) Shift (µC/cm2):	2.00e+000
Horiz. Shift (±Vc):	3.74e-002
Offset (µC/cm2):	1.25e+001

A (Loop Area - µC/cm2·Volts):	6.66e+001



Hysteresis Version: 5.12.0 - Radiant Technologies, Inc., 1999 - 11/30/16

