»»»»»»»»»»»»»»»»»»»»»»»»»»»»»»»»»»»» Hysteresis ««««««««««««««««««««««««««««««««««««
»»»  Executed Version:	5.16.2
»»»  Vision Version:	5.16.10 (R)
»»»  Vision Compiled:	4/26/18
»»»  Driver Version:	5.16.6
»»»  Windows Version:	Windows 8
»»»  Processor Information:	x86 (AMD or Intel) - 8 Processors
»»»  Tester Name:	PPM21016-863
»»»  Tester S/N:	PPM21016-863
»»»  Internal Amp Type:	 RTI ML200V    
»»»  Internal Amp S/N:	 iAB2-0000     
»»»  Execution Count:	1
»»»»»»»»»»»»»»»»»»»»»»»»»»»»»»»»»»»»»»»»»»««««««««««««««««««««««««««««««««««««««««««

Stored:	5/15/2018 - 20:27:43
Configured:	05/15/18 08:22:15 PM
Executed:	05/15/18 08:27:18 PM

»»»»»»»»»»»»»»»»»»»»»»»»»»»»»»»»»»» Sample Info ««««««««««««««««««««««««««««««««««««
Sample Name:	Internal Reference Cap.
Lot Name:	N/A
Wafer Name:	N/A
Die Row/Column:	0/0
Capacitor Number:	0
Sample Area (cm2):	7.85e-005
Sample Thickness (µm):	1.00e-001

Mux Loop Adjustment:	Disabled

Amplifier:	Internal

»»»»»»»»»»»»»»»»»»»»»»»»»»»»»»»»»»» Tester Info «««««««««««««««««««««««««««««««««««
Tester Name:	PPM21016-863
Tester Serial Number:	PPM21016-863
Return Signal Amp. Level:	1.79 [Index: 2]

»»»»»»»»»»»»»»»»»»»»»»»»»»»»»»»» Hysteresis Info ««««««««««««««««««««««««««««««««««
Task Name:	Hyst-1
Field (kV/cm):	0.03
Field:	300.00 (kV/cm)
Hysteresis Period (ms):	2.00e+000
Preset:	Enabled
Preset Delay (ms):	1.00e+003
Profile:	Double Bipolar

»»»»»»»»»»»»»»»»»»»»»»»»»»»»»»»»»»»»»» Data «««««««««««««««««««««««««««««««««««««««
Points:	2001

Valid Data

Point	Time (ms)	Field (kV/cm)	Measured Polarization
   1	1.0000e-003	0.061035	-21.717372
   2	2.0000e-003	1.228333	-21.710880
   3	3.0000e-003	2.365112	-21.581581
   4	4.0000e-003	3.578186	-21.473381
   5	5.0000e-003	4.905701	-21.417117
   6	6.0000e-003	5.897522	-21.333262
   7	7.0000e-003	7.125854	-21.210996
   8	8.0000e-003	8.346558	-21.110370
   9	9.0000e-003	9.437561	-20.969169
  10	1.0000e-002	10.887146	-20.828509
  11	1.1000e-002	11.741638	-20.634290
  12	1.2000e-002	13.084412	-20.435202
  13	1.3000e-002	13.427734	-20.250180
  14	1.4000e-002	15.632629	-19.901234
  15	1.5000e-002	16.830444	-19.628570
  16	1.6000e-002	18.013000	-19.309380
  17	1.7000e-002	19.035339	-18.902007
  18	1.8000e-002	20.141602	-18.610949
  19	1.9000e-002	21.392822	-18.175444
  20	2.0000e-002	22.819519	-17.779973
  21	2.1000e-002	23.956299	-17.307138
  22	2.2000e-002	25.009155	-16.812123
  23	2.3000e-002	26.344299	-16.308452
  24	2.4000e-002	27.427673	-15.731205
  25	2.5000e-002	28.648376	-15.177761
  26	2.6000e-002	29.937744	-14.535053
  27	2.7000e-002	31.127930	-13.879361
  28	2.8000e-002	32.318115	-13.233407
  29	2.9000e-002	33.386230	-12.425693
  30	3.0000e-002	34.774780	-11.714278
  31	3.1000e-002	35.758972	-10.948222
  32	3.2000e-002	37.078857	-10.121032
  33	3.3000e-002	38.169861	-9.263006
  34	3.4000e-002	39.649963	-8.377389
  35	3.5000e-002	40.847778	-7.489066
  36	3.6000e-002	41.839600	-6.579645
  37	3.7000e-002	42.770386	-5.626943
  38	3.8000e-002	44.395447	-4.685603
  39	3.9000e-002	45.280457	-3.672310
  40	4.0000e-002	46.501160	-2.669836
  41	4.1000e-002	47.973633	-1.692790
  42	4.2000e-002	49.057007	-0.668676
  43	4.3000e-002	50.125122	0.346240
  44	4.4000e-002	51.452637	1.381174
  45	4.5000e-002	52.452087	2.378778
  46	4.6000e-002	54.016113	3.383956
  47	4.7000e-002	55.030823	4.388053
  48	4.8000e-002	55.999756	5.403510
  49	4.9000e-002	56.587219	6.325916
  50	5.0000e-002	58.601379	7.307831
  51	5.1000e-002	60.012817	8.199399
  52	5.2000e-002	61.126709	9.110444
  53	5.3000e-002	62.309265	9.980913
  54	5.4000e-002	63.331604	10.853547
  55	5.5000e-002	64.567566	11.641784
  56	5.6000e-002	65.864563	12.432726
  57	5.7000e-002	66.818237	13.190127
  58	5.8000e-002	68.428040	13.944822
  59	5.9000e-002	69.625854	14.663270
  60	6.0000e-002	70.564270	15.331406
  61	6.1000e-002	71.624756	15.989262
  62	6.2000e-002	72.998047	16.630347
  63	6.3000e-002	74.348450	17.247087
  64	6.4000e-002	75.500488	17.836778
  65	6.5000e-002	76.042175	18.396172
  66	6.6000e-002	78.201294	18.997223
  67	6.7000e-002	79.154968	19.513878
  68	6.8000e-002	80.375671	20.081388
  69	6.9000e-002	81.581116	20.581272
  70	7.0000e-002	82.771301	21.068172
  71	7.1000e-002	83.694458	21.574007
  72	7.2000e-002	85.067749	22.028988
  73	7.3000e-002	86.174011	22.514807
  74	7.4000e-002	87.524414	22.953558
  75	7.5000e-002	88.569641	23.370128
  76	7.6000e-002	89.782715	23.840257
  77	7.7000e-002	91.117859	24.266024
  78	7.8000e-002	92.216492	24.686923
  79	7.9000e-002	93.452454	25.099165
  80	8.0000e-002	94.764709	25.498423
  81	8.1000e-002	95.939636	25.935551
  82	8.2000e-002	96.931458	26.285578
  83	8.3000e-002	98.487854	26.606391
  84	8.4000e-002	99.578857	27.042979
  85	8.5000e-002	100.601196	27.344316
  86	8.6000e-002	102.058411	27.715442
  87	8.7000e-002	103.157043	28.027058
  88	8.8000e-002	104.454041	28.343002
  89	8.9000e-002	105.476379	28.650290
  90	9.0000e-002	106.719971	28.941889
  91	9.1000e-002	107.963562	29.249177
  92	9.2000e-002	109.603882	29.522924
  93	9.3000e-002	110.359192	29.767456
  94	9.4000e-002	111.442566	29.937871
  95	9.5000e-002	112.655640	30.243536
  96	9.6000e-002	114.006042	30.487527
  97	9.7000e-002	115.028381	30.692025
  98	9.8000e-002	116.424561	30.899228
  99	9.9000e-002	117.576599	31.095070
 100	1.0000e-001	118.644714	31.260616
 101	1.0100e-001	120.193481	31.438605
 102	1.0200e-001	121.231079	31.594413
 103	1.0300e-001	122.650146	31.742648
 104	1.0400e-001	123.497009	31.896833
 105	1.0500e-001	124.740601	31.998000
 106	1.0600e-001	125.938416	32.181940
 107	1.0700e-001	127.159119	32.326928
 108	1.0800e-001	128.356934	32.456768
 109	1.0900e-001	129.722595	32.605543
 110	1.1000e-001	130.638123	32.689398
 111	1.1100e-001	131.851196	32.836009
 112	1.1200e-001	132.942200	32.944209
 113	1.1300e-001	134.353638	33.082705
 114	1.1400e-001	135.566711	33.173052
 115	1.1500e-001	136.764526	33.277465
 116	1.1600e-001	137.748718	33.402977
 117	1.1700e-001	139.350891	33.513882
 118	1.1800e-001	140.327454	33.621541
 119	1.1900e-001	141.204834	33.730823
 120	1.2000e-001	142.845154	33.832531
 121	1.2100e-001	144.485474	33.972650
 122	1.2200e-001	145.217896	34.034865
 123	1.2300e-001	146.438599	34.127377
 124	1.2400e-001	147.491455	34.243692
 125	1.2500e-001	148.773193	34.348105
 126	1.2600e-001	149.833679	34.416271
 127	1.2700e-001	151.283264	34.519061
 128	1.2800e-001	152.351379	34.589932
 129	1.2900e-001	153.785706	34.728969
 130	1.3000e-001	154.685974	34.787397
 131	1.3100e-001	156.112671	34.886400
 132	1.3200e-001	157.096863	34.965386
 133	1.3300e-001	158.508301	35.030847
 134	1.3400e-001	159.698486	35.134178
 135	1.3500e-001	160.736084	35.227230
 136	1.3600e-001	161.972046	35.320282
 137	1.3700e-001	163.169861	35.410629
 138	1.3800e-001	164.375305	35.473385
 139	1.3900e-001	165.443420	35.562650
 140	1.4000e-001	166.877747	35.665981
 141	1.4100e-001	167.877197	35.739557
 142	1.4200e-001	169.158936	35.810428
 143	1.4300e-001	170.433044	35.894283
 144	1.4400e-001	172.050476	36.071190
 145	1.4500e-001	172.821045	36.046304
 146	1.4600e-001	173.942566	36.138815
 147	1.4700e-001	175.132751	36.204276
 148	1.4800e-001	176.483154	36.297869
 149	1.4900e-001	177.192688	36.357920
 150	1.5000e-001	179.039001	36.430415
 151	1.5100e-001	180.091858	36.518598
 152	1.5200e-001	181.358337	36.597043
 153	1.5300e-001	182.365417	36.665750
 154	1.5400e-001	183.525085	36.736080
 155	1.5500e-001	184.806824	36.726883
 156	1.5600e-001	185.981750	36.892429
 157	1.5700e-001	187.034607	36.949775
 158	1.5800e-001	188.713074	37.041204
 159	1.5900e-001	189.613342	37.096927
 160	1.6000e-001	191.085815	37.174831
 161	1.6100e-001	191.864014	37.247866
 162	1.6200e-001	193.267822	37.288982
 163	1.6300e-001	194.488525	37.367427
 164	1.6400e-001	195.495605	37.447495
 165	1.6500e-001	196.708679	37.537301
 166	1.6600e-001	198.089600	37.588155
 167	1.6700e-001	198.760986	37.660649
 168	1.6800e-001	200.546265	37.708257
 169	1.6900e-001	201.667786	37.783997
 170	1.7000e-001	202.629089	37.897607
 171	1.7100e-001	203.842163	37.895984
 172	1.7200e-001	205.169678	37.952789
 173	1.7300e-001	206.687927	38.039890
 174	1.7400e-001	207.626343	38.105892
 175	1.7500e-001	208.473206	38.149713
 176	1.7600e-001	210.037231	38.233027
 177	1.7700e-001	210.945129	38.262241
 178	1.7800e-001	212.631226	38.348801
 179	1.7900e-001	213.706970	38.405606
 180	1.8000e-001	214.767456	38.446722
 181	1.8100e-001	215.850830	38.532200
 182	1.8200e-001	217.147827	38.589546
 183	1.8300e-001	218.116760	38.644187
 184	1.8400e-001	219.589233	38.718845
 185	1.8500e-001	220.657349	38.764289
 186	1.8600e-001	222.320557	38.828128
 187	1.8700e-001	223.136902	38.881146
 188	1.8800e-001	224.273682	38.947148
 189	1.8900e-001	226.127625	39.039659
 190	1.9000e-001	226.631165	39.073201
 191	1.9100e-001	228.202820	39.152728
 192	1.9200e-001	229.156494	39.182483
 193	1.9300e-001	230.270386	39.231173
 194	1.9400e-001	231.506348	39.291765
 195	1.9500e-001	232.475281	39.368587
 196	1.9600e-001	233.993530	39.425392
 197	1.9700e-001	235.191345	39.474082
 198	1.9800e-001	236.259460	39.499509
 199	1.9900e-001	237.480164	39.572544
 200	2.0000e-001	239.158630	39.683990
 201	2.0100e-001	240.020752	39.681285
 202	2.0200e-001	241.302490	39.741877
 203	2.0300e-001	242.301941	39.799223
 204	2.0400e-001	243.186951	39.857110
 205	2.0500e-001	244.186401	39.838175
 206	2.0600e-001	246.147156	39.976130
 207	2.0700e-001	246.139526	40.025361
 208	2.0800e-001	248.367310	40.089199
 209	2.0900e-001	249.633789	40.117331
 210	2.1000e-001	250.770569	40.167644
 211	2.1100e-001	252.044678	40.236351
 212	2.1200e-001	253.158569	40.290992
 213	2.1300e-001	254.432678	40.337518
 214	2.1400e-001	255.371094	40.382421
 215	2.1500e-001	256.530762	40.424619
 216	2.1600e-001	258.171082	40.490621
 217	2.1700e-001	259.193420	40.520917
 218	2.1800e-001	260.208130	40.594493
 219	2.1900e-001	261.558533	40.658331
 220	2.2000e-001	261.909485	40.695660
 221	2.2100e-001	264.038086	40.747596
 222	2.2200e-001	265.098572	40.780597
 223	2.2300e-001	266.601563	40.839566
 224	2.2400e-001	267.608643	40.881764
 225	2.2500e-001	269.172668	40.938028
 226	2.2600e-001	269.958496	40.978603
 227	2.2700e-001	271.141052	41.040818
 228	2.2800e-001	272.338867	41.080311
 229	2.2900e-001	273.689270	41.039736
 230	2.3000e-001	274.620056	41.178774
 231	2.3100e-001	276.237488	41.219890
 232	2.3200e-001	277.175903	41.256678
 233	2.3300e-001	278.366089	41.330254
 234	2.3400e-001	279.640198	41.365419
 235	2.3500e-001	280.647278	41.423847
 236	2.3600e-001	282.096863	41.474701
 237	2.3700e-001	283.081055	41.496882
 238	2.3800e-001	284.484863	41.570999
 239	2.3900e-001	285.697937	41.634837
 240	2.4000e-001	286.872864	41.649985
 241	2.4100e-001	287.445068	41.679199
 242	2.4200e-001	289.161682	41.727348
 243	2.4300e-001	290.245056	41.782530
 244	2.4400e-001	291.618347	41.830679
 245	2.4500e-001	292.877197	41.878287
 246	2.4600e-001	294.052124	41.931846
 247	2.4700e-001	295.104980	41.959978
 248	2.4800e-001	296.478271	42.017865
 249	2.4900e-001	297.691345	42.070342
 250	2.5000e-001	298.324585	42.107130
 251	2.5100e-001	300.262451	42.182870
 252	2.5200e-001	298.858643	42.113081
 253	2.5300e-001	297.401428	42.097392
 254	2.5400e-001	296.562195	42.073047
 255	2.5500e-001	294.975281	42.030308
 256	2.5600e-001	294.036865	42.020570
 257	2.5700e-001	292.602539	41.983782
 258	2.5800e-001	291.717529	41.961601
 259	2.5900e-001	290.672302	41.922649
 260	2.6000e-001	289.268494	41.881533
 261	2.6100e-001	287.788391	41.875041
 262	2.6200e-001	286.903381	41.844204
 263	2.6300e-001	285.453796	41.787399
 264	2.6400e-001	284.355164	41.765218
 265	2.6500e-001	283.355713	41.734922
 266	2.6600e-001	282.089233	41.722479
 267	2.6700e-001	280.769348	41.678117
 268	2.6800e-001	279.594421	41.639165
 269	2.6900e-001	278.511047	41.614279
 270	2.7000e-001	277.275085	41.555310
 271	2.7100e-001	275.917053	41.526637
 272	2.7200e-001	274.833679	41.500669
 273	2.7300e-001	273.582458	41.472537
 274	2.7400e-001	272.399902	41.432503
 275	2.7500e-001	271.202087	41.391387
 276	2.7600e-001	269.927979	41.362714
 277	2.7700e-001	268.737793	41.319434
 278	2.7800e-001	267.852783	41.299958
 279	2.7900e-001	266.471863	41.228005
 280	2.8000e-001	265.113831	41.211775
 281	2.8100e-001	264.533997	41.243153
 282	2.8200e-001	262.519836	41.116017
 283	2.8300e-001	261.657715	41.100328
 284	2.8400e-001	260.093689	41.059753
 285	2.8500e-001	259.056091	41.031621
 286	2.8600e-001	258.049011	40.991046
 287	2.8700e-001	256.614685	40.952635
 288	2.8800e-001	255.744934	40.954799
 289	2.8900e-001	254.371643	40.862829
 290	2.9000e-001	253.204346	40.822254
 291	2.9100e-001	252.784729	40.836320
 292	2.9200e-001	250.907898	40.761662
 293	2.9300e-001	249.717712	40.720005
 294	2.9400e-001	248.214722	40.696742
 295	2.9500e-001	247.322083	40.648593
 296	2.9600e-001	246.276855	40.611805
 297	2.9700e-001	244.651794	40.549049
 298	2.9800e-001	243.431091	40.549049
 299	2.9900e-001	242.263794	40.485752
 300	3.0000e-001	241.294861	40.455456
 301	3.0100e-001	240.051270	40.393782
 302	3.0200e-001	238.777161	40.352125
 303	3.0300e-001	237.701416	40.318042
 304	3.0400e-001	236.465454	40.274762
 305	3.0500e-001	235.000610	40.224449
 306	3.0600e-001	233.650208	40.196858
 307	3.0700e-001	232.658386	40.131397
 308	3.0800e-001	231.643677	40.102183
 309	3.0900e-001	230.270386	40.078920
 310	3.1000e-001	229.049683	40.027525
 311	3.1100e-001	227.294922	39.923112
 312	3.1200e-001	226.951599	39.936096
 313	3.1300e-001	225.547791	39.870635
 314	3.1400e-001	224.571228	39.846831
 315	3.1500e-001	222.511292	39.741877
 316	3.1600e-001	222.145081	39.784075
 317	3.1700e-001	220.726013	39.704548
 318	3.1800e-001	219.551086	39.745123
 319	3.1900e-001	218.505859	39.612578
 320	3.2000e-001	217.071533	39.577413
 321	3.2100e-001	215.812683	39.546035
 322	3.2200e-001	214.698792	39.490853
 323	3.2300e-001	213.569641	39.426474
 324	3.2400e-001	211.631775	39.363177
 325	3.2500e-001	210.983276	39.351816
 326	3.2600e-001	209.739685	39.356685
 327	3.2700e-001	208.877563	39.237124
 328	3.2800e-001	207.656860	39.207369
 329	3.2900e-001	206.291199	39.148400
 330	3.3000e-001	205.375671	39.107825
 331	3.3100e-001	204.071045	39.065627
 332	3.3200e-001	202.606201	38.935246
 333	3.3300e-001	201.515198	38.959050
 334	3.3400e-001	200.431824	38.920639
 335	3.3500e-001	199.050903	38.862211
 336	3.3600e-001	198.188782	38.820554
 337	3.3700e-001	196.685791	38.758879
 338	3.3800e-001	195.335388	38.723173
 339	3.3900e-001	194.244385	38.676647
 340	3.4000e-001	193.252563	38.601448
 341	3.4100e-001	192.459106	38.640941
 342	3.4200e-001	190.681458	38.508937
 343	3.4300e-001	189.811707	38.469985
 344	3.4400e-001	188.339233	38.416967
 345	3.4500e-001	187.004089	38.353670
 346	3.4600e-001	185.867310	38.314718
 347	3.4700e-001	184.768677	38.299029
 348	3.4800e-001	183.616638	38.205436
 349	3.4900e-001	182.395935	38.145385
 350	3.5000e-001	179.901123	38.020414
 351	3.5100e-001	180.152893	38.027447
 352	3.5200e-001	178.527832	37.991200
 353	3.5300e-001	177.635193	37.916001
 354	3.5400e-001	176.460266	37.853786
 355	3.5500e-001	175.186157	37.817539
 356	3.5600e-001	173.973083	37.749373
 357	3.5700e-001	172.515869	37.675256
 358	3.5800e-001	171.394348	37.633058
 359	3.5900e-001	170.280457	37.580040
 360	3.6000e-001	169.197083	37.516743
 361	3.6100e-001	168.487549	37.494021
 362	3.6200e-001	166.831970	37.385280
 363	3.6300e-001	165.512085	37.347410
 364	3.6400e-001	164.466858	37.292228
 365	3.6500e-001	163.223267	37.213783
 366	3.6600e-001	162.094116	37.194307
 367	3.6700e-001	160.774231	37.101255
 368	3.6800e-001	159.149170	37.050401
 369	3.6900e-001	158.309937	36.994137
 370	3.7000e-001	157.119751	36.894593
 371	3.7100e-001	155.944824	36.862674
 372	3.7200e-001	155.036926	36.822640
 373	3.7300e-001	153.373718	36.725801
 374	3.7400e-001	152.420044	36.665750
 375	3.7500e-001	151.214600	36.603535
 376	3.7600e-001	149.971008	36.535369
 377	3.7700e-001	148.857117	36.495335
 378	3.7800e-001	147.453308	36.398495
 379	3.7900e-001	146.423340	36.348723
 380	3.8000e-001	145.065308	36.253507
 381	3.8100e-001	144.195557	36.229162
 382	3.8200e-001	143.348694	36.161537
 383	3.8300e-001	141.685486	36.052255
 384	3.8400e-001	140.296936	36.027910
 385	3.8500e-001	138.938904	35.929989
 386	3.8600e-001	138.175964	35.881299
 387	3.8700e-001	136.695862	35.805559
 388	3.8800e-001	135.520935	35.727114
 389	3.8900e-001	134.201050	35.655161
 390	3.9000e-001	133.338928	35.586995
 391	3.9100e-001	132.011414	35.528026
 392	3.9200e-001	130.676270	35.442007
 393	3.9300e-001	129.570007	35.352742
 394	3.9400e-001	128.417969	35.302970
 395	3.9500e-001	127.189636	35.222361
 396	3.9600e-001	126.060486	35.144457
 397	3.9700e-001	124.786377	35.064930
 398	3.9800e-001	123.313904	34.986485
 399	3.9900e-001	122.406006	34.957271
 400	4.0000e-001	121.299744	34.821480
 401	4.0100e-001	119.972229	34.785774
 402	4.0200e-001	118.392944	34.634294
 403	4.0300e-001	117.660522	34.579112
 404	4.0400e-001	116.554260	34.517979
 405	4.0500e-001	114.944458	34.427632
 406	4.0600e-001	113.845825	34.408156
 407	4.0700e-001	112.960815	34.261004
 408	4.0800e-001	111.625671	34.175526
 409	4.0900e-001	110.366821	34.108983
 410	4.1000e-001	109.260559	34.000241
 411	4.1100e-001	107.772827	33.908271
 412	4.1200e-001	106.620789	33.834154
 413	4.1300e-001	105.445862	33.732446
 414	4.1400e-001	104.339600	33.657247
 415	4.1500e-001	103.416443	33.561490
 416	4.1600e-001	101.661682	33.474389
 417	4.1700e-001	100.624084	33.408387
 418	4.1800e-001	99.639893	33.275301
 419	4.1900e-001	98.495483	33.186577
 420	4.2000e-001	97.198486	33.064311
 421	4.2100e-001	96.000671	33.007506
 422	4.2200e-001	94.871521	32.899306
 423	4.2300e-001	93.490601	32.782450
 424	4.2400e-001	92.475891	32.687234
 425	4.2500e-001	91.438293	32.581739
 426	4.2600e-001	89.904785	32.480031
 427	4.2700e-001	88.615417	32.373995
 428	4.2800e-001	87.486267	32.266877
 429	4.2900e-001	86.448669	32.182481
 430	4.3000e-001	85.105896	32.035329
 431	4.3100e-001	84.037781	31.919014
 432	4.3200e-001	83.244324	31.830831
 433	4.3300e-001	81.687927	31.697203
 434	4.3400e-001	80.314636	31.581429
 435	4.3500e-001	79.277039	31.473770
 436	4.3600e-001	77.987671	31.384505
 437	4.3700e-001	76.873779	31.224369
 438	4.3800e-001	75.592041	31.126448
 439	4.3900e-001	74.264526	30.978755
 440	4.4000e-001	73.333740	30.817537
 441	4.4100e-001	72.120667	30.707173
 442	4.4200e-001	70.793152	30.581120
 443	4.4300e-001	69.778442	30.417738
 444	4.4400e-001	68.641663	30.284111
 445	4.4500e-001	67.131042	30.126139
 446	4.4600e-001	66.131592	29.977364
 447	4.4700e-001	65.048218	29.845360
 448	4.4800e-001	63.453674	29.650600
 449	4.4900e-001	62.431335	29.495874
 450	4.5000e-001	61.134338	29.331950
 451	4.5100e-001	59.745789	29.168027
 452	4.5200e-001	58.769226	28.964070
 453	4.5300e-001	57.991028	28.809885
 454	4.5400e-001	56.442261	28.582124
 455	4.5500e-001	55.160522	28.392233
 456	4.5600e-001	53.970337	28.191522
 457	4.5700e-001	52.803040	27.949154
 458	4.5800e-001	51.780701	27.707327
 459	4.5900e-001	50.331116	27.482812
 460	4.6000e-001	49.163818	27.233411
 461	4.6100e-001	47.973633	26.983468
 462	4.6200e-001	46.714783	26.728116
 463	4.6300e-001	45.089722	26.420287
 464	4.6400e-001	44.563293	26.142754
 465	4.6500e-001	43.190002	25.861434
 466	4.6600e-001	42.221069	25.456225
 467	4.6700e-001	40.695190	25.196004
 468	4.6800e-001	39.772034	24.856256
 469	4.6900e-001	38.253784	24.538688
 470	4.7000e-001	37.300110	24.158365
 471	4.7100e-001	35.995483	23.806715
 472	4.7200e-001	34.759521	23.397719
 473	4.7300e-001	33.599854	23.031462
 474	4.7400e-001	32.669067	22.627876
 475	4.7500e-001	31.318665	22.183173
 476	4.7600e-001	30.082703	21.827195
 477	4.7700e-001	28.457642	21.373296
 478	4.7800e-001	26.771545	20.879363
 479	4.7900e-001	26.466370	20.454678
 480	4.8000e-001	25.253296	19.999697
 481	4.8100e-001	23.643494	19.531190
 482	4.8200e-001	22.926331	19.052405
 483	4.8300e-001	21.682739	18.551439
 484	4.8400e-001	20.446777	18.025046
 485	4.8500e-001	19.447327	17.474307
 486	4.8600e-001	18.165588	16.939799
 487	4.8700e-001	17.059326	16.383651
 488	4.8800e-001	15.884399	15.804781
 489	4.8900e-001	14.427185	15.204811
 490	4.9000e-001	13.740540	14.603219
 491	4.9100e-001	12.092590	13.971872
 492	4.9200e-001	10.978699	13.294540
 493	4.9300e-001	9.750366	12.595026
 494	4.9400e-001	9.216309	11.965843
 495	4.9500e-001	7.072449	11.218181
 496	4.9600e-001	6.385803	10.481338
 497	4.9700e-001	4.737854	9.747201
 498	4.9800e-001	3.562927	8.943816
 499	4.9900e-001	2.174377	8.189661
 500	5.0000e-001	1.266479	7.399260
 501	5.0100e-001	0.099182	6.579645
 502	5.0200e-001	-0.755310	5.722159
 503	5.0300e-001	-2.281189	4.832755
 504	5.0400e-001	-3.585815	3.977434
 505	5.0500e-001	-4.470825	3.079914
 506	5.0600e-001	-5.882263	2.172116
 507	5.0700e-001	-6.752014	1.274597
 508	5.0800e-001	-8.316040	0.321895
 509	5.0900e-001	-8.193970	-0.673545
 510	5.1000e-001	-10.711670	-1.598656
 511	5.1100e-001	-13.191223	-2.598424
 512	5.1200e-001	-12.771606	-3.512173
 513	5.1300e-001	-14.129639	-4.477859
 514	5.1400e-001	-15.457153	-5.423527
 515	5.1500e-001	-16.578674	-6.405443
 516	5.1600e-001	-17.654419	-7.339209
 517	5.1700e-001	-18.966675	-8.293534
 518	5.1800e-001	-20.584106	-9.233792
 519	5.1900e-001	-21.202087	-10.124819
 520	5.2000e-001	-22.697449	-11.034241
 521	5.2100e-001	-23.643494	-11.894972
 522	5.2200e-001	-25.177002	-12.776261
 523	5.2300e-001	-26.130676	-13.608320
 524	5.2400e-001	-27.488708	-14.429558
 525	5.2500e-001	-28.511047	-15.255124
 526	5.2600e-001	-29.853821	-16.020640
 527	5.2700e-001	-31.211853	-16.772089
 528	5.2800e-001	-31.929016	-17.537604
 529	5.2900e-001	-34.599304	-18.288513
 530	5.3000e-001	-34.622192	-18.966927
 531	5.3100e-001	-35.972595	-19.598274
 532	5.3200e-001	-37.109375	-20.295624
 533	5.3300e-001	-38.276672	-20.923725
 534	5.3400e-001	-39.566040	-21.522612
 535	5.3500e-001	-40.695190	-22.103105
 536	5.3600e-001	-41.473389	-22.643024
 537	5.3700e-001	-43.090820	-23.211615
 538	5.3800e-001	-44.464111	-23.722860
 539	5.3900e-001	-45.509338	-24.209760
 540	5.4000e-001	-46.211243	-24.653380
 541	5.4100e-001	-47.798157	-25.116477
 542	5.4200e-001	-49.026489	-25.528719
 543	5.4300e-001	-50.338745	-25.941502
 544	5.4400e-001	-51.551819	-26.312087
 545	5.4500e-001	-52.719116	-26.632359
 546	5.4600e-001	-54.237366	-27.002944
 547	5.4700e-001	-55.541992	-27.329709
 548	5.4800e-001	-56.396484	-27.618603
 549	5.4900e-001	-57.510376	-27.924268
 550	5.5000e-001	-58.692932	-28.193145
 551	5.5100e-001	-59.906006	-28.457153
 552	5.5200e-001	-61.309814	-28.716833
 553	5.5300e-001	-62.232971	-28.924577
 554	5.5400e-001	-63.491821	-29.169650
 555	5.5500e-001	-64.994812	-29.386051
 556	5.5600e-001	-65.666199	-29.532121
 557	5.5700e-001	-67.138672	-29.749603
 558	5.5800e-001	-68.336487	-29.958429
 559	5.5900e-001	-69.511414	-30.130467
 560	5.6000e-001	-70.739746	-30.291685
 561	5.6100e-001	-71.899414	-30.431804
 562	5.6200e-001	-73.005676	-30.619531
 563	5.6300e-001	-74.310303	-30.751535
 564	5.6400e-001	-75.782776	-30.890031
 565	5.6500e-001	-76.896667	-31.043675
 566	5.6600e-001	-77.980042	-31.162695
 567	5.6700e-001	-78.628540	-31.252501
 568	5.6800e-001	-80.291748	-31.432654
 569	5.6900e-001	-81.626892	-31.538149
 570	5.7000e-001	-82.595825	-31.662038
 571	5.7100e-001	-83.839417	-31.767534
 572	5.7200e-001	-85.052490	-31.882767
 573	5.7300e-001	-86.761475	-32.020181
 574	5.7400e-001	-87.562561	-32.094839
 575	5.7500e-001	-88.882446	-32.205744
 576	5.7600e-001	-89.927673	-32.278238
 577	5.7700e-001	-91.117859	-32.369667
 578	5.7800e-001	-92.140198	-32.491392
 579	5.7900e-001	-93.544006	-32.592018
 580	5.8000e-001	-94.970703	-32.685070
 581	5.8100e-001	-95.870972	-32.768384
 582	5.8200e-001	-97.236633	-32.890650
 583	5.8300e-001	-98.602295	-32.939340
 584	5.8400e-001	-99.365234	-33.025359
 585	5.8500e-001	-100.898743	-33.118952
 586	5.8600e-001	-102.127075	-33.214168
 587	5.8700e-001	-103.225708	-33.294777
 588	5.8800e-001	-104.270935	-33.380255
 589	5.8900e-001	-105.491638	-33.452749
 590	5.9000e-001	-106.643677	-33.552834
 591	5.9100e-001	-107.986450	-33.625869
 592	5.9200e-001	-109.092712	-33.724331
 593	5.9300e-001	-110.351563	-33.775185
 594	5.9400e-001	-111.381531	-33.872565
 595	5.9500e-001	-112.838745	-33.941813
 596	5.9600e-001	-114.028931	-34.011602
 597	5.9700e-001	-115.188599	-34.114934
 598	5.9800e-001	-115.951538	-34.138197
 599	5.9900e-001	-117.294312	-34.239364
 600	6.0000e-001	-118.766785	-34.342154
 601	6.0100e-001	-120.521545	-34.474699
 602	6.0200e-001	-121.124268	-34.457928
 603	6.0300e-001	-122.360229	-34.570997
 604	6.0400e-001	-123.474121	-34.624015
 605	6.0500e-001	-124.649048	-34.686230
 606	6.0600e-001	-126.029968	-34.756560
 607	6.0700e-001	-127.212524	-34.849612
 608	6.0800e-001	-128.303528	-34.916155
 609	6.0900e-001	-129.692078	-34.989731
 610	6.1000e-001	-131.294250	-35.043290
 611	6.1100e-001	-131.813049	-35.119030
 612	6.1200e-001	-133.277893	-35.186114
 613	6.1300e-001	-134.353638	-35.251575
 614	6.1400e-001	-135.467529	-35.338135
 615	6.1500e-001	-137.001038	-35.403055
 616	6.1600e-001	-137.931824	-35.450122
 617	6.1700e-001	-139.404297	-35.512878
 618	6.1800e-001	-140.365601	-35.602143
 619	6.1900e-001	-141.418457	-35.636767
 620	6.2000e-001	-142.585754	-35.707097
 621	6.2100e-001	-144.073486	-35.771476
 622	6.2200e-001	-145.141602	-35.841806
 623	6.2300e-001	-146.560669	-35.897529
 624	6.2400e-001	-147.659302	-35.962990
 625	6.2500e-001	-148.963928	-36.039812
 626	6.2600e-001	-149.940491	-36.102027
 627	6.2700e-001	-151.199341	-36.160455
 628	6.2800e-001	-152.252197	-36.217801
 629	6.2900e-001	-153.434753	-36.281098
 630	6.3000e-001	-155.036926	-36.366035
 631	6.3100e-001	-156.036377	-36.407692
 632	6.3200e-001	-157.196045	-36.458006
 633	6.3300e-001	-158.409119	-36.506696
 634	6.3400e-001	-159.698486	-36.581354
 635	6.3500e-001	-160.781860	-36.648438
 636	6.3600e-001	-161.849976	-36.713358
 637	6.3700e-001	-163.131714	-36.773409
 638	6.3800e-001	-164.817810	-36.831837
 639	6.3900e-001	-165.641785	-36.875658
 640	6.4000e-001	-166.671753	-37.008203
 641	6.4100e-001	-168.014526	-36.983317
 642	6.4200e-001	-169.281006	-37.082861
 643	6.4300e-001	-170.188904	-37.105042
 644	6.4400e-001	-171.546936	-37.153732
 645	6.4500e-001	-172.599792	-37.224603
 646	6.4600e-001	-173.973083	-37.286277
 647	6.4700e-001	-175.369263	-37.360935
 648	6.4800e-001	-176.445007	-37.386362
 649	6.4900e-001	-177.131653	-37.446954
 650	6.5000e-001	-178.779602	-37.517284
 651	6.5100e-001	-179.946899	-37.578417
 652	6.5200e-001	-181.159973	-37.627648
 653	6.5300e-001	-182.533264	-37.666600
 654	6.5400e-001	-183.395386	-37.710421
 655	6.5500e-001	-184.791565	-37.767226
 656	6.5600e-001	-185.989380	-37.814834
 657	6.5700e-001	-186.904907	-37.867852
 658	6.5800e-001	-188.385010	-37.934395
 659	6.5900e-001	-189.422607	-37.976052
 660	6.6000e-001	-190.910339	-38.053415
 661	6.6100e-001	-192.001343	-38.093990
 662	6.6200e-001	-193.023682	-38.145926
 663	6.6300e-001	-194.396973	-38.184878
 664	6.6400e-001	-195.587158	-38.237355
 665	6.6500e-001	-196.464539	-38.296324
 666	6.6600e-001	-198.585510	-38.374769
 667	6.6700e-001	-199.157715	-38.349342
 668	6.6800e-001	-200.332642	-38.447804
 669	6.6900e-001	-201.576233	-38.493789
 670	6.7000e-001	-202.796936	-38.552758
 671	6.7100e-001	-203.994751	-38.590628
 672	6.7200e-001	-205.123901	-38.698828
 673	6.7300e-001	-206.481934	-38.695041
 674	6.7400e-001	-207.580566	-38.737239
 675	6.7500e-001	-209.213257	-38.825423
 676	6.7600e-001	-210.029602	-38.840571
 677	6.7700e-001	-211.296082	-38.886556
 678	6.7800e-001	-212.394714	-38.945525
 679	6.7900e-001	-213.699341	-39.005576
 680	6.8000e-001	-215.408325	-39.069955
 681	6.8100e-001	-215.736389	-39.091595
 682	6.8200e-001	-217.063904	-39.132711
 683	6.8300e-001	-218.246460	-39.179237
 684	6.8400e-001	-219.520569	-39.231714
 685	6.8500e-001	-220.497131	-39.286355
 686	6.8600e-001	-222.015381	-39.317192
 687	6.8700e-001	-223.182678	-39.386440
 688	6.8800e-001	-224.357605	-39.427015
 689	6.8900e-001	-225.593567	-39.455147
 690	6.9000e-001	-227.584839	-39.524936
 691	6.9100e-001	-228.523254	-39.584446
 692	6.9200e-001	-229.095459	-39.620152
 693	6.9300e-001	-230.102539	-39.628808
 694	6.9400e-001	-231.987000	-39.709417
 695	6.9500e-001	-232.696533	-39.749451
 696	6.9600e-001	-234.085083	-39.793272
 697	6.9700e-001	-235.069275	-39.810043
 698	6.9800e-001	-236.419678	-39.880373
 699	6.9900e-001	-237.823486	-39.914456
 700	7.0000e-001	-238.838196	-39.979376
 701	7.0100e-001	-240.051270	-40.018328
 702	7.0200e-001	-241.333008	-40.052952
 703	7.0300e-001	-242.301941	-40.077297
 704	7.0400e-001	-243.354797	-40.135184
 705	7.0500e-001	-244.834900	-40.194153
 706	7.0600e-001	-246.162415	-40.240138
 707	7.0700e-001	-247.299194	-40.287205
 708	7.0800e-001	-248.046875	-40.247171
 709	7.0900e-001	-249.641418	-40.367814
 710	7.1000e-001	-250.854492	-40.420832
 711	7.1100e-001	-251.487732	-40.453292
 712	7.1200e-001	-253.173828	-40.499277
 713	7.1300e-001	-254.379272	-40.554459
 714	7.1400e-001	-255.676270	-40.571230
 715	7.1500e-001	-256.698608	-40.632363
 716	7.1600e-001	-257.904053	-40.652380
 717	7.1700e-001	-258.979797	-40.716759
 718	7.1800e-001	-260.360718	-40.763826
 719	7.1900e-001	-261.383057	-40.852550
 720	7.2000e-001	-262.672424	-40.835238
 721	7.2100e-001	-264.091492	-40.881223
 722	7.2200e-001	-264.450073	-40.919634
 723	7.2300e-001	-266.357422	-40.963996
 724	7.2400e-001	-267.456055	-40.999702
 725	7.2500e-001	-268.653870	-41.038113
 726	7.2600e-001	-269.157410	-41.054884
 727	7.2700e-001	-271.102905	-41.116558
 728	7.2800e-001	-272.552490	-41.169577
 729	7.2900e-001	-273.895264	-41.208529
 730	7.3000e-001	-274.871826	-41.255055
 731	7.3100e-001	-276.321411	-41.253432
 732	7.3200e-001	-276.931763	-41.330795
 733	7.3300e-001	-278.419495	-41.365419
 734	7.3400e-001	-279.678345	-41.401125
 735	7.3500e-001	-280.822754	-41.527719
 736	7.3600e-001	-281.936646	-41.481193
 737	7.3700e-001	-283.142090	-41.543408
 738	7.3800e-001	-284.187317	-41.561261
 739	7.3900e-001	-285.537720	-41.609951
 740	7.4000e-001	-286.575317	-41.654854
 741	7.4100e-001	-288.078308	-41.687314
 742	7.4200e-001	-288.894653	-41.663510
 743	7.4300e-001	-290.321350	-41.772792
 744	7.4400e-001	-290.977478	-41.777120
 745	7.4500e-001	-292.770386	-41.853401
 746	7.4600e-001	-293.876648	-41.880992
 747	7.4700e-001	-295.066833	-41.918862
 748	7.4800e-001	-296.325684	-41.953486
 749	7.4900e-001	-297.607422	-42.001094
 750	7.5000e-001	-299.407959	-42.064391
 751	7.5100e-001	-299.850464	-42.057358
 752	7.5200e-001	-298.629761	-42.058440
 753	7.5300e-001	-298.027039	-42.041128
 754	7.5400e-001	-296.432495	-41.990274
 755	7.5500e-001	-295.150757	-41.973503
 756	7.5600e-001	-293.914795	-41.945912
 757	7.5700e-001	-292.678833	-41.905878
 758	7.5800e-001	-291.748047	-41.883156
 759	7.5900e-001	-290.740967	-41.865844
 760	7.6000e-001	-289.123535	-41.814990
 761	7.6100e-001	-288.185120	-41.787399
 762	7.6200e-001	-286.605835	-41.739791
 763	7.6300e-001	-285.575867	-41.739791
 764	7.6400e-001	-284.324646	-41.694347
 765	7.6500e-001	-283.233643	-41.678658
 766	7.6600e-001	-282.203674	-41.633755
 767	7.6700e-001	-280.807495	-41.659182
 768	7.6800e-001	-279.487610	-41.549900
 769	7.6900e-001	-278.167725	-41.526637
 770	7.7000e-001	-277.084351	-41.521227
 771	7.7100e-001	-276.016235	-41.484439
 772	7.7200e-001	-274.688721	-41.447110
 773	7.7300e-001	-273.605347	-41.438454
 774	7.7400e-001	-272.430420	-41.369747
 775	7.7500e-001	-271.278381	-41.350271
 776	7.7600e-001	-270.088196	-41.300499
 777	7.7700e-001	-268.707275	-41.251809
 778	7.7800e-001	-267.868042	-41.263170
 779	7.7900e-001	-266.418457	-41.198791
 780	7.8000e-001	-265.342712	-41.168495
 781	7.8100e-001	-264.030457	-41.140363
 782	7.8200e-001	-262.893677	-41.045146
 783	7.8300e-001	-261.932373	-41.091131
 784	7.8400e-001	-260.459900	-41.030539
 785	7.8500e-001	-259.216309	-41.011063
 786	7.8600e-001	-257.759094	-40.961291
 787	7.8700e-001	-257.354736	-40.953717
 788	7.8800e-001	-255.638123	-40.893125
 789	7.8900e-001	-254.295349	-40.866616
 790	7.9000e-001	-253.288269	-40.835238
 791	7.9100e-001	-251.937866	-40.789253
 792	7.9200e-001	-250.785828	-40.766531
 793	7.9300e-001	-249.679565	-40.742186
 794	7.9400e-001	-248.374939	-40.702693
 795	7.9500e-001	-247.222900	-40.646429
 796	7.9600e-001	-246.131897	-40.619920
 797	7.9700e-001	-245.162964	-40.565820
 798	7.9800e-001	-243.537903	-40.484129
 799	7.9900e-001	-242.355347	-40.514425
 800	8.0000e-001	-241.195679	-40.470604
 801	8.0100e-001	-240.180969	-40.431111
 802	8.0200e-001	-238.639832	-40.393241
 803	8.0300e-001	-238.075256	-40.382421
 804	8.0400e-001	-236.221313	-40.312091
 805	8.0500e-001	-235.153198	-40.303435
 806	8.0600e-001	-233.993530	-40.236892
 807	8.0700e-001	-232.681274	-40.222285
 808	8.0800e-001	-231.697083	-40.176300
 809	8.0900e-001	-230.331421	-40.138971
 810	8.1000e-001	-229.194641	-40.098937
 811	8.1100e-001	-227.951050	-40.059444
 812	8.1200e-001	-226.776123	-40.026984
 813	8.1300e-001	-225.738525	-39.990196
 814	8.1400e-001	-224.296570	-39.933391
 815	8.1500e-001	-222.976685	-39.879291
 816	8.1600e-001	-221.893311	-39.840339
 817	8.1700e-001	-220.848083	-39.828978
 818	8.1800e-001	-219.596863	-39.781370
 819	8.1900e-001	-218.345642	-39.743500
 820	8.2000e-001	-217.353821	-39.712122
 821	8.2100e-001	-216.041565	-39.663432
 822	8.2200e-001	-214.736938	-39.628267
 823	8.2300e-001	-213.684082	-39.601217
 824	8.2400e-001	-212.379456	-39.553068
 825	8.2500e-001	-210.945129	-39.497345
 826	8.2600e-001	-209.877014	-39.470836
 827	8.2700e-001	-208.908081	-39.477328
 828	8.2800e-001	-207.656860	-39.362095
 829	8.2900e-001	-206.283569	-39.335586
 830	8.3000e-001	-205.162048	-39.303126
 831	8.3100e-001	-203.994751	-39.266879
 832	8.3200e-001	-202.728271	-39.232255
 833	8.3300e-001	-201.332092	-39.168958
 834	8.3400e-001	-200.721741	-39.113235
 835	8.3500e-001	-199.134827	-39.092677
 836	8.3600e-001	-197.982788	-39.049938
 837	8.3700e-001	-196.846008	-39.005035
 838	8.3800e-001	-195.671082	-38.980690
 839	8.3900e-001	-194.267273	-38.933082
 840	8.4000e-001	-193.161011	-38.886556
 841	8.4100e-001	-192.024231	-38.828669
 842	8.4200e-001	-190.765381	-38.787012
 843	8.4300e-001	-189.163208	-38.742649
 844	8.4400e-001	-188.369751	-38.717222
 845	8.4500e-001	-187.286377	-38.682598
 846	8.4600e-001	-186.027527	-38.626875
 847	8.4700e-001	-184.143066	-38.592792
 848	8.4800e-001	-183.593750	-38.533282
 849	8.4900e-001	-182.159424	-38.490543
 850	8.5000e-001	-181.121826	-38.464575
 851	8.5100e-001	-180.084229	-38.385589
 852	8.5200e-001	-178.840637	-38.334194
 853	8.5300e-001	-177.345276	-38.270897
 854	8.5400e-001	-176.261902	-38.278471
 855	8.5500e-001	-175.086975	-38.237896
 856	8.5600e-001	-174.026489	-38.184337
 857	8.5700e-001	-172.950745	-38.130237
 858	8.5800e-001	-171.463013	-38.066399
 859	8.5900e-001	-170.288086	-38.046382
 860	8.6000e-001	-168.914795	-38.022578
 861	8.6100e-001	-167.877197	-37.949002
 862	8.6200e-001	-167.526245	-37.924116
 863	8.6300e-001	-165.504456	-37.842966
 864	8.6400e-001	-164.405823	-37.781833
 865	8.6500e-001	-163.261414	-37.779669
 866	8.6600e-001	-161.949158	-37.696355
 867	8.6700e-001	-160.720825	-37.668764
 868	8.6800e-001	-159.721375	-37.588155
 869	8.6900e-001	-158.256531	-37.550285
 870	8.7000e-001	-157.150269	-37.527022
 871	8.7100e-001	-156.738281	-37.502136
 872	8.7200e-001	-154.258728	-37.432347
 873	8.7300e-001	-153.648376	-37.360935
 874	8.7400e-001	-152.282715	-37.326311
 875	8.7500e-001	-151.084900	-37.280326
 876	8.7600e-001	-149.902344	-37.237587
 877	8.7700e-001	-148.780823	-37.198094
 878	8.7800e-001	-147.499084	-37.119108
 879	8.7900e-001	-146.316528	-37.070959
 880	8.8000e-001	-145.271301	-37.034171
 881	8.8100e-001	-144.165039	-36.973038
 882	8.8200e-001	-142.715454	-36.919479
 883	8.8300e-001	-141.563416	-36.866461
 884	8.8400e-001	-140.304565	-36.825886
 885	8.8500e-001	-139.114380	-36.760966
 886	8.8600e-001	-137.908936	-36.715522
 887	8.8700e-001	-134.658813	-36.632208
 888	8.8800e-001	-135.314941	-36.607322
 889	8.8900e-001	-134.231567	-36.544025
 890	8.9000e-001	-132.949829	-36.482351
 891	8.9100e-001	-131.805420	-36.434743
 892	8.9200e-001	-130.783081	-36.431497
 893	8.9300e-001	-129.531860	-36.342231
 894	8.9400e-001	-128.242493	-36.275147
 895	8.9500e-001	-127.319336	-36.227539
 896	8.9600e-001	-125.885010	-36.184259
 897	8.9700e-001	-124.740601	-36.115552
 898	8.9800e-001	-123.565674	-36.069567
 899	8.9900e-001	-122.833252	-36.035484
 900	9.0000e-001	-121.093750	-35.957580
 901	9.0100e-001	-119.903564	-35.860741
 902	9.0200e-001	-118.820190	-35.851003
 903	9.0300e-001	-117.752075	-35.789870
 904	9.0400e-001	-116.455078	-35.749295
 905	9.0500e-001	-114.204407	-35.710343
 906	9.0600e-001	-113.876343	-35.598356
 907	9.0700e-001	-112.136841	-35.520452
 908	9.0800e-001	-111.595154	-35.476631
 909	9.0900e-001	-110.054016	-35.443089
 910	9.1000e-001	-108.909607	-35.380874
 911	9.1100e-001	-108.070374	-35.293232
 912	9.1200e-001	-106.628418	-35.248329
 913	9.1300e-001	-105.476379	-35.200180
 914	9.1400e-001	-104.515076	-35.133637
 915	9.1500e-001	-103.065491	-35.060061
 916	9.1600e-001	-101.860046	-34.990272
 917	9.1700e-001	-100.677490	-34.935090
 918	9.1800e-001	-99.960327	-34.897220
 919	9.1900e-001	-98.457336	-34.820939
 920	9.2000e-001	-97.038269	-34.730051
 921	9.2100e-001	-96.038818	-34.679738
 922	9.2200e-001	-94.917297	-34.634294
 923	9.2300e-001	-93.856812	-34.594801
 924	9.2400e-001	-92.369080	-34.489306
 925	9.2500e-001	-91.156006	-34.435747
 926	9.2600e-001	-90.003967	-34.360007
 927	9.2700e-001	-88.333130	-34.269119
 928	9.2800e-001	-87.493896	-34.222593
 929	9.2900e-001	-86.425781	-34.213937
 930	9.3000e-001	-85.144043	-34.106819
 931	9.3100e-001	-84.175110	-34.024045
 932	9.3200e-001	-82.702637	-33.961830
 933	9.3300e-001	-81.481934	-33.893123
 934	9.3400e-001	-80.398560	-33.797907
 935	9.3500e-001	-79.437256	-33.741643
 936	9.3600e-001	-78.033447	-33.672395
 937	9.3700e-001	-76.583862	-33.621000
 938	9.3800e-001	-75.462341	-33.518751
 939	9.3900e-001	-74.249268	-33.444093
 940	9.4000e-001	-73.211670	-33.384583
 941	9.4100e-001	-71.853638	-33.328860
 942	9.4200e-001	-70.831299	-33.230398
 943	9.4300e-001	-69.335938	-33.155199
 944	9.4400e-001	-68.283081	-33.054032
 945	9.4500e-001	-66.993713	-33.015080
 946	9.4600e-001	-65.757751	-32.915536
 947	9.4700e-001	-64.811707	-32.857649
 948	9.4800e-001	-63.476563	-32.802467
 949	9.4900e-001	-62.385559	-32.660725
 950	9.5000e-001	-61.180115	-32.627183
 951	9.5100e-001	-60.035706	-32.532508
 952	9.5200e-001	-58.593750	-32.467588
 953	9.5300e-001	-57.441711	-32.359929
 954	9.5400e-001	-56.243896	-32.272828
 955	9.5500e-001	-55.427551	-32.225220
 956	9.5600e-001	-54.061890	-32.098626
 957	9.5700e-001	-52.665710	-32.015853
 958	9.5800e-001	-51.452637	-31.927129
 959	9.5900e-001	-50.628662	-31.834618
 960	9.6000e-001	-49.270630	-31.756714
 961	9.6100e-001	-47.760010	-31.653923
 962	9.6200e-001	-46.707153	-31.578724
 963	9.6300e-001	-45.562744	-31.484590
 964	9.6400e-001	-44.975281	-31.350422
 965	9.6500e-001	-43.090820	-31.272518
 966	9.6600e-001	-42.343140	-31.178925
 967	9.6700e-001	-40.817261	-31.086414
 968	9.6800e-001	-39.398193	-30.998231
 969	9.6900e-001	-38.436890	-30.882998
 970	9.7000e-001	-37.261963	-30.792651
 971	9.7100e-001	-35.972595	-30.678500
 972	9.7200e-001	-34.751892	-30.570300
 973	9.7300e-001	-32.882690	-30.431263
 974	9.7400e-001	-32.196045	-30.341998
 975	9.7500e-001	-31.234741	-30.241913
 976	9.7600e-001	-29.945374	-30.115860
 977	9.7700e-001	-28.762817	-30.015234
 978	9.7800e-001	-27.526855	-29.877820
 979	9.7900e-001	-26.329041	-29.826966
 980	9.8000e-001	-25.444031	-29.608402
 981	9.8100e-001	-24.978638	-29.536990
 982	9.8200e-001	-22.560120	-29.353590
 983	9.8300e-001	-21.423340	-29.197782
 984	9.8400e-001	-20.431519	-29.050630
 985	9.8500e-001	-19.325256	-28.890494
 986	9.8600e-001	-17.929077	-28.751998
 987	9.8700e-001	-16.708374	-28.583206
 988	9.8800e-001	-15.670776	-28.409545
 989	9.8900e-001	-14.175415	-28.232638
 990	9.9000e-001	-13.191223	-28.061141
 991	9.9100e-001	-11.856079	-27.826888
 992	9.9200e-001	-11.344910	-27.646194
 993	9.9300e-001	-9.834290	-27.407072
 994	9.9400e-001	-8.316040	-27.198787
 995	9.9500e-001	-7.240295	-26.947762
 996	9.9600e-001	-5.737305	-26.627490
 997	9.9700e-001	-4.844666	-26.394319
 998	9.9800e-001	-3.578186	-26.088654
 999	9.9900e-001	-2.311707	-25.784612
1000	1.0000e+000	-1.197815	-25.477865
1001	1.0010e+000	-0.328064	-25.140822
1002	1.0020e+000	1.091003	-24.808107
1003	1.0030e+000	2.418518	-24.455915
1004	1.0040e+000	3.379822	-24.095068
1005	1.0050e+000	4.676819	-23.723942
1006	1.0060e+000	5.744934	-23.315487
1007	1.0070e+000	7.148743	-22.934082
1008	1.0080e+000	8.285522	-22.529414
1009	1.0090e+000	9.574890	-22.143139
1010	1.0100e+000	10.902405	-21.744422
1011	1.0110e+000	11.680603	-21.343000
1012	1.0120e+000	13.107300	-20.941578
1013	1.0130e+000	14.335632	-20.588846
1014	1.0140e+000	15.625000	-20.166325
1015	1.0150e+000	16.738892	-19.765984
1016	1.0160e+000	17.868042	-19.365103
1017	1.0170e+000	19.210815	-18.928516
1018	1.0180e+000	20.362854	-18.504913
1019	1.0190e+000	21.514893	-18.032079
1020	1.0200e+000	22.262573	-17.606311
1021	1.0210e+000	23.849487	-17.071262
1022	1.0220e+000	25.131226	-16.540000
1023	1.0230e+000	26.153564	-15.958966
1024	1.0240e+000	27.359009	-15.371981
1025	1.0250e+000	28.701782	-14.732518
1026	1.0260e+000	30.357361	-13.984315
1027	1.0270e+000	31.036377	-13.359460
1028	1.0280e+000	32.341003	-12.643716
1029	1.0290e+000	33.180237	-11.900923
1030	1.0300e+000	34.454346	-11.082390
1031	1.0310e+000	35.781860	-10.281709
1032	1.0320e+000	37.094116	-9.421519
1033	1.0330e+000	37.857056	-8.543476
1034	1.0340e+000	39.543152	-7.617283
1035	1.0350e+000	40.672302	-6.693255
1036	1.0360e+000	41.946411	-5.771390
1037	1.0370e+000	42.991638	-4.764048
1038	1.0380e+000	44.372559	-3.785379
1039	1.0390e+000	45.501709	-2.766134
1040	1.0400e+000	46.195984	-1.743103
1041	1.0410e+000	47.882080	-0.704382
1042	1.0420e+000	48.835754	0.287271
1043	1.0430e+000	50.170898	1.339517
1044	1.0440e+000	51.345825	2.356597
1045	1.0450e+000	52.474976	3.351496
1046	1.0460e+000	54.023743	4.383184
1047	1.0470e+000	55.084229	5.377001
1048	1.0480e+000	55.702209	6.344851
1049	1.0490e+000	57.472229	7.336504
1050	1.0500e+000	58.654785	8.258910
1051	1.0510e+000	59.440613	9.155347
1052	1.0520e+000	61.119080	10.065850
1053	1.0530e+000	62.149048	10.910352
1054	1.0540e+000	63.751221	11.735918
1055	1.0550e+000	64.956665	12.551205
1056	1.0560e+000	65.948486	13.335656
1057	1.0570e+000	67.024231	14.049235
1058	1.0580e+000	68.252563	14.756322
1059	1.0590e+000	69.465637	15.455295
1060	1.0600e+000	70.854187	16.145611
1061	1.0610e+000	71.899414	16.769384
1062	1.0620e+000	73.120117	17.368812
1063	1.0630e+000	74.378967	17.974733
1064	1.0640e+000	75.584412	18.569833
1065	1.0650e+000	76.461792	19.107587
1066	1.0660e+000	77.735901	19.616668
1067	1.0670e+000	79.032898	20.194457
1068	1.0680e+000	80.314636	20.734375
1069	1.0690e+000	81.619263	21.217488
1070	1.0700e+000	82.809448	21.669764
1071	1.0710e+000	83.038330	22.120417
1072	1.0720e+000	85.144043	22.646270
1073	1.0730e+000	86.128235	23.090431
1074	1.0740e+000	87.417603	23.509165
1075	1.0750e+000	88.348389	23.940883
1076	1.0760e+000	89.759827	24.403438
1077	1.0770e+000	91.079712	24.801074
1078	1.0780e+000	92.430115	25.191676
1079	1.0790e+000	93.559265	25.632591
1080	1.0800e+000	94.711304	25.994520
1081	1.0810e+000	95.970154	26.372679
1082	1.0820e+000	96.916199	26.744346
1083	1.0830e+000	98.236084	27.094374
1084	1.0840e+000	100.585938	27.513108
1085	1.0850e+000	100.814819	27.732754
1086	1.0860e+000	101.928711	28.120651
1087	1.0870e+000	102.920532	28.396020
1088	1.0880e+000	104.179382	28.717915
1089	1.0890e+000	105.529785	29.001399
1090	1.0900e+000	106.758118	29.277309
1091	1.0910e+000	107.826233	29.572696
1092	1.0920e+000	109.199524	29.805867
1093	1.0930e+000	110.496521	30.028218
1094	1.0940e+000	111.610413	30.303587
1095	1.0950e+000	112.396240	30.499429
1096	1.0960e+000	113.906860	30.695812
1097	1.0970e+000	115.264893	30.918163
1098	1.0980e+000	117.019653	31.144301
1099	1.0990e+000	117.797852	31.293617
1100	1.1000e+000	118.888855	31.448884
1101	1.1010e+000	119.926453	31.578724
1102	1.1020e+000	121.131897	31.783223
1103	1.1030e+000	122.062683	31.923342
1104	1.1040e+000	123.641968	32.066166
1105	1.1050e+000	124.847412	32.208449
1106	1.1060e+000	125.968933	32.342076
1107	1.1070e+000	127.235413	32.460555
1108	1.1080e+000	128.570557	32.582280
1109	1.1090e+000	129.646301	32.739711
1110	1.1100e+000	130.661011	32.827894
1111	1.1110e+000	131.881714	32.957193
1112	1.1120e+000	132.820129	33.016703
1113	1.1130e+000	134.239197	33.191987
1114	1.1140e+000	135.673523	33.282875
1115	1.1150e+000	136.703491	33.400813
1116	1.1160e+000	137.916565	33.509554
1117	1.1170e+000	139.282227	33.622082
1118	1.1180e+000	139.328003	33.643181
1119	1.1190e+000	141.532898	33.802235
1120	1.1200e+000	142.990112	33.921255
1121	1.1210e+000	143.424988	33.993208
1122	1.1220e+000	145.179749	34.114393
1123	1.1230e+000	146.499634	34.208527
1124	1.1240e+000	147.651672	34.346482
1125	1.1250e+000	148.796082	34.404910
1126	1.1260e+000	149.841309	34.499585
1127	1.1270e+000	151.054382	34.586686
1128	1.1280e+000	152.267456	34.690017
1129	1.1290e+000	153.709412	34.784692
1130	1.1300e+000	154.464722	34.875580
1131	1.1310e+000	155.929565	34.972419
1132	1.1320e+000	157.272339	35.054110
1133	1.1330e+000	158.317566	35.155277
1134	1.1340e+000	159.599304	35.199639
1135	1.1350e+000	160.820007	35.301347
1136	1.1360e+000	162.017822	35.390071
1137	1.1370e+000	163.261414	35.473926
1138	1.1380e+000	164.245605	35.532354
1139	1.1390e+000	165.466309	35.638390
1140	1.1400e+000	166.984558	35.719540
1141	1.1410e+000	167.976379	35.810969
1142	1.1420e+000	169.120789	35.863446
1143	1.1430e+000	170.463562	35.950006
1144	1.1440e+000	171.653748	36.047927
1145	1.1450e+000	173.561096	36.120421
1146	1.1460e+000	174.308777	36.197784
1147	1.1470e+000	175.315857	36.269196
1148	1.1480e+000	176.330566	36.331411
1149	1.1490e+000	177.894592	36.426087
1150	1.1500e+000	178.710938	36.492630
1151	1.1510e+000	180.145264	36.574321
1152	1.1520e+000	181.289673	36.652766
1153	1.1530e+000	182.258606	36.687390
1154	1.1540e+000	183.586121	36.778278
1155	1.1550e+000	184.661865	36.858887
1156	1.1560e+000	185.913086	36.875658
1157	1.1570e+000	187.248230	36.977366
1158	1.1580e+000	187.797546	37.054729
1159	1.1590e+000	189.537048	37.139125
1160	1.1600e+000	190.925598	37.188897
1161	1.1610e+000	192.245483	37.250030
1162	1.1620e+000	193.191528	37.352279
1163	1.1630e+000	194.412231	37.416658
1164	1.1640e+000	195.503235	37.464266
1165	1.1650e+000	198.051453	37.569220
1166	1.1660e+000	197.929382	37.608172
1167	1.1670e+000	199.020386	37.654698
1168	1.1680e+000	200.515747	37.726651
1169	1.1690e+000	201.416016	37.821326
1170	1.1700e+000	202.919006	37.913296
1171	1.1710e+000	203.849792	37.938723
1172	1.1720e+000	205.284119	37.990118
1173	1.1730e+000	206.626892	38.098859
1174	1.1740e+000	207.817078	38.168648
1175	1.1750e+000	208.869934	38.179468
1176	1.1760e+000	210.006714	38.255749
1177	1.1770e+000	211.219788	38.313636
1178	1.1780e+000	212.272644	38.373146
1179	1.1790e+000	213.661194	38.458624
1180	1.1800e+000	214.904785	38.480805
1181	1.1810e+000	216.003418	38.562496
1182	1.1820e+000	217.338562	38.622006
1183	1.1830e+000	218.078613	38.672860
1184	1.1840e+000	219.337463	38.737780
1185	1.1850e+000	220.695496	38.824341
1186	1.1860e+000	222.114563	38.859506
1187	1.1870e+000	223.190308	38.916852
1188	1.1880e+000	224.418640	38.953099
1189	1.1890e+000	225.486755	39.055348
1190	1.1900e+000	226.844788	39.087808
1191	1.1910e+000	228.012085	39.169499
1192	1.1920e+000	229.736328	39.223058
1193	1.1930e+000	230.484009	39.245239
1194	1.1940e+000	231.658936	39.335586
1195	1.1950e+000	232.322693	39.372915
1196	1.1960e+000	234.176636	39.437294
1197	1.1970e+000	235.290527	39.478410
1198	1.1980e+000	236.427307	39.498968
1199	1.1990e+000	237.541199	39.598512
1200	1.2000e+000	238.883972	39.667760
1201	1.2010e+000	239.830017	39.704548
1202	1.2020e+000	241.188049	39.757025
1203	1.2030e+000	242.424011	39.804092
1204	1.2040e+000	243.301392	39.879832
1205	1.2050e+000	244.728088	39.917702
1206	1.2060e+000	246.246338	39.978835
1207	1.2070e+000	247.009277	40.031853
1208	1.2080e+000	248.199463	40.051870
1209	1.2090e+000	249.671936	40.130856
1210	1.2100e+000	250.663757	40.156824
1211	1.2110e+000	252.006531	40.247171
1212	1.2120e+000	254.463196	40.322911
1213	1.2130e+000	254.257202	40.325616
1214	1.2140e+000	255.821228	40.391618
1215	1.2150e+000	256.652832	40.442472
1216	1.2160e+000	258.071899	40.490080
1217	1.2170e+000	259.239197	40.558787
1218	1.2180e+000	260.490417	40.585837
1219	1.2190e+000	261.688232	40.642101
1220	1.2200e+000	263.175964	40.679430
1221	1.2210e+000	263.885498	40.751383
1222	1.2220e+000	265.075684	40.783302
1223	1.2230e+000	266.693115	40.836861
1224	1.2240e+000	267.578125	40.875272
1225	1.2250e+000	268.615723	40.920175
1226	1.2260e+000	270.126343	41.024588
1227	1.2270e+000	271.209717	41.046228
1228	1.2280e+000	272.361755	41.077606
1229	1.2290e+000	273.582458	41.108443
1230	1.2300e+000	274.917603	41.178233
1231	1.2310e+000	275.993347	41.217185
1232	1.2320e+000	277.862549	41.296712
1233	1.2330e+000	278.312683	41.316729
1234	1.2340e+000	279.434204	41.368665
1235	1.2350e+000	280.845642	41.415191
1236	1.2360e+000	282.028198	41.441700
1237	1.2370e+000	282.882690	41.504456
1238	1.2380e+000	284.408569	41.552064
1239	1.2390e+000	286.964417	41.651608
1240	1.2400e+000	286.949158	41.637001
1241	1.2410e+000	287.788391	41.670543
1242	1.2420e+000	289.230347	41.719774
1243	1.2430e+000	290.191650	41.757644
1244	1.2440e+000	291.778564	41.829597
1245	1.2450e+000	292.694092	41.869631
1246	1.2460e+000	293.952942	41.924813
1247	1.2470e+000	295.364380	41.939961
1248	1.2480e+000	296.417236	41.994602
1249	1.2490e+000	297.492981	42.041669
1250	1.2500e+000	298.744202	42.098474
1251	1.2510e+000	300.018311	42.124442
1252	1.2520e+000	298.706055	42.119032
1253	1.2530e+000	297.706604	42.100638
1254	1.2540e+000	296.401978	42.068719
1255	1.2550e+000	294.990540	42.012996
1256	1.2560e+000	293.968201	42.024357
1257	1.2570e+000	292.404175	41.953486
1258	1.2580e+000	291.404724	41.926977
1259	1.2590e+000	289.871216	41.911829
1260	1.2600e+000	288.810730	41.852319
1261	1.2610e+000	287.933350	41.856647
1262	1.2620e+000	286.766052	41.802006
1263	1.2630e+000	285.507202	41.738709
1264	1.2640e+000	284.278870	41.747906
1265	1.2650e+000	283.157349	41.718151
1266	1.2660e+000	281.898499	41.673789
1267	1.2670e+000	280.586243	41.659182
1268	1.2680e+000	279.457092	41.618607
1269	1.2690e+000	278.594971	41.617525
1270	1.2700e+000	277.137756	41.545572
1271	1.2710e+000	276.031494	41.508243
1272	1.2720e+000	274.589539	41.479570
1273	1.2730e+000	273.674011	41.441159
1274	1.2740e+000	272.453308	41.408158
1275	1.2750e+000	271.392822	41.364878
1276	1.2760e+000	269.783020	41.342697
1277	1.2770e+000	268.829346	41.308614
1278	1.2780e+000	266.838074	41.243694
1279	1.2790e+000	266.395569	41.246399
1280	1.2800e+000	264.389038	41.164708
1281	1.2810e+000	263.916016	41.169036
1282	1.2820e+000	262.855530	41.104115
1283	1.2830e+000	261.619568	41.078147
1284	1.2840e+000	260.231018	41.060835
1285	1.2850e+000	259.468079	41.010522
1286	1.2860e+000	258.453369	40.952635
1287	1.2870e+000	256.523132	40.918011
1288	1.2880e+000	255.989075	40.919634
1289	1.2890e+000	254.356384	40.863370
1290	1.2900e+000	253.044128	40.815221
1291	1.2910e+000	251.968384	40.813598
1292	1.2920e+000	250.679016	40.756793
1293	1.2930e+000	249.626160	40.700529
1294	1.2940e+000	248.146057	40.670233
1295	1.2950e+000	247.230530	40.628576
1296	1.2960e+000	245.841980	40.601526
1297	1.2970e+000	245.246887	40.555541
1298	1.2980e+000	243.675232	40.514966
1299	1.2990e+000	242.240906	40.466276
1300	1.3000e+000	241.317749	40.400274
1301	1.3010e+000	240.097046	40.378634
1302	1.3020e+000	238.891602	40.348338
1303	1.3030e+000	237.617493	40.287205
1304	1.3040e+000	236.305237	40.249876
1305	1.3050e+000	235.153198	40.232023
1306	1.3060e+000	234.115601	40.162234
1307	1.3070e+000	232.864380	40.141135
1308	1.3080e+000	231.430054	40.085953
1309	1.3090e+000	230.537415	40.054034
1310	1.3100e+000	229.042053	39.991278
1311	1.3110e+000	227.813721	39.949080
1312	1.3120e+000	226.707458	39.920948
1313	1.3130e+000	225.677490	39.878750
1314	1.3140e+000	224.349976	39.832224
1315	1.3150e+000	223.533630	39.761353
1316	1.3160e+000	222.106934	39.746205
1317	1.3170e+000	220.672607	39.702925
1318	1.3180e+000	219.573975	39.591479
1319	1.3190e+000	218.330383	39.633677
1320	1.3200e+000	217.147827	39.564429
1321	1.3210e+000	216.194153	39.535756
1322	1.3220e+000	214.645386	39.423228
1323	1.3230e+000	213.493347	39.431343
1324	1.3240e+000	212.471008	39.373997
1325	1.3250e+000	211.349487	39.323143
1326	1.3260e+000	209.983826	39.287978
1327	1.3270e+000	209.022522	39.240370
1328	1.3280e+000	207.542419	39.186270
1329	1.3290e+000	206.192017	39.173286
1330	1.3300e+000	205.139160	39.089431
1331	1.3310e+000	203.987122	39.052643
1332	1.3320e+000	202.598572	39.002871
1333	1.3330e+000	202.331543	38.944443
1334	1.3340e+000	200.477600	38.896835
1335	1.3350e+000	199.089050	38.851932
1336	1.3360e+000	198.173523	38.817849
1337	1.3370e+000	196.701050	38.722091
1338	1.3380e+000	194.786072	38.650679
1339	1.3390e+000	194.442749	38.663122
1340	1.3400e+000	193.336487	38.596038
1341	1.3410e+000	191.917419	38.546266
1342	1.3420e+000	190.544128	38.486215
1343	1.3430e+000	190.017700	38.468903
1344	1.3440e+000	188.194275	38.399655
1345	1.3450e+000	186.988831	38.353670
1346	1.3460e+000	186.012268	38.274684
1347	1.3470e+000	184.730530	38.231945
1348	1.3480e+000	183.959961	38.200567
1349	1.3490e+000	182.601929	38.205977
1350	1.3500e+000	180.931091	38.060448
1351	1.3510e+000	179.954529	38.042054
1352	1.3520e+000	178.352356	37.934395
1353	1.3530e+000	177.665710	37.890574
1354	1.3540e+000	176.231384	37.847294
1355	1.3550e+000	175.033569	37.789407
1356	1.3560e+000	173.881531	37.748291
1357	1.3570e+000	172.569275	37.681207
1358	1.3580e+000	171.470642	37.623861
1359	1.3590e+000	170.372009	37.564892
1360	1.3600e+000	168.739319	37.546498
1361	1.3610e+000	168.281555	37.505382
1362	1.3620e+000	166.870117	37.370132
1363	1.3630e+000	165.512085	37.365263
1364	1.3640e+000	164.588928	37.267342
1365	1.3650e+000	163.360596	37.243538
1366	1.3660e+000	161.903381	37.174290
1367	1.3670e+000	160.552979	37.091517
1368	1.3680e+000	159.675598	37.032007
1369	1.3690e+000	158.157349	36.982776
1370	1.3700e+000	157.249451	36.909741
1371	1.3710e+000	156.173706	36.912987
1372	1.3720e+000	154.426575	36.793426
1373	1.3730e+000	153.579712	36.713358
1374	1.3740e+000	152.603149	36.671701
1375	1.3750e+000	151.016235	36.591633
1376	1.3760e+000	149.940491	36.530500
1377	1.3770e+000	148.941040	36.466121
1378	1.3780e+000	147.148132	36.397413
1379	1.3790e+000	146.385193	36.338985
1380	1.3800e+000	145.278931	36.235654
1381	1.3810e+000	143.974304	36.220506
1382	1.3820e+000	142.875671	36.132323
1383	1.3830e+000	141.677856	36.065780
1384	1.3840e+000	139.678955	36.018172
1385	1.3850e+000	139.213562	35.920792
1386	1.3860e+000	137.992859	35.852626
1387	1.3870e+000	135.787964	35.769853
1388	1.3880e+000	135.414124	35.716294
1389	1.3890e+000	134.635925	35.669227
1390	1.3900e+000	132.850647	35.585913
1391	1.3910e+000	132.057190	35.497189
1392	1.3920e+000	130.905151	35.433892
1393	1.3930e+000	129.394531	35.353283
1394	1.3940e+000	128.494263	35.280789
1395	1.3950e+000	127.075195	35.120653
1396	1.3960e+000	125.831604	35.143375
1397	1.3970e+000	124.908447	35.060061
1398	1.3980e+000	123.367310	34.982698
1399	1.3990e+000	122.360229	34.919401
1400	1.4000e+000	121.238708	34.833923
1401	1.4010e+000	120.140076	34.750068
1402	1.4020e+000	118.522644	34.652688
1403	1.4030e+000	117.607117	34.585063
1404	1.4040e+000	116.462708	34.522848
1405	1.4050e+000	115.394592	34.422763
1406	1.4060e+000	114.166260	34.338367
1407	1.4070e+000	112.350464	34.229085
1408	1.4080e+000	111.328125	34.206904
1409	1.4090e+000	110.450745	34.074358
1410	1.4100e+000	109.130859	34.046226
1411	1.4110e+000	107.971191	33.915845
1412	1.4120e+000	106.758118	33.835777
1413	1.4130e+000	105.720520	33.751922
1414	1.4140e+000	104.469299	33.643722
1415	1.4150e+000	103.057861	33.564736
1416	1.4160e+000	102.195740	33.460864
1417	1.4170e+000	100.746155	33.364566
1418	1.4180e+000	99.502563	33.283416
1419	1.4190e+000	98.442078	33.187118
1420	1.4200e+000	96.961975	33.127067
1421	1.4210e+000	95.825195	32.991817
1422	1.4220e+000	94.757080	32.903634
1423	1.4230e+000	93.414307	32.781909
1424	1.4240e+000	92.445374	32.683988
1425	1.4250e+000	91.323853	32.566591
1426	1.4260e+000	90.065002	32.518442
1427	1.4270e+000	88.722229	32.372913
1428	1.4280e+000	87.562561	32.270664
1429	1.4290e+000	86.448669	32.145693
1430	1.4300e+000	85.380554	32.076445
1431	1.4310e+000	84.045410	31.939031
1432	1.4320e+000	82.817078	31.807568
1433	1.4330e+000	81.611633	31.716138
1434	1.4340e+000	80.490112	31.592790
1435	1.4350e+000	78.735352	31.418588
1436	1.4360e+000	78.002930	31.348799
1437	1.4370e+000	76.744080	31.221664
1438	1.4380e+000	75.614929	31.096152
1439	1.4390e+000	74.386597	30.965771
1440	1.4400e+000	73.120117	30.827816
1441	1.4410e+000	72.242737	30.698517
1442	1.4420e+000	70.892334	30.568677
1443	1.4430e+000	69.450378	30.443165
1444	1.4440e+000	68.481445	30.270045
1445	1.4450e+000	66.749573	30.130467
1446	1.4460e+000	66.154480	29.990889
1447	1.4470e+000	64.949036	29.842114
1448	1.4480e+000	63.613892	29.681978
1449	1.4490e+000	62.210083	29.529957
1450	1.4500e+000	61.393738	29.358459
1451	1.4510e+000	60.012817	29.189126
1452	1.4520e+000	58.746338	28.994366
1453	1.4530e+000	57.746887	28.824492
1454	1.4540e+000	56.442261	28.631896
1455	1.4550e+000	55.107117	28.385200
1456	1.4560e+000	54.069519	28.214244
1457	1.4570e+000	52.825928	27.998385
1458	1.4580e+000	51.513672	27.776034
1459	1.4590e+000	50.727844	27.514731
1460	1.4600e+000	49.575806	27.295626
1461	1.4610e+000	47.966003	27.029454
1462	1.4620e+000	47.218323	26.746510
1463	1.4630e+000	45.486450	26.478174
1464	1.4640e+000	44.464111	26.196313
1465	1.4650e+000	43.342590	25.870090
1466	1.4660e+000	41.969299	25.582278
1467	1.4670e+000	40.847778	25.285810
1468	1.4680e+000	39.642334	24.950390
1469	1.4690e+000	38.505554	24.608477
1470	1.4700e+000	37.353516	24.251958
1471	1.4710e+000	36.224365	23.862438
1472	1.4720e+000	34.545898	23.497804
1473	1.4730e+000	33.561707	23.115858
1474	1.4740e+000	32.745361	22.709026
1475	1.4750e+000	31.120300	22.292996
1476	1.4760e+000	29.983521	21.888869
1477	1.4770e+000	29.052734	21.438757
1478	1.4780e+000	27.481079	21.011908
1479	1.4790e+000	26.412964	20.571534
1480	1.4800e+000	25.344849	20.099782
1481	1.4810e+000	24.322510	19.661571
1482	1.4820e+000	22.811890	19.148703
1483	1.4830e+000	21.858215	18.649901
1484	1.4840e+000	20.507813	18.128377
1485	1.4850e+000	19.287109	17.598737
1486	1.4860e+000	18.150330	17.065852
1487	1.4870e+000	16.784668	16.497261
1488	1.4880e+000	15.815735	15.933539
1489	1.4890e+000	14.633179	15.320586
1490	1.4900e+000	12.878418	14.706009
1491	1.4910e+000	12.359619	14.075744
1492	1.4920e+000	10.940552	13.420052
1493	1.4930e+000	9.803772	12.740555
1494	1.4940e+000	8.499146	12.071338
1495	1.4950e+000	7.240295	11.332332
1496	1.4960e+000	6.088257	10.640934
1497	1.4970e+000	4.730225	9.888943
1498	1.4980e+000	3.669739	9.128297
1499	1.4990e+000	2.380371	8.338978
1500	1.5000e+000	1.495361	7.504214
1501	1.5010e+000	0.106812	6.704616
1502	1.5020e+000	-1.052856	5.846589
1503	1.5030e+000	-2.273560	5.017777
1504	1.5040e+000	-3.273010	4.141898
1505	1.5050e+000	-4.753113	3.248165
1506	1.5060e+000	-5.928040	2.337121
1507	1.5070e+000	-7.095337	1.391994
1508	1.5080e+000	-8.102417	0.461473
1509	1.5090e+000	-9.391785	-0.480408
1510	1.5100e+000	-10.391235	-1.445553
1511	1.5110e+000	-11.917114	-2.378778
1512	1.5120e+000	-11.703491	-3.330397
1513	1.5130e+000	-14.129639	-4.269033
1514	1.5140e+000	-15.487671	-5.265555
1515	1.5150e+000	-16.479492	-6.244766
1516	1.5160e+000	-17.745972	-7.193680
1517	1.5170e+000	-18.791199	-8.123118
1518	1.5180e+000	-20.492554	-9.076902
1519	1.5190e+000	-21.484375	-9.974962
1520	1.5200e+000	-23.010254	-10.916844
1521	1.5210e+000	-23.750305	-11.755935
1522	1.5220e+000	-25.009155	-12.636683
1523	1.5230e+000	-26.290894	-13.484431
1524	1.5240e+000	-27.496338	-14.314325
1525	1.5250e+000	-29.037476	-15.126907
1526	1.5260e+000	-29.891968	-15.907571
1527	1.5270e+000	-30.876160	-16.715284
1528	1.5280e+000	-32.112122	-17.436437
1529	1.5290e+000	-33.355713	-18.153263
1530	1.5300e+000	-35.499573	-18.864137
1531	1.5310e+000	-36.003113	-19.566355
1532	1.5320e+000	-37.124634	-20.182555
1533	1.5330e+000	-38.314819	-20.831214
1534	1.5340e+000	-39.672852	-21.456610
1535	1.5350e+000	-40.466309	-22.068481
1536	1.5360e+000	-42.053223	-22.647893
1537	1.5370e+000	-43.098450	-23.175909
1538	1.5380e+000	-44.174194	-23.692023
1539	1.5390e+000	-45.547485	-24.182710
1540	1.5400e+000	-46.691895	-24.664741
1541	1.5410e+000	-47.897339	-25.081312
1542	1.5420e+000	-49.194336	-25.538998
1543	1.5430e+000	-50.323486	-25.941502
1544	1.5440e+000	-51.292419	-26.338055
1545	1.5450e+000	-52.528381	-26.689705
1546	1.5460e+000	-53.756714	-27.017551
1547	1.5470e+000	-55.175781	-27.355136
1548	1.5480e+000	-55.976868	-27.629964
1549	1.5490e+000	-57.731628	-27.948072
1550	1.5500e+000	-58.502197	-28.274836
1551	1.5510e+000	-59.867859	-28.502056
1552	1.5520e+000	-61.218262	-28.760654
1553	1.5530e+000	-62.377930	-28.993825
1554	1.5540e+000	-63.552856	-29.240521
1555	1.5550e+000	-64.308167	-29.419052
1556	1.5560e+000	-66.070557	-29.639239
1557	1.5570e+000	-67.146301	-29.823720
1558	1.5580e+000	-68.527222	-30.009283
1559	1.5590e+000	-69.671631	-30.181862
1560	1.5600e+000	-70.770264	-30.357146
1561	1.5610e+000	-72.242737	-30.525938
1562	1.5620e+000	-73.303223	-30.667139
1563	1.5630e+000	-74.440002	-30.825652
1564	1.5640e+000	-75.988770	-30.966853
1565	1.5650e+000	-76.477051	-31.082627
1566	1.5660e+000	-78.170776	-31.249255
1567	1.5670e+000	-79.315186	-31.360160
1568	1.5680e+000	-80.291748	-31.518132
1569	1.5690e+000	-81.573486	-31.620381
1570	1.5700e+000	-82.542419	-31.736156
1571	1.5710e+000	-83.969116	-31.813519
1572	1.5720e+000	-85.098267	-31.940113
1573	1.5730e+000	-86.166382	-32.074822
1574	1.5740e+000	-87.631226	-32.168956
1575	1.5750e+000	-88.432312	-32.251729
1576	1.5760e+000	-89.996338	-32.351273
1577	1.5770e+000	-91.278076	-32.456768
1578	1.5780e+000	-92.361450	-32.552525
1579	1.5790e+000	-93.635559	-32.638003
1580	1.5800e+000	-94.657898	-32.762974
1581	1.5810e+000	-95.985413	-32.850075
1582	1.5820e+000	-97.160339	-32.927979
1583	1.5830e+000	-98.403931	-33.014539
1584	1.5840e+000	-99.914551	-33.083246
1585	1.5850e+000	-100.654602	-33.194692
1586	1.5860e+000	-101.974487	-33.324532
1587	1.5870e+000	-103.187561	-33.367812
1588	1.5880e+000	-104.484558	-33.458159
1589	1.5890e+000	-105.667114	-33.509554
1590	1.5900e+000	-106.796265	-33.615049
1591	1.5910e+000	-108.001709	-33.702691
1592	1.5920e+000	-108.795166	-33.765988
1593	1.5930e+000	-110.427856	-33.843892
1594	1.5940e+000	-111.495972	-33.921255
1595	1.5950e+000	-112.556458	-34.014848
1596	1.5960e+000	-113.922119	-34.084097
1597	1.5970e+000	-115.272522	-34.163083
1598	1.5980e+000	-116.531372	-34.237200
1599	1.5990e+000	-117.385864	-34.331334
1600	1.6000e+000	-118.698120	-34.415730
1601	1.6010e+000	-119.606018	-34.435206
1602	1.6020e+000	-121.223450	-34.559095
1603	1.6030e+000	-122.329712	-34.618605
1604	1.6040e+000	-123.535156	-34.703001
1605	1.6050e+000	-124.885559	-34.741953
1606	1.6060e+000	-125.762939	-34.862596
1607	1.6070e+000	-127.380371	-34.898302
1608	1.6080e+000	-128.402710	-34.985944
1609	1.6090e+000	-129.516602	-35.050864
1610	1.6100e+000	-130.554199	-35.109292
1611	1.6110e+000	-132.064819	-35.189901
1612	1.6120e+000	-133.010864	-35.246706
1613	1.6130e+000	-134.254456	-35.315954
1614	1.6140e+000	-135.719299	-35.392235
1615	1.6150e+000	-136.520386	-35.427400
1616	1.6160e+000	-137.847900	-35.513960
1617	1.6170e+000	-139.312744	-35.579962
1618	1.6180e+000	-140.144348	-35.652997
1619	1.6190e+000	-141.304016	-35.729278
1620	1.6200e+000	-142.745972	-35.794198
1621	1.6210e+000	-143.775940	-35.859659
1622	1.6220e+000	-145.233154	-35.905103
1623	1.6230e+000	-146.377563	-35.960285
1624	1.6240e+000	-147.415161	-36.029533
1625	1.6250e+000	-148.612976	-36.092289
1626	1.6260e+000	-149.955750	-36.165324
1627	1.6270e+000	-151.046753	-36.236195
1628	1.6280e+000	-152.236938	-36.280016
1629	1.6290e+000	-153.533936	-36.335739
1630	1.6300e+000	-154.846191	-36.389839
1631	1.6310e+000	-155.998230	-36.460170
1632	1.6320e+000	-157.272339	-36.526713
1633	1.6330e+000	-158.248901	-36.566206
1634	1.6340e+000	-159.729004	-36.647897
1635	1.6350e+000	-160.423279	-36.719309
1636	1.6360e+000	-161.689758	-36.766376
1637	1.6370e+000	-163.253784	-36.824263
1638	1.6380e+000	-164.100647	-36.841575
1639	1.6390e+000	-165.351868	-36.948152
1640	1.6400e+000	-166.625977	-37.009285
1641	1.6410e+000	-167.976379	-37.037958
1642	1.6420e+000	-169.105530	-37.120190
1643	1.6430e+000	-170.249939	-37.162929
1644	1.6440e+000	-171.371460	-37.225685
1645	1.6450e+000	-172.767639	-37.271129
1646	1.6460e+000	-173.645020	-37.329557
1647	1.6470e+000	-174.819946	-37.397182
1648	1.6480e+000	-176.216125	-37.469135
1649	1.6490e+000	-177.719116	-37.504300
1650	1.6500e+000	-178.710938	-37.555154
1651	1.6510e+000	-180.007935	-37.593024
1652	1.6520e+000	-181.228638	-37.651452
1653	1.6530e+000	-182.304382	-37.740717
1654	1.6540e+000	-183.532715	-37.773177
1655	1.6550e+000	-184.478760	-37.880836
1656	1.6560e+000	-185.760498	-37.875426
1657	1.6570e+000	-186.904907	-37.933313
1658	1.6580e+000	-188.247681	-37.992282
1659	1.6590e+000	-189.483643	-38.039890
1660	1.6600e+000	-190.895081	-38.102105
1661	1.6610e+000	-191.925049	-38.144844
1662	1.6620e+000	-193.275452	-38.183796
1663	1.6630e+000	-194.206238	-38.243306
1664	1.6640e+000	-195.495605	-38.302275
1665	1.6650e+000	-197.174072	-38.380179
1666	1.6660e+000	-198.036194	-38.403983
1667	1.6670e+000	-199.058533	-38.435902
1668	1.6680e+000	-200.256348	-38.514347
1669	1.6690e+000	-201.438904	-38.548971
1670	1.6700e+000	-202.766418	-38.620383
1671	1.6710e+000	-203.880310	-38.669614
1672	1.6720e+000	-205.490112	-38.723173
1673	1.6730e+000	-207.321167	-38.766994
1674	1.6740e+000	-207.557678	-38.798914
1675	1.6750e+000	-208.297729	-38.844899
1676	1.6760e+000	-209.739685	-38.910360
1677	1.6770e+000	-211.112976	-38.968247
1678	1.6780e+000	-212.394714	-39.034249
1679	1.6790e+000	-213.562012	-39.038036
1680	1.6800e+000	-214.607239	-39.117563
1681	1.6810e+000	-216.102600	-39.145154
1682	1.6820e+000	-217.147827	-39.191139
1683	1.6830e+000	-218.223572	-39.236042
1684	1.6840e+000	-219.657898	-39.270666
1685	1.6850e+000	-220.642090	-39.343701
1686	1.6860e+000	-222.061157	-39.381030
1687	1.6870e+000	-223.190308	-39.444327
1688	1.6880e+000	-224.380493	-39.492476
1689	1.6890e+000	-225.547791	-39.533592
1690	1.6900e+000	-226.791382	-39.580118
1691	1.6910e+000	-227.523804	-39.598512
1692	1.6920e+000	-229.194641	-39.656399
1693	1.6930e+000	-230.262756	-39.719155
1694	1.6940e+000	-231.353760	-39.704548
1695	1.6950e+000	-232.559204	-39.797600
1696	1.6960e+000	-233.886719	-39.823027
1697	1.6970e+000	-235.092163	-39.892275
1698	1.6980e+000	-236.183167	-39.910669
1699	1.6990e+000	-237.503052	-39.969638
1700	1.7000e+000	-239.227295	-40.000475
1701	1.7010e+000	-239.768982	-40.070805
1702	1.7020e+000	-241.394043	-40.124905
1703	1.7030e+000	-242.492676	-40.191989
1704	1.7040e+000	-243.652344	-40.193612
1705	1.7050e+000	-244.842529	-40.218498
1706	1.7060e+000	-246.002197	-40.295320
1707	1.7070e+000	-246.994019	-40.331567
1708	1.7080e+000	-248.512268	-40.367814
1709	1.7090e+000	-249.893188	-40.381880
1710	1.7100e+000	-250.595093	-40.455456
1711	1.7110e+000	-251.823425	-40.514425
1712	1.7120e+000	-252.998352	-40.546885
1713	1.7130e+000	-254.638672	-40.569066
1714	1.7140e+000	-255.523682	-40.633445
1715	1.7150e+000	-256.744385	-40.675102
1716	1.7160e+000	-257.766724	-40.720005
1717	1.7170e+000	-259.277344	-40.726497
1718	1.7180e+000	-260.131836	-40.795204
1719	1.7190e+000	-261.451721	-40.844435
1720	1.7200e+000	-262.931824	-40.883387
1721	1.7210e+000	-263.870239	-40.927749
1722	1.7220e+000	-265.090942	-40.963996
1723	1.7230e+000	-266.464233	-41.020260
1724	1.7240e+000	-267.547607	-41.057048
1725	1.7250e+000	-268.814087	-41.075983
1726	1.7260e+000	-270.133972	-41.119263
1727	1.7270e+000	-271.209717	-41.184184
1728	1.7280e+000	-272.277832	-41.214480
1729	1.7290e+000	-273.818970	-41.197709
1730	1.7300e+000	-274.673462	-41.301040
1731	1.7310e+000	-276.931763	-41.376239
1732	1.7320e+000	-277.130127	-41.377321
1733	1.7330e+000	-278.320313	-41.403289
1734	1.7340e+000	-279.434204	-41.462258
1735	1.7350e+000	-281.059265	-41.512571
1736	1.7360e+000	-282.043457	-41.461176
1737	1.7370e+000	-283.210754	-41.581819
1738	1.7380e+000	-284.362793	-41.614820
1739	1.7390e+000	-285.758972	-41.657018
1740	1.7400e+000	-287.200928	-41.703544
1741	1.7410e+000	-287.994385	-41.725725
1742	1.7420e+000	-289.405823	-41.780907
1743	1.7430e+000	-290.328979	-41.835548
1744	1.7440e+000	-291.679382	-41.866926
1745	1.7450e+000	-292.663574	-41.911288
1746	1.7460e+000	-294.105530	-41.916698
1747	1.7470e+000	-295.532227	-41.972962
1748	1.7480e+000	-296.371460	-42.001094
1749	1.7490e+000	-297.668457	-42.037882
1750	1.7500e+000	-298.873901	-42.100097
1751	1.7510e+000	-300.025940	-42.116868
1752	1.7520e+000	-298.873901	-42.124442
1753	1.7530e+000	-297.760010	-42.094146
1754	1.7540e+000	-296.310425	-42.053571
1755	1.7550e+000	-295.379639	-42.035718
1756	1.7560e+000	-293.930054	-41.935092
1757	1.7570e+000	-292.823792	-41.965388
1758	1.7580e+000	-292.098999	-41.962683
1759	1.7590e+000	-290.382385	-41.892353
1760	1.7600e+000	-289.276123	-41.867467
1761	1.7610e+000	-287.948608	-41.823105
1762	1.7620e+000	-286.560059	-41.780366
1763	1.7630e+000	-285.614014	-41.775497
1764	1.7640e+000	-284.713745	-41.745201
1765	1.7650e+000	-283.248901	-41.746824
1766	1.7660e+000	-282.104492	-41.668379
1767	1.7670e+000	-280.868530	-41.648362
1768	1.7680e+000	-279.441833	-41.622394
1769	1.7690e+000	-278.526306	-41.573163
1770	1.7700e+000	-277.236938	-41.561802
1771	1.7710e+000	-276.000977	-41.516358
1772	1.7720e+000	-274.681091	-41.476865
1773	1.7730e+000	-273.742676	-41.445487
1774	1.7740e+000	-272.277832	-41.427634
1775	1.7750e+000	-271.240234	-41.387600
1776	1.7760e+000	-270.233154	-41.327549
1777	1.7770e+000	-269.851685	-41.379485
1778	1.7780e+000	-267.662048	-41.290220
1779	1.7790e+000	-266.464233	-41.248022
1780	1.7800e+000	-265.129089	-41.248022
1781	1.7810e+000	-264.205933	-41.195545
1782	1.7820e+000	-262.733459	-41.156593
1783	1.7830e+000	-261.199951	-41.088426
1784	1.7840e+000	-260.360718	-41.083557
1785	1.7850e+000	-259.338379	-41.052179
1786	1.7860e+000	-257.446289	-41.001866
1787	1.7870e+000	-256.988525	-40.993210
1788	1.7880e+000	-255.065918	-40.922880
1789	1.7890e+000	-254.226685	-40.921257
1790	1.7900e+000	-253.509521	-40.869321
1791	1.7910e+000	-252.082825	-40.872026
1792	1.7920e+000	-250.640869	-40.810893
1793	1.7930e+000	-249.931335	-40.777892
1794	1.7940e+000	-248.275757	-40.726497
1795	1.7950e+000	-246.795654	-40.718382
1796	1.7960e+000	-245.864868	-40.661577
1797	1.7970e+000	-244.796753	-40.621543
1798	1.7980e+000	-244.415283	-40.618297
1799	1.7990e+000	-242.156982	-40.576640
1800	1.8000e+000	-241.027832	-40.518212
1801	1.8010e+000	-239.685059	-40.474391
1802	1.8020e+000	-238.639832	-40.427324
1803	1.8030e+000	-237.625122	-40.466817
1804	1.8040e+000	-236.366272	-40.377552
1805	1.8050e+000	-235.145569	-40.334813
1806	1.8060e+000	-233.840942	-40.302353
1807	1.8070e+000	-232.513428	-40.260155
1808	1.8080e+000	-231.765747	-40.227154
1809	1.8090e+000	-230.331421	-40.176300
1810	1.8100e+000	-229.026794	-40.136266
1811	1.8110e+000	-228.065491	-40.105429
1812	1.8120e+000	-226.966858	-40.067018
1813	1.8130e+000	-225.296021	-40.033476
1814	1.8140e+000	-224.075317	-39.994524
1815	1.8150e+000	-223.152161	-39.963687
1816	1.8160e+000	-220.985413	-39.852782
1817	1.8170e+000	-220.748901	-39.873881
1818	1.8180e+000	-219.581604	-39.839257
1819	1.8190e+000	-218.177795	-39.799764
1820	1.8200e+000	-217.613220	-39.745664
1821	1.8210e+000	-215.942383	-39.689400
1822	1.8220e+000	-214.668274	-39.686154
1823	1.8230e+000	-213.714600	-39.643415
1824	1.8240e+000	-212.135315	-39.594184
1825	1.8250e+000	-211.097717	-39.575790
1826	1.8260e+000	-209.922791	-39.505460
1827	1.8270e+000	-208.602905	-39.474082
1828	1.8280e+000	-207.504272	-39.445950
1829	1.8290e+000	-206.321716	-39.397260
1830	1.8300e+000	-205.261230	-39.313405
1831	1.8310e+000	-203.910828	-39.298798
1832	1.8320e+000	-202.735901	-39.276076
1833	1.8330e+000	-201.843262	-39.244157
1834	1.8340e+000	-200.393677	-39.224681
1835	1.8350e+000	-199.058533	-39.137039
1836	1.8360e+000	-198.287964	-39.089972
1837	1.8370e+000	-196.784973	-39.076988
1838	1.8380e+000	-195.541382	-39.038036
1839	1.8390e+000	-194.717407	-38.996379
1840	1.8400e+000	-193.092346	-38.947148
1841	1.8410e+000	-191.780090	-38.885474
1842	1.8420e+000	-190.162659	-38.853555
1843	1.8430e+000	-189.521790	-38.779979
1844	1.8440e+000	-188.186646	-38.748600
1845	1.8450e+000	-186.851501	-38.743190
1846	1.8460e+000	-185.974121	-38.686385
1847	1.8470e+000	-184.570313	-38.632826
1848	1.8480e+000	-183.609009	-38.578726
1849	1.8490e+000	-182.083130	-38.543020
1850	1.8500e+000	-181.137085	-38.526790
1851	1.8510e+000	-179.664612	-38.455378
1852	1.8520e+000	-179.229736	-38.427787
1853	1.8530e+000	-177.749634	-38.356916
1854	1.8540e+000	-175.415039	-38.282258
1855	1.8550e+000	-175.216675	-38.289832
1856	1.8560e+000	-173.957825	-38.216797
1857	1.8570e+000	-172.576904	-38.195157
1858	1.8580e+000	-171.401978	-38.132942
1859	1.8590e+000	-170.272827	-38.072891
1860	1.8600e+000	-169.052124	-38.062071
1861	1.8610e+000	-168.037415	-37.974970
1862	1.8620e+000	-166.679382	-37.967937
1863	1.8630e+000	-165.298462	-37.905722
1864	1.8640e+000	-164.634705	-37.856491
1865	1.8650e+000	-163.055420	-37.794817
1866	1.8660e+000	-161.621094	-37.699060
1867	1.8670e+000	-160.919189	-37.714208
1868	1.8680e+000	-159.492493	-37.666600
1869	1.8690e+000	-158.172607	-37.600598
1870	1.8700e+000	-157.371521	-37.551908
1871	1.8710e+000	-155.967712	-37.509710
1872	1.8720e+000	-154.762268	-37.466430
1873	1.8730e+000	-153.564453	-37.414494
1874	1.8740e+000	-152.130127	-37.367427
1875	1.8750e+000	-151.237488	-37.341459
1876	1.8760e+000	-149.627686	-37.266801
1877	1.8770e+000	-148.719788	-37.218111
1878	1.8780e+000	-147.705078	-37.187815
1879	1.8790e+000	-146.446228	-37.124518
1880	1.8800e+000	-145.187378	-37.093140
1881	1.8810e+000	-144.226074	-37.011449
1882	1.8820e+000	-142.875671	-36.978989
1883	1.8830e+000	-141.510010	-36.923807
1884	1.8840e+000	-140.357971	-36.862133
1885	1.8850e+000	-139.587402	-36.813984
1886	1.8860e+000	-137.718201	-36.762589
1887	1.8870e+000	-136.398315	-36.712276
1888	1.8880e+000	-135.414124	-36.646815
1889	1.8890e+000	-134.620667	-36.604617
1890	1.8900e+000	-133.071899	-36.558091
1891	1.8910e+000	-132.049561	-36.490466
1892	1.8920e+000	-130.775452	-36.431497
1893	1.8930e+000	-129.554749	-36.404987
1894	1.8940e+000	-128.410339	-36.323296
1895	1.8950e+000	-127.220154	-36.274606
1896	1.8960e+000	-125.846863	-36.248097
1897	1.8970e+000	-124.916077	-36.233490
1898	1.8980e+000	-123.710632	-36.124749
1899	1.8990e+000	-122.268677	-36.057124
1900	1.9000e+000	-119.911194	-35.951629
1901	1.9010e+000	-119.934082	-35.955957
1902	1.9020e+000	-118.629456	-35.890496
1903	1.9030e+000	-117.630005	-35.825576
1904	1.9040e+000	-116.493225	-35.761738
1905	1.9050e+000	-115.257263	-35.740639
1906	1.9060e+000	-113.906860	-35.674637
1907	1.9070e+000	-113.189697	-35.601061
1908	1.9080e+000	-111.724854	-35.595110
1909	1.9090e+000	-110.214233	-35.473926
1910	1.9100e+000	-109.092712	-35.414957
1911	1.9110e+000	-107.604980	-35.338676
1912	1.9120e+000	-106.826782	-35.297019
1913	1.9130e+000	-105.171204	-35.208836
1914	1.9140e+000	-104.225159	-35.163933
1915	1.9150e+000	-103.279114	-35.129309
1916	1.9160e+000	-102.256775	-35.065471
1917	1.9170e+000	-100.814819	-34.991895
1918	1.9180e+000	-99.700928	-34.924811
1919	1.9190e+000	-98.373413	-34.855563
1920	1.9200e+000	-97.114563	-34.805791
1921	1.9210e+000	-95.977783	-34.740330
1922	1.9220e+000	-94.451904	-34.684607
1923	1.9230e+000	-93.650818	-34.596424
1924	1.9240e+000	-92.376709	-34.508241
1925	1.9250e+000	-91.110229	-34.477404
1926	1.9260e+000	-89.767456	-34.318350
1927	1.9270e+000	-88.958740	-34.365417
1928	1.9280e+000	-87.478638	-34.299956
1929	1.9290e+000	-86.593628	-34.204740
1930	1.9300e+000	-85.006714	-34.133869
1931	1.9310e+000	-83.885193	-34.064620
1932	1.9320e+000	-82.595825	-34.010520
1933	1.9330e+000	-81.527710	-33.939649
1934	1.9340e+000	-80.482483	-33.865532
1935	1.9350e+000	-78.712463	-33.775726
1936	1.9360e+000	-77.873230	-33.734610
1937	1.9370e+000	-76.774597	-33.664280
1938	1.9380e+000	-75.668335	-33.579884
1939	1.9390e+000	-74.363708	-33.500898
1940	1.9400e+000	-73.013306	-33.464651
1941	1.9410e+000	-72.044373	-33.345631
1942	1.9420e+000	-70.610046	-33.286121
1943	1.9430e+000	-69.480896	-33.210922
1944	1.9440e+000	-68.771362	-33.191446
1945	1.9450e+000	-67.184448	-33.042130
1946	1.9460e+000	-65.757751	-32.969095
1947	1.9470e+000	-64.445496	-32.904175
1948	1.9480e+000	-63.438416	-32.813287
1949	1.9490e+000	-62.179565	-32.719694
1950	1.9500e+000	-60.882568	-32.658020
1951	1.9510e+000	-59.844971	-32.584985
1952	1.9520e+000	-58.708191	-32.509786
1953	1.9530e+000	-57.579041	-32.412406
1954	1.9540e+000	-56.472778	-32.322059
1955	1.9550e+000	-55.107117	-32.254434
1956	1.9560e+000	-53.977966	-32.164087
1957	1.9570e+000	-52.528381	-32.046149
1958	1.9580e+000	-51.734924	-32.002328
1959	1.9590e+000	-50.521851	-31.946064
1960	1.9600e+000	-49.018860	-31.808109
1961	1.9610e+000	-47.859192	-31.704777
1962	1.9620e+000	-46.905518	-31.591167
1963	1.9630e+000	-44.952393	-31.525706
1964	1.9640e+000	-44.311523	-31.415342
1965	1.9650e+000	-43.052673	-31.318503
1966	1.9660e+000	-41.893005	-31.246009
1967	1.9670e+000	-40.878296	-31.147006
1968	1.9680e+000	-39.451599	-31.029068
1969	1.9690e+000	-38.192749	-30.934393
1970	1.9700e+000	-37.117004	-30.838095
1971	1.9710e+000	-35.949707	-30.675795
1972	1.9720e+000	-34.858704	-30.639548
1973	1.9730e+000	-33.561707	-30.495642
1974	1.9740e+000	-32.203674	-30.396639
1975	1.9750e+000	-31.097412	-30.272750
1976	1.9760e+000	-29.754639	-30.165091
1977	1.9770e+000	-28.678894	-30.026054
1978	1.9780e+000	-27.450562	-29.924887
1979	1.9790e+000	-26.306152	-29.771243
1980	1.9800e+000	-25.115967	-29.646272
1981	1.9810e+000	-23.979187	-29.541318
1982	1.9820e+000	-22.933960	-29.430413
1983	1.9830e+000	-21.537781	-29.239439
1984	1.9840e+000	-20.210266	-29.093369
1985	1.9850e+000	-19.287109	-28.960824
1986	1.9860e+000	-17.807007	-28.794196
1987	1.9870e+000	-16.647339	-28.619994
1988	1.9880e+000	-15.525818	-28.452825
1989	1.9890e+000	-14.328003	-28.271049
1990	1.9900e+000	-13.130188	-28.090896
1991	1.9910e+000	-11.352539	-27.932383
1992	1.9920e+000	-11.772156	-27.705163
1993	1.9930e+000	-9.559631	-27.456844
1994	1.9940e+000	-8.415222	-27.189590
1995	1.9950e+000	-6.851196	-26.913138
1996	1.9960e+000	-5.981445	-26.704312
1997	1.9970e+000	-4.707336	-26.448419
1998	1.9980e+000	-3.501892	-26.127606
1999	1.9990e+000	-2.311707	-25.823564
2000	2.0000e+000	-0.595093	-25.477324
2001	2.0010e+000	0.106812	-25.164626

Center data before PMax,±Pr and ±Vc Calc.

PMax (µC/cm2):	4.21e+001
Pr (µC/cm2):	6.63e+000
-Pr (µC/cm2):	-2.52e+001
Ec:	4.86e-003
-Ec:	-8.73e-004
C (Max-Eff) (nF):	1.10e+000
K (Eff):	1.59e+003
Vert. (±Pr) Shift (µC/cm2):	-9.27e+000
Horiz. Shift (±Ec):	1.99e-003
Offset (µC/cm2):	2.17e+001

A (Loop Area - µC/cm2·Volts):	3.89e+003



Hysteresis Version: 5.16.2 - Radiant Technologies, Inc., 1999 - 3/20/18

