»»»»»»»»»»»»»»»»»»»»»»»»»»»»»»»»»»»» Hysteresis ««««««««««««««««««««««««««««««««««««
»»»  Executed Version:	5.16.2
»»»  Vision Version:	5.16.10 (R)
»»»  Vision Compiled:	4/26/18
»»»  Driver Version:	5.16.6
»»»  Windows Version:	Windows 8
»»»  Processor Information:	x86 (AMD or Intel) - 8 Processors
»»»  Tester Name:	PPM21016-863
»»»  Tester S/N:	PPM21016-863
»»»  Internal Amp Type:	 RTI ML200V    
»»»  Internal Amp S/N:	 iAB2-0000     
»»»  Execution Count:	1
»»»»»»»»»»»»»»»»»»»»»»»»»»»»»»»»»»»»»»»»»»««««««««««««««««««««««««««««««««««««««««««

Stored:	6/5/2018 - 6:9:57
Configured:	06/05/18 05:57:41 AM
Executed:	06/05/18 06:09:36 AM

»»»»»»»»»»»»»»»»»»»»»»»»»»»»»»»»»»» Sample Info ««««««««««««««««««««««««««««««««««««
Sample Name:	Internal Reference Cap.
Lot Name:	N/A
Wafer Name:	N/A
Die Row/Column:	0/0
Capacitor Number:	0
Sample Area (cm2):	6.20e-005
Sample Thickness (µm):	1.00e-001

Mux Loop Adjustment:	Disabled

Amplifier:	Internal

»»»»»»»»»»»»»»»»»»»»»»»»»»»»»»»»»»» Tester Info «««««««««««««««««««««««««««««««««««
Tester Name:	PPM21016-863
Tester Serial Number:	PPM21016-863
Return Signal Amp. Level:	0.19 [Index: 3]

»»»»»»»»»»»»»»»»»»»»»»»»»»»»»»»» Hysteresis Info ««««««««««««««««««««««««««««««««««
Task Name:	Hyst-1
Volts:	3.00
Field:	300.00 (kV/cm)
Hysteresis Period (ms):	2.00e+000
Preset:	Enabled
Preset Delay (ms):	1.00e+003
Profile:	Double Bipolar

»»»»»»»»»»»»»»»»»»»»»»»»»»»»»»»»»»»»»» Data «««««««««««««««««««««««««««««««««««««««
Points:	2001

Valid Data

Point	Time (ms)	Field (kV/cm)	Measured Polarization
   1	1.0000e-003	20.347595	-41.328061
   2	2.0000e-003	21.530151	-41.405733
   3	3.0000e-003	22.727966	-41.341006
   4	4.0000e-003	23.849487	-41.166244
   5	5.0000e-003	25.123596	-41.140353
   6	6.0000e-003	26.298523	-41.133881
   7	7.0000e-003	27.610779	-41.146826
   8	8.0000e-003	28.640747	-41.179189
   9	9.0000e-003	29.823303	-41.120935
  10	1.0000e-002	31.143188	-41.017372
  11	1.1000e-002	32.135010	-40.823192
  12	1.2000e-002	33.523560	-40.887919
  13	1.3000e-002	34.683228	-40.713156
  14	1.4000e-002	35.903931	-40.874973
  15	1.5000e-002	37.117004	-40.544867
  16	1.6000e-002	38.208008	-40.538394
  17	1.7000e-002	39.474487	-40.415413
  18	1.8000e-002	40.657043	-40.298905
  19	1.9000e-002	41.809082	-40.137088
  20	2.0000e-002	43.052673	-39.994689
  21	2.1000e-002	44.311523	-39.942908
  22	2.2000e-002	45.578003	-39.781091
  23	2.3000e-002	46.867371	-39.819927
  24	2.4000e-002	47.859192	-39.606328
  25	2.5000e-002	49.026489	-39.217967
  26	2.6000e-002	50.125122	-38.939642
  27	2.7000e-002	51.445007	-38.823134
  28	2.8000e-002	52.566528	-38.641899
  29	2.9000e-002	53.771973	-38.208229
  30	3.0000e-002	55.023193	-38.111139
  31	3.1000e-002	56.373596	-37.761614
  32	3.2000e-002	57.441711	-37.450926
  33	3.3000e-002	58.578491	-37.172601
  34	3.4000e-002	59.722900	-36.810130
  35	3.5000e-002	60.981750	-36.395879
  36	3.6000e-002	62.141418	-36.007518
  37	3.7000e-002	63.407898	-35.554431
  38	3.8000e-002	64.537048	-34.965417
  39	3.9000e-002	65.719604	-34.460548
  40	4.0000e-002	67.138672	-33.942733
  41	4.1000e-002	68.153381	-33.353719
  42	4.2000e-002	69.320679	-32.758233
  43	4.3000e-002	70.541382	-32.065656
  44	4.4000e-002	71.655273	-31.243626
  45	4.5000e-002	72.807312	-30.350396
  46	4.6000e-002	74.165344	-29.631928
  47	4.7000e-002	75.256348	-28.771062
  48	4.8000e-002	76.629639	-27.728961
  49	4.9000e-002	77.690125	-26.732168
  50	5.0000e-002	78.834534	-25.767739
  51	5.1000e-002	79.940796	-24.609129
  52	5.2000e-002	81.382751	-23.405210
  53	5.3000e-002	82.450867	-21.994166
  54	5.4000e-002	83.656311	-20.757884
  55	5.5000e-002	84.907532	-19.443930
  56	5.6000e-002	86.082458	-18.039359
  57	5.7000e-002	87.234497	-16.460025
  58	5.8000e-002	88.249207	-14.997199
  59	5.9000e-002	89.630127	-13.281939
  60	6.0000e-002	91.018677	-11.864422
  61	6.1000e-002	92.048645	-10.077963
  62	6.2000e-002	93.284607	-8.466265
  63	6.3000e-002	94.497681	-6.595661
  64	6.4000e-002	95.581055	-4.796256
  65	6.5000e-002	96.626282	-2.977433
  66	6.6000e-002	97.946167	-1.165082
  67	6.7000e-002	99.021912	0.731413
  68	6.8000e-002	100.311279	2.485509
  69	6.9000e-002	101.692200	4.239605
  70	7.0000e-002	102.798462	6.058428
  71	7.1000e-002	103.912354	7.812525
  72	7.2000e-002	105.216980	9.514839
  73	7.3000e-002	106.330872	11.217154
  74	7.4000e-002	107.551575	12.673507
  75	7.5000e-002	108.871460	14.311095
  76	7.6000e-002	109.962463	15.625049
  77	7.7000e-002	111.358643	16.997257
  78	7.8000e-002	112.541199	18.291793
  79	7.9000e-002	113.731384	19.482766
  80	8.0000e-002	114.860535	20.570177
  81	8.1000e-002	116.012573	21.502243
  82	8.2000e-002	117.492676	22.744997
  83	8.3000e-002	118.659973	23.579973
  84	8.4000e-002	119.750977	24.738582
  85	8.5000e-002	120.826721	25.599449
  86	8.6000e-002	121.986389	26.479733
  87	8.7000e-002	123.405457	27.308236
  88	8.8000e-002	124.603271	27.974922
  89	8.9000e-002	125.610352	29.140005
  90	9.0000e-002	127.082825	29.974981
  91	9.1000e-002	128.150940	30.907046
  92	9.2000e-002	129.302979	31.528424
  93	9.3000e-002	130.630493	32.454017
  94	9.4000e-002	131.683350	33.075394
  95	9.5000e-002	133.079529	34.046296
  96	9.6000e-002	134.155273	34.492911
  97	9.7000e-002	135.162354	35.386141
  98	9.8000e-002	136.398315	35.891010
  99	9.9000e-002	137.771606	36.615950
 100	1.0000e-001	138.900757	37.276163
 101	1.0100e-001	140.098572	37.929904
 102	1.0200e-001	141.426086	38.434773
 103	1.0300e-001	142.608643	39.017314
 104	1.0400e-001	143.989563	39.612801
 105	1.0500e-001	145.027161	40.052943
 106	1.0600e-001	146.186829	40.590176
 107	1.0700e-001	147.438049	41.088572
 108	1.0800e-001	148.666382	41.561077
 109	1.0900e-001	149.856567	41.845875
 110	1.1000e-001	151.100159	42.357217
 111	1.1100e-001	152.282715	42.706742
 112	1.1200e-001	153.457642	43.056267
 113	1.1300e-001	154.502869	43.444627
 114	1.1400e-001	155.876160	43.684116
 115	1.1500e-001	156.982422	43.962442
 116	1.1600e-001	158.432007	44.506147
 117	1.1700e-001	159.431458	44.603237
 118	1.1800e-001	160.629272	44.959234
 119	1.1900e-001	161.880493	45.101633
 120	1.2000e-001	163.032532	45.379959
 121	1.2100e-001	164.314270	45.612975
 122	1.2200e-001	165.435791	45.904246
 123	1.2300e-001	166.557312	46.085481
 124	1.2400e-001	167.816162	46.176098
 125	1.2500e-001	169.036865	46.363806
 126	1.2600e-001	170.150757	46.447951
 127	1.2700e-001	171.676636	46.609768
 128	1.2800e-001	172.584534	46.862202
 129	1.2900e-001	173.805237	47.043437
 130	1.3000e-001	175.025940	47.101691
 131	1.3100e-001	176.139832	47.295872
 132	1.3200e-001	177.513123	47.334708
 133	1.3300e-001	178.596497	47.580670
 134	1.3400e-001	179.878235	47.645397
 135	1.3500e-001	181.159973	47.891358
 136	1.3600e-001	182.228088	47.858995
 137	1.3700e-001	183.425903	47.910776
 138	1.3800e-001	184.738159	47.994921
 139	1.3900e-001	185.852051	48.182629
 140	1.4000e-001	187.065125	48.337973
 141	1.4100e-001	188.323975	48.318555
 142	1.4200e-001	189.353943	48.525681
 143	1.4300e-001	190.689087	48.538626
 144	1.4400e-001	191.932678	48.946405
 145	1.4500e-001	193.077087	48.668080
 146	1.4600e-001	194.190979	48.797534
 147	1.4700e-001	195.411682	48.739279
 148	1.4800e-001	196.670532	48.998187
 149	1.4900e-001	197.792053	48.939933
 150	1.5000e-001	199.073792	49.030550
 151	1.5100e-001	200.202942	49.043495
 152	1.5200e-001	201.461792	49.147058
 153	1.5300e-001	202.697754	49.263567
 154	1.5400e-001	203.903198	49.334766
 155	1.5500e-001	205.001831	49.438329
 156	1.5600e-001	206.298828	49.470692
 157	1.5700e-001	207.435608	49.729599
 158	1.5800e-001	208.580017	49.554837
 159	1.5900e-001	209.823608	49.761963
 160	1.6000e-001	211.051941	49.800799
 161	1.6100e-001	212.402344	49.839635
 162	1.6200e-001	213.546753	49.820217
 163	1.6300e-001	214.645386	49.943198
 164	1.6400e-001	215.850830	49.962616
 165	1.6500e-001	217.109680	50.182687
 166	1.6600e-001	218.254089	50.182687
 167	1.6700e-001	219.612122	50.370395
 168	1.6800e-001	220.756531	50.247414
 169	1.6900e-001	221.916199	50.473958
 170	1.7000e-001	223.106384	50.299195
 171	1.7100e-001	224.243164	50.486903
 172	1.7200e-001	225.326538	50.448067
 173	1.7300e-001	226.669312	50.545157
 174	1.7400e-001	227.951050	50.687556
 175	1.7500e-001	229.103088	50.564575
 176	1.7600e-001	230.125427	50.745810
 177	1.7700e-001	231.437683	50.745810
 178	1.7800e-001	232.711792	50.939991
 179	1.7900e-001	233.833313	50.862318
 180	1.8000e-001	235.137939	50.933518
 181	1.8100e-001	236.259460	51.283043
 182	1.8200e-001	237.457275	51.114753
 183	1.8300e-001	238.792419	51.321879
 184	1.8400e-001	239.967346	51.127698
 185	1.8500e-001	241.180420	51.244207
 186	1.8600e-001	242.195129	51.444860
 187	1.8700e-001	243.553162	51.380133
 188	1.8800e-001	244.689941	51.302461
 189	1.8900e-001	245.857239	51.470750
 190	1.9000e-001	247.222900	51.496641
 191	1.9100e-001	248.397827	51.574313
 192	1.9200e-001	249.458313	51.477223
 193	1.9300e-001	250.633240	51.535477
 194	1.9400e-001	251.770020	51.496641
 195	1.9500e-001	252.975464	51.658458
 196	1.9600e-001	254.280090	51.703767
 197	1.9700e-001	255.302429	51.878529
 198	1.9800e-001	256.576538	51.742603
 199	1.9900e-001	257.614136	51.807330
 200	2.0000e-001	259.170532	52.027401
 201	2.0100e-001	260.284424	51.897947
 202	2.0200e-001	261.459351	52.072710
 203	2.0300e-001	262.641907	52.098600
 204	2.0400e-001	263.870239	52.118018
 205	2.0500e-001	264.991760	52.130964
 206	2.0600e-001	266.044617	52.208636
 207	2.0700e-001	267.448425	52.240999
 208	2.0800e-001	268.646240	52.266890
 209	2.0900e-001	269.859314	52.396344
 210	2.1000e-001	271.118164	52.454598
 211	2.1100e-001	272.178650	52.389871
 212	2.1200e-001	273.384094	52.545215
 213	2.1300e-001	274.703979	52.616415
 214	2.1400e-001	275.779724	52.590524
 215	2.1500e-001	276.847839	52.694087
 216	2.1600e-001	278.251648	52.603469
 217	2.1700e-001	279.243469	52.700560
 218	2.1800e-001	280.639648	52.415762
 219	2.1900e-001	281.791687	52.836486
 220	2.2000e-001	283.073425	52.745868
 221	2.2100e-001	284.194946	52.914158
 222	2.2200e-001	285.453796	52.849431
 223	2.2300e-001	286.552429	52.952994
 224	2.2400e-001	287.834167	53.082448
 225	2.2500e-001	289.100647	53.224847
 226	2.2600e-001	290.359497	53.257210
 227	2.2700e-001	291.481018	53.438445
 228	2.2800e-001	292.739868	53.224847
 229	2.2900e-001	293.861389	53.296046
 230	2.3000e-001	295.036316	53.406082
 231	2.3100e-001	296.295166	53.198956
 232	2.3200e-001	297.416687	53.347828
 233	2.3300e-001	298.606873	53.360773
 234	2.3400e-001	299.789429	53.619680
 235	2.3500e-001	300.994873	53.393136
 236	2.3600e-001	302.314758	53.619680
 237	2.3700e-001	303.413391	53.406082
 238	2.3800e-001	304.710388	53.710298
 239	2.3900e-001	305.824280	53.567899
 240	2.4000e-001	307.060242	53.710298
 241	2.4100e-001	308.158875	53.742661
 242	2.4200e-001	309.623718	53.904478
 243	2.4300e-001	310.791016	53.936841
 244	2.4400e-001	311.820984	53.910951
 245	2.4500e-001	312.904358	53.859169
 246	2.4600e-001	314.254761	54.169858
 247	2.4700e-001	315.620422	54.118076
 248	2.4800e-001	316.757202	53.956259
 249	2.4900e-001	317.878723	54.027459
 250	2.5000e-001	318.916321	54.098658
 251	2.5100e-001	320.358276	53.988623
 252	2.5200e-001	319.351196	54.014514
 253	2.5300e-001	318.092346	54.131022
 254	2.5400e-001	316.955566	53.995096
 255	2.5500e-001	316.146851	54.066295
 256	2.5600e-001	314.537048	53.872115
 257	2.5700e-001	313.240051	54.098658
 258	2.5800e-001	312.187195	53.962732
 259	2.5900e-001	310.615540	53.852697
 260	2.6000e-001	309.837341	53.833279
 261	2.6100e-001	308.448792	53.910951
 262	2.6200e-001	307.228088	53.561426
 263	2.6300e-001	306.022644	53.781497
 264	2.6400e-001	304.870605	53.664989
 265	2.6500e-001	303.657532	53.839751
 266	2.6600e-001	302.505493	53.671462
 267	2.6700e-001	301.307678	53.522590
 268	2.6800e-001	300.163269	53.639098
 269	2.6900e-001	298.904419	53.613207
 270	2.7000e-001	297.714233	53.639098
 271	2.7100e-001	296.562195	53.613207
 272	2.7200e-001	295.349121	53.535535
 273	2.7300e-001	294.181824	53.516117
 274	2.7400e-001	292.778015	53.464336
 275	2.7500e-001	291.633606	53.470808
 276	2.7600e-001	290.557861	53.503172
 277	2.7700e-001	289.253235	53.192483
 278	2.7800e-001	288.070679	53.393136
 279	2.7900e-001	287.025452	53.257210
 280	2.8000e-001	285.621643	53.373718
 281	2.8100e-001	284.484863	53.276628
 282	2.8200e-001	283.241272	53.276628
 283	2.8300e-001	282.127380	53.250737
 284	2.8400e-001	280.845642	53.218374
 285	2.8500e-001	279.693604	53.205429
 286	2.8600e-001	278.602600	53.186011
 287	2.8700e-001	277.328491	53.050084
 288	2.8800e-001	276.069641	53.017721
 289	2.8900e-001	274.986267	53.166593
 290	2.9000e-001	273.704529	53.004776
 291	2.9100e-001	272.514343	53.017721
 292	2.9200e-001	271.400452	53.166593
 293	2.9300e-001	270.217896	52.927103
 294	2.9400e-001	268.989563	52.855904
 295	2.9500e-001	267.730713	52.920631
 296	2.9600e-001	266.502380	52.778232
 297	2.9700e-001	265.205383	52.784704
 298	2.9800e-001	263.931274	52.694087
 299	2.9900e-001	262.908936	52.752341
 300	3.0000e-001	261.741638	52.687614
 301	3.0100e-001	260.658264	52.441652
 302	3.0200e-001	259.414673	52.590524
 303	3.0300e-001	258.003235	52.648778
 304	3.0400e-001	256.996155	52.635833
 305	3.0500e-001	255.805969	52.596997
 306	3.0600e-001	254.547119	52.415762
 307	3.0700e-001	253.257751	52.512852
 308	3.0800e-001	251.930237	52.363980
 309	3.0900e-001	250.877380	52.357508
 310	3.1000e-001	249.931335	52.538743
 311	3.1100e-001	248.558044	52.176272
 312	3.1200e-001	247.421265	52.318671
 313	3.1300e-001	246.086121	52.163327
 314	3.1400e-001	244.804382	52.253945
 315	3.1500e-001	243.835449	52.124491
 316	3.1600e-001	242.500305	52.046819
 317	3.1700e-001	241.233826	52.079182
 318	3.1800e-001	240.097046	52.202163
 319	3.1900e-001	238.868713	52.079182
 320	3.2000e-001	237.693787	52.001510
 321	3.2100e-001	236.328125	51.865584
 322	3.2200e-001	235.359192	51.872057
 323	3.2300e-001	234.100342	51.995037
 324	3.2400e-001	232.841492	51.897947
 325	3.2500e-001	231.697083	52.007983
 326	3.2600e-001	230.598450	51.755548
 327	3.2700e-001	229.293823	51.710240
 328	3.2800e-001	228.096008	51.865584
 329	3.2900e-001	226.966858	51.774966
 330	3.3000e-001	225.715637	51.690821
 331	3.3100e-001	224.586487	51.632567
 332	3.3200e-001	223.365784	51.522532
 333	3.3300e-001	222.137451	51.684349
 334	3.3400e-001	220.939636	51.529004
 335	3.3500e-001	219.825745	51.431914
 336	3.3600e-001	218.513489	51.451332
 337	3.3700e-001	217.338562	51.470750
 338	3.3800e-001	216.049194	51.334824
 339	3.3900e-001	214.942932	51.451332
 340	3.4000e-001	213.768005	51.386606
 341	3.4100e-001	212.615967	51.315406
 342	3.4200e-001	211.410522	51.224789
 343	3.4300e-001	210.212708	51.250679
 344	3.4400e-001	208.969116	51.127698
 345	3.4500e-001	207.572937	51.237734
 346	3.4600e-001	206.527710	51.056499
 347	3.4700e-001	205.047607	50.901155
 348	3.4800e-001	204.139709	50.985299
 349	3.4900e-001	202.857971	50.855846
 350	3.5000e-001	201.713562	50.849373
 351	3.5100e-001	200.546265	50.894682
 352	3.5200e-001	199.317932	50.875264
 353	3.5300e-001	198.089600	50.972354
 354	3.5400e-001	196.990967	50.739338
 355	3.5500e-001	195.899963	50.881737
 356	3.5600e-001	194.587708	50.706974
 357	3.5700e-001	193.405151	50.642247
 358	3.5800e-001	192.276001	50.661665
 359	3.5900e-001	191.009521	50.694029
 360	3.6000e-001	189.842224	50.538684
 361	3.6100e-001	188.575745	50.545157
 362	3.6200e-001	187.507629	50.538684
 363	3.6300e-001	186.126709	50.305668
 364	3.6400e-001	185.028076	50.357449
 365	3.6500e-001	183.815002	50.286250
 366	3.6600e-001	182.525635	50.124433
 367	3.6700e-001	181.427002	50.227996
 368	3.6800e-001	180.328369	50.260359
 369	3.6900e-001	178.802490	50.137378
 370	3.7000e-001	177.848816	50.137378
 371	3.7100e-001	176.612854	50.105015
 372	3.7200e-001	175.300598	49.884944
 373	3.7300e-001	174.079895	50.059706
 374	3.7400e-001	173.004150	49.768436
 375	3.7500e-001	171.897888	50.014397
 376	3.7600e-001	170.707703	49.852580
 377	3.7700e-001	169.494629	49.833162
 378	3.7800e-001	167.999268	49.677818
 379	3.7900e-001	167.030334	49.723127
 380	3.8000e-001	165.763855	49.645455
 381	3.8100e-001	164.573669	49.664873
 382	3.8200e-001	163.269043	49.613091
 383	3.8300e-001	162.170410	49.600146
 384	3.8400e-001	160.827637	49.910835
 385	3.8500e-001	159.713745	49.418911
 386	3.8600e-001	158.668518	49.405965
 387	3.8700e-001	157.402039	49.464220
 388	3.8800e-001	156.181335	49.302403
 389	3.8900e-001	154.777527	49.231203
 390	3.9000e-001	153.800964	49.056441
 391	3.9100e-001	152.549744	49.127640
 392	3.9200e-001	151.405334	49.004659
 393	3.9300e-001	150.100708	49.056441
 394	3.9400e-001	148.963928	49.114695
 395	3.9500e-001	147.705078	48.998187
 396	3.9600e-001	146.530151	49.043495
 397	3.9700e-001	145.378113	48.952878
 398	3.9800e-001	144.317627	48.914042
 399	3.9900e-001	142.883301	48.791061
 400	4.0000e-001	141.799927	48.894624
 401	4.0100e-001	140.510559	48.700443
 402	4.0200e-001	139.442444	48.706916
 403	4.0300e-001	138.237000	48.616299
 404	4.0400e-001	136.917114	48.596881
 405	4.0500e-001	135.726929	48.266774
 406	4.0600e-001	134.651184	48.350919
 407	4.0700e-001	133.354187	48.286192
 408	4.0800e-001	132.110596	48.409173
 409	4.0900e-001	130.897522	48.415645
 410	4.1000e-001	129.798889	48.182629
 411	4.1100e-001	128.532410	48.214992
 412	4.1200e-001	127.395630	48.169684
 413	4.1300e-001	126.167297	48.072593
 414	4.1400e-001	124.969482	47.988449
 415	4.1500e-001	123.664856	47.994921
 416	4.1600e-001	122.535706	47.981976
 417	4.1700e-001	121.284485	47.813686
 418	4.1800e-001	119.956970	47.781323
 419	4.1900e-001	118.927002	47.710123
 420	4.2000e-001	117.637634	47.755432
 421	4.2100e-001	116.493225	47.962558
 422	4.2200e-001	115.264893	47.833104
 423	4.2300e-001	114.204407	47.528888
 424	4.2400e-001	112.922668	47.483580
 425	4.2500e-001	111.747742	47.205254
 426	4.2600e-001	110.481262	47.444743
 427	4.2700e-001	109.352112	47.380017
 428	4.2800e-001	108.215332	47.237618
 429	4.2900e-001	107.009888	47.147000
 430	4.3000e-001	105.865479	47.237618
 431	4.3100e-001	104.560852	47.024019
 432	4.3200e-001	103.256226	47.088746
 433	4.3300e-001	102.149963	46.836312
 434	4.3400e-001	100.891113	46.888093
 435	4.3500e-001	99.868774	47.101691
 436	4.3600e-001	98.602295	46.816894
 437	4.3700e-001	97.312927	46.745694
 438	4.3800e-001	96.130371	46.732749
 439	4.3900e-001	94.871521	46.693913
 440	4.4000e-001	93.734741	46.499732
 441	4.4100e-001	92.521667	46.551514
 442	4.4200e-001	91.354370	46.506205
 443	4.4300e-001	90.164185	46.383224
 444	4.4400e-001	88.958740	46.299079
 445	4.4500e-001	87.852478	46.260243
 446	4.4600e-001	86.578369	46.046645
 447	4.4700e-001	85.472107	46.072535
 448	4.4800e-001	84.205627	45.956027
 449	4.4900e-001	82.908630	45.897773
 450	4.5000e-001	81.779480	45.949554
 451	4.5100e-001	80.642700	45.891300
 452	4.5200e-001	79.368591	45.645338
 453	4.5300e-001	78.079224	45.515885
 454	4.5400e-001	76.988220	45.567666
 455	4.5500e-001	75.675964	45.425267
 456	4.5600e-001	74.638367	45.451158
 457	4.5700e-001	73.394775	45.295814
 458	4.5800e-001	72.326660	44.939816
 459	4.5900e-001	71.060181	45.231087
 460	4.6000e-001	69.816589	45.114579
 461	4.6100e-001	68.458557	45.049852
 462	4.6200e-001	67.306519	45.082215
 463	4.6300e-001	66.139221	44.946289
 464	4.6400e-001	65.032959	44.816835
 465	4.6500e-001	63.728333	44.719745
 466	4.6600e-001	62.568665	44.706800
 467	4.6700e-001	61.470032	44.590292
 468	4.6800e-001	59.967041	44.396111
 469	4.6900e-001	58.921814	44.247240
 470	4.7000e-001	57.739258	44.195458
 471	4.7100e-001	56.587219	44.098368
 472	4.7200e-001	55.374146	43.994805
 473	4.7300e-001	53.894043	43.936551
 474	4.7400e-001	52.925110	43.904188
 475	4.7500e-001	51.750183	43.858879
 476	4.7600e-001	50.674438	43.599972
 477	4.7700e-001	49.301147	43.580554
 478	4.7800e-001	48.080444	43.418737
 479	4.7900e-001	47.012329	43.341064
 480	4.8000e-001	45.761108	43.146884
 481	4.8100e-001	44.601440	42.998012
 482	4.8200e-001	43.273926	42.952704
 483	4.8300e-001	42.091370	42.946231
 484	4.8400e-001	41.015625	42.797359
 485	4.8500e-001	39.772034	42.603179
 486	4.8600e-001	38.551331	42.298963
 487	4.8700e-001	37.437439	42.376635
 488	4.8800e-001	36.216736	42.156564
 489	4.8900e-001	34.912109	42.053001
 490	4.9000e-001	33.859253	41.671113
 491	4.9100e-001	32.745361	41.787621
 492	4.9200e-001	31.250000	41.463987
 493	4.9300e-001	30.342102	41.366897
 494	4.9400e-001	28.968811	41.140353
 495	4.9500e-001	27.893066	40.667848
 496	4.9600e-001	26.741028	40.700211
 497	4.9700e-001	25.390625	40.460722
 498	4.9800e-001	24.070740	40.311850
 499	4.9900e-001	22.956848	40.033525
 500	5.0000e-001	21.896362	39.826399
 501	5.0100e-001	20.484924	39.567492
 502	5.0200e-001	19.477844	39.399202
 503	5.0300e-001	18.371582	38.913751
 504	5.0400e-001	17.105103	38.887861
 505	5.0500e-001	15.945435	38.460664
 506	5.0600e-001	14.778137	38.240593
 507	5.0700e-001	13.580322	37.897541
 508	5.0800e-001	12.390137	37.386199
 509	5.0900e-001	11.222839	37.276163
 510	5.1000e-001	9.811401	36.797185
 511	5.1100e-001	8.750916	36.674204
 512	5.1200e-001	7.453918	36.026936
 513	5.1300e-001	6.217957	35.580321
 514	5.1400e-001	5.119324	35.172542
 515	5.1500e-001	3.952026	34.887745
 516	5.1600e-001	2.708435	34.305203
 517	5.1700e-001	1.495361	33.981569
 518	5.1800e-001	0.251770	33.386083
 519	5.1900e-001	-0.984192	33.030085
 520	5.2000e-001	-2.159119	32.499326
 521	5.2100e-001	-3.265381	31.865003
 522	5.2200e-001	-4.570007	31.424861
 523	5.2300e-001	-5.699158	30.596358
 524	5.2400e-001	-6.927490	30.162688
 525	5.2500e-001	-7.896423	29.670765
 526	5.2600e-001	-9.078979	29.036442
 527	5.2700e-001	-10.513306	28.240302
 528	5.2800e-001	-11.817932	27.664234
 529	5.2900e-001	-12.878418	26.855149
 530	5.3000e-001	-13.870239	26.181990
 531	5.3100e-001	-15.205383	25.431159
 532	5.3200e-001	-16.616821	24.635020
 533	5.3300e-001	-17.570496	23.832407
 534	5.3400e-001	-18.898010	23.088049
 535	5.3500e-001	-19.958496	22.130092
 536	5.3600e-001	-21.133423	21.321008
 537	5.3700e-001	-22.583008	20.285379
 538	5.3800e-001	-23.567200	19.282113
 539	5.3900e-001	-24.879456	18.214121
 540	5.4000e-001	-26.062012	17.256165
 541	5.4100e-001	-27.206421	16.168754
 542	5.4200e-001	-28.541565	14.997199
 543	5.4300e-001	-29.708862	14.019825
 544	5.4400e-001	-30.776978	12.815906
 545	5.4500e-001	-31.929016	11.722023
 546	5.4600e-001	-33.325195	10.569886
 547	5.4700e-001	-34.370422	9.417749
 548	5.4800e-001	-35.530090	8.077904
 549	5.4900e-001	-36.880493	6.848095
 550	5.5000e-001	-38.078308	5.618286
 551	5.5100e-001	-39.131165	4.291387
 552	5.5200e-001	-40.359497	3.087468
 553	5.5300e-001	-41.580200	1.941804
 554	5.5400e-001	-42.823792	0.699049
 555	5.5500e-001	-44.067383	-0.621377
 556	5.5600e-001	-45.143127	-1.767042
 557	5.5700e-001	-46.356201	-2.835034
 558	5.5800e-001	-47.683716	-4.213715
 559	5.5900e-001	-48.812866	-5.456469
 560	5.6000e-001	-49.903870	-6.640970
 561	5.6100e-001	-51.239014	-7.883724
 562	5.6200e-001	-52.352905	-9.217096
 563	5.6300e-001	-53.527832	-10.356288
 564	5.6400e-001	-54.832458	-11.754387
 565	5.6500e-001	-55.938721	-12.964778
 566	5.6600e-001	-57.128906	-14.175169
 567	5.6700e-001	-58.532715	-15.553850
 568	5.6800e-001	-59.616089	-16.770714
 569	5.6900e-001	-60.661316	-18.246485
 570	5.7000e-001	-61.882019	-19.301531
 571	5.7100e-001	-63.186646	-20.835557
 572	5.7200e-001	-64.369202	-22.201292
 573	5.7300e-001	-65.589905	-23.554082
 574	5.7400e-001	-66.764832	-24.926290
 575	5.7500e-001	-67.970276	-26.415007
 576	5.7600e-001	-69.038391	-27.897250
 577	5.7700e-001	-70.449829	-29.463639
 578	5.7800e-001	-71.586609	-30.505740
 579	5.7900e-001	-72.937012	-32.318091
 580	5.8000e-001	-74.028015	-33.858588
 581	5.8100e-001	-75.157166	-35.437922
 582	5.8200e-001	-76.225281	-36.751876
 583	5.8300e-001	-77.560425	-38.505973
 584	5.8400e-001	-78.704834	-39.599855
 585	5.8500e-001	-79.818726	-41.030318
 586	5.8600e-001	-81.214905	-42.175982
 587	5.8700e-001	-82.405090	-43.334592
 588	5.8800e-001	-83.663940	-44.130731
 589	5.8900e-001	-84.800720	-44.765054
 590	5.9000e-001	-86.120605	-45.237560
 591	5.9100e-001	-87.188721	-45.606502
 592	5.9200e-001	-88.478088	-45.956027
 593	5.9300e-001	-89.729309	-46.072535
 594	5.9400e-001	-90.972900	-46.350861
 595	5.9500e-001	-92.193604	-46.460896
 596	5.9600e-001	-93.261719	-46.719803
 597	5.9700e-001	-94.551086	-46.797476
 598	5.9800e-001	-95.771790	-46.894566
 599	5.9900e-001	-97.015381	-47.140528
 600	6.0000e-001	-98.167419	-47.121110
 601	6.0100e-001	-99.433899	-47.179364
 602	6.0200e-001	-100.486755	-47.250563
 603	6.0300e-001	-101.715088	-47.308817
 604	6.0400e-001	-102.874756	-47.418853
 605	6.0500e-001	-104.141235	-47.535361
 606	6.0600e-001	-105.407715	-47.981976
 607	6.0700e-001	-106.452942	-47.684233
 608	6.0800e-001	-107.818604	-47.748959
 609	6.0900e-001	-108.879089	-47.781323
 610	6.1000e-001	-110.015869	-47.930194
 611	6.1100e-001	-111.450195	-48.007867
 612	6.1200e-001	-112.648010	-48.150266
 613	6.1300e-001	-113.761902	-48.195574
 614	6.1400e-001	-114.845276	-48.195574
 615	6.1500e-001	-116.165161	-48.214992
 616	6.1600e-001	-117.301941	-48.331501
 617	6.1700e-001	-118.652344	-48.441536
 618	6.1800e-001	-119.812012	-48.499790
 619	6.1900e-001	-120.925903	-48.519208
 620	6.2000e-001	-122.116089	-48.642189
 621	6.2100e-001	-123.390198	-48.583935
 622	6.2200e-001	-124.565125	-48.726334
 623	6.2300e-001	-125.755310	-48.855788
 624	6.2400e-001	-126.960754	-48.797534
 625	6.2500e-001	-128.143311	-48.881678
 626	6.2600e-001	-129.234314	-48.998187
 627	6.2700e-001	-130.638123	-48.998187
 628	6.2800e-001	-131.660461	-49.037023
 629	6.2900e-001	-133.010864	-48.933460
 630	6.3000e-001	-134.071350	-49.140586
 631	6.3100e-001	-135.353088	-49.166476
 632	6.3200e-001	-136.787415	-49.308875
 633	6.3300e-001	-137.710571	-49.250621
 634	6.3400e-001	-138.847351	-49.282985
 635	6.3500e-001	-140.106201	-49.367129
 636	6.3600e-001	-141.311646	-49.405965
 637	6.3700e-001	-142.601013	-49.516001
 638	6.3800e-001	-143.615723	-49.496583
 639	6.3900e-001	-144.897461	-49.399493
 640	6.4000e-001	-146.118164	-49.677818
 641	6.4100e-001	-147.315979	-49.677818
 642	6.4200e-001	-148.452759	-49.716654
 643	6.4300e-001	-149.749756	-49.651927
 644	6.4400e-001	-150.856018	-49.800799
 645	6.4500e-001	-152.008057	-50.027343
 646	6.4600e-001	-153.427124	-49.923780
 647	6.4700e-001	-154.434204	-50.059706
 648	6.4800e-001	-155.799866	-50.020870
 649	6.4900e-001	-156.951904	-49.936725
 650	6.5000e-001	-158.035278	-50.040288
 651	6.5100e-001	-159.317017	-50.156796
 652	6.5200e-001	-160.354614	-50.331559
 653	6.5300e-001	-161.628723	-50.227996
 654	6.5400e-001	-162.918091	-50.299195
 655	6.5500e-001	-164.093018	-50.279777
 656	6.5600e-001	-165.374756	-50.299195
 657	6.5700e-001	-166.427612	-50.635775
 658	6.5800e-001	-167.640686	-50.532212
 659	6.5900e-001	-168.807983	-50.616357
 660	6.6000e-001	-170.089722	-50.493376
 661	6.6100e-001	-171.302795	-50.558103
 662	6.6200e-001	-172.523499	-50.765228
 663	6.6300e-001	-173.751831	-50.758756
 664	6.6400e-001	-174.987793	-50.745810
 665	6.6500e-001	-176.101685	-50.758756
 666	6.6600e-001	-177.383423	-50.810537
 667	6.6700e-001	-178.512573	-50.862318
 668	6.6800e-001	-179.733276	-50.842900
 669	6.6900e-001	-180.984497	-50.881737
 670	6.7000e-001	-182.098389	-50.965881
 671	6.7100e-001	-183.341980	-51.108280
 672	6.7200e-001	-184.585571	-51.134171
 673	6.7300e-001	-185.668945	-51.062972
 674	6.7400e-001	-186.897278	-51.101808
 675	6.7500e-001	-188.087463	-51.244207
 676	6.7600e-001	-189.170837	-51.302461
 677	6.7700e-001	-190.628052	-51.224789
 678	6.7800e-001	-191.802979	-51.218316
 679	6.7900e-001	-192.962646	-51.360715
 680	6.8000e-001	-193.939209	-51.412496
 681	6.8100e-001	-195.259094	-51.496641
 682	6.8200e-001	-196.495056	-51.483696
 683	6.8300e-001	-197.761536	-51.529004
 684	6.8400e-001	-198.951721	-51.600204
 685	6.8500e-001	-200.172424	-51.690821
 686	6.8600e-001	-201.286316	-51.613149
 687	6.8700e-001	-202.629089	-51.729658
 688	6.8800e-001	-203.666687	-51.677876
 689	6.8900e-001	-204.971313	-51.729658
 690	6.9000e-001	-205.993652	-51.768494
 691	6.9100e-001	-207.389832	-51.794384
 692	6.9200e-001	-208.610535	-51.846166
 693	6.9300e-001	-209.770203	-51.904420
 694	6.9400e-001	-210.990906	-52.105073
 695	6.9500e-001	-212.127686	-51.910893
 696	6.9600e-001	-213.226318	-52.033874
 697	6.9700e-001	-214.591980	-52.105073
 698	6.9800e-001	-215.751648	-52.137436
 699	6.9900e-001	-216.873169	-52.027401
 700	7.0000e-001	-218.223572	-52.208636
 701	7.0100e-001	-219.383240	-52.253945
 702	7.0200e-001	-220.565796	-52.357508
 703	7.0300e-001	-221.725464	-52.143909
 704	7.0400e-001	-222.915649	-52.486961
 705	7.0500e-001	-224.128723	-52.435180
 706	7.0600e-001	-225.250244	-52.486961
 707	7.0700e-001	-226.501465	-52.493434
 708	7.0800e-001	-227.767944	-52.616415
 709	7.0900e-001	-228.996277	-52.648778
 710	7.1000e-001	-230.163574	-52.616415
 711	7.1100e-001	-231.208801	-52.564633
 712	7.1200e-001	-232.604980	-52.571106
 713	7.1300e-001	-233.802795	-52.707032
 714	7.1400e-001	-234.947205	-52.732923
 715	7.1500e-001	-236.061096	-52.661723
 716	7.1600e-001	-237.304688	-52.791177
 717	7.1700e-001	-238.456726	-52.590524
 718	7.1800e-001	-239.616394	-52.855904
 719	7.1900e-001	-240.814209	-52.784704
 720	7.2000e-001	-242.263794	-52.952994
 721	7.2100e-001	-243.431091	-52.998303
 722	7.2200e-001	-244.483948	-53.328410
 723	7.2300e-001	-245.590210	-53.050084
 724	7.2400e-001	-246.856689	-53.043612
 725	7.2500e-001	-248.191833	-53.114811
 726	7.2600e-001	-249.336243	-53.477281
 727	7.2700e-001	-250.518799	-53.186011
 728	7.2800e-001	-251.708984	-53.334882
 729	7.2900e-001	-253.097534	-53.386664
 730	7.3000e-001	-254.203796	-53.380191
 731	7.3100e-001	-255.401611	-53.257210
 732	7.3200e-001	-256.645203	-53.399609
 733	7.3300e-001	-257.682800	-53.438445
 734	7.3400e-001	-258.895874	-53.483754
 735	7.3500e-001	-259.735107	-53.263683
 736	7.3600e-001	-261.383057	-53.684407
 737	7.3700e-001	-262.481689	-53.554953
 738	7.3800e-001	-263.656616	-53.451390
 739	7.3900e-001	-265.228271	-53.723243
 740	7.4000e-001	-266.098022	-53.652043
 741	7.4100e-001	-267.433167	-53.781497
 742	7.4200e-001	-268.463135	-53.762079
 743	7.4300e-001	-269.882202	-53.800915
 744	7.4400e-001	-270.843506	-53.891533
 745	7.4500e-001	-272.331238	-53.813860
 746	7.4600e-001	-273.406982	-53.885060
 747	7.4700e-001	-274.581909	-54.008041
 748	7.4800e-001	-275.810242	-53.995096
 749	7.4900e-001	-276.947021	-54.254003
 750	7.5000e-001	-278.137207	-54.389929
 751	7.5100e-001	-279.449463	-54.163385
 752	7.5200e-001	-278.480530	-54.066295
 753	7.5300e-001	-277.229309	-54.163385
 754	7.5400e-001	-276.245117	-53.975677
 755	7.5500e-001	-274.902344	-54.040404
 756	7.5600e-001	-273.681641	-53.956259
 757	7.5700e-001	-272.529602	-53.923896
 758	7.5800e-001	-271.255493	-53.962732
 759	7.5900e-001	-269.889832	-53.639098
 760	7.6000e-001	-268.745422	-53.872115
 761	7.6100e-001	-267.684937	-53.826806
 762	7.6200e-001	-266.494751	-53.910951
 763	7.6300e-001	-265.472412	-53.542008
 764	7.6400e-001	-264.114380	-53.846224
 765	7.6500e-001	-262.817383	-53.813860
 766	7.6600e-001	-261.779785	-53.755606
 767	7.6700e-001	-260.475159	-53.587317
 768	7.6800e-001	-259.155273	-53.658516
 769	7.6900e-001	-257.995605	-53.632625
 770	7.7000e-001	-256.721497	-53.490226
 771	7.7100e-001	-255.455017	-53.529063
 772	7.7200e-001	-254.501343	-53.639098
 773	7.7300e-001	-253.326416	-53.509645
 774	7.7400e-001	-252.059937	-53.522590
 775	7.7500e-001	-250.923157	-53.431972
 776	7.7600e-001	-249.694824	-53.477281
 777	7.7700e-001	-248.504639	-53.425500
 778	7.7800e-001	-247.230530	-53.328410
 779	7.7900e-001	-246.025085	-53.438445
 780	7.8000e-001	-244.827271	-53.224847
 781	7.8100e-001	-243.537903	-53.186011
 782	7.8200e-001	-242.309570	-53.017721
 783	7.8300e-001	-241.271973	-53.237792
 784	7.8400e-001	-240.089417	-53.186011
 785	7.8500e-001	-238.853455	-53.095393
 786	7.8600e-001	-237.472534	-53.011248
 787	7.8700e-001	-236.457825	-52.894740
 788	7.8800e-001	-235.137939	-53.011248
 789	7.8900e-001	-234.069824	-53.134229
 790	7.9000e-001	-232.978821	-52.842959
 791	7.9100e-001	-231.849670	-53.095393
 792	7.9200e-001	-230.461121	-52.855904
 793	7.9300e-001	-229.217529	-52.823540
 794	7.9400e-001	-228.080750	-52.830013
 795	7.9500e-001	-226.860046	-52.991830
 796	7.9600e-001	-225.700378	-52.558161
 797	7.9700e-001	-224.372864	-52.739396
 798	7.9800e-001	-223.251343	-52.713505
 799	7.9900e-001	-222.068787	-52.655251
 800	8.0000e-001	-220.985413	-52.940049
 801	8.0100e-001	-219.444275	-52.428707
 802	8.0200e-001	-218.330383	-52.642305
 803	8.0300e-001	-217.323303	-52.545215
 804	8.0400e-001	-215.789795	-52.558161
 805	8.0500e-001	-214.897156	-52.441652
 806	8.0600e-001	-213.516235	-52.474016
 807	8.0700e-001	-212.402344	-52.454598
 808	8.0800e-001	-211.318970	-52.415762
 809	8.0900e-001	-210.189819	-52.305726
 810	8.1000e-001	-208.648682	-52.331617
 811	8.1100e-001	-207.725525	-52.318671
 812	8.1200e-001	-206.558228	-52.383398
 813	8.1300e-001	-205.169678	-52.195691
 814	8.1400e-001	-203.887939	-52.124491
 815	8.1500e-001	-202.842712	-52.234527
 816	8.1600e-001	-201.583862	-52.085655
 817	8.1700e-001	-200.431824	-52.014455
 818	8.1800e-001	-199.256897	-52.079182
 819	8.1900e-001	-197.799683	-52.118018
 820	8.2000e-001	-196.762085	-51.865584
 821	8.2100e-001	-195.678711	-51.865584
 822	8.2200e-001	-194.366455	-51.846166
 823	8.2300e-001	-193.222046	-51.923838
 824	8.2400e-001	-191.917419	-51.749076
 825	8.2500e-001	-190.635681	-51.690821
 826	8.2600e-001	-189.483643	-51.716712
 827	8.2700e-001	-188.468933	-51.723185
 828	8.2800e-001	-187.149048	-51.334824
 829	8.2900e-001	-185.989380	-51.561368
 830	8.3000e-001	-184.906006	-51.600204
 831	8.3100e-001	-183.540344	-51.451332
 832	8.3200e-001	-182.235718	-51.554895
 833	8.3300e-001	-181.350708	-51.244207
 834	8.3400e-001	-180.145264	-51.185952
 835	8.3500e-001	-178.779602	-51.438387
 836	8.3600e-001	-177.757263	-51.328351
 837	8.3700e-001	-176.422119	-51.160062
 838	8.3800e-001	-175.193787	-51.244207
 839	8.3900e-001	-174.072266	-51.095335
 840	8.4000e-001	-172.897339	-51.393078
 841	8.4100e-001	-171.760559	-51.153589
 842	8.4200e-001	-170.463562	-51.295988
 843	8.4300e-001	-169.044495	-50.991772
 844	8.4400e-001	-168.060303	-51.011190
 845	8.4500e-001	-166.831970	-51.082390
 846	8.4600e-001	-165.504456	-51.011190
 847	8.4700e-001	-164.428711	-50.888209
 848	8.4800e-001	-163.055420	-50.875264
 849	8.4900e-001	-161.972046	-50.978827
 850	8.5000e-001	-160.926819	-50.829955
 851	8.5100e-001	-159.660339	-50.823482
 852	8.5200e-001	-158.393860	-50.629302
 853	8.5300e-001	-157.249451	-50.745810
 854	8.5400e-001	-155.952454	-50.642247
 855	8.5500e-001	-154.769897	-50.486903
 856	8.5600e-001	-153.709412	-50.480430
 857	8.5700e-001	-152.511597	-50.506321
 858	8.5800e-001	-151.153564	-50.558103
 859	8.5900e-001	-150.032043	-50.441594
 860	8.6000e-001	-148.849487	-50.441594
 861	8.6100e-001	-147.651672	-50.312141
 862	8.6200e-001	-146.469116	-50.305668
 863	8.6300e-001	-145.164490	-50.279777
 864	8.6400e-001	-144.027710	-50.143851
 865	8.6500e-001	-142.700195	-50.266832
 866	8.6600e-001	-141.593933	-50.182687
 867	8.6700e-001	-140.388489	-50.092070
 868	8.6800e-001	-139.266968	-50.137378
 869	8.6900e-001	-137.939453	-49.943198
 870	8.7000e-001	-136.833191	-49.729599
 871	8.7100e-001	-135.620117	-49.975561
 872	8.7200e-001	-134.475708	-49.994979
 873	8.7300e-001	-133.239746	-49.891416
 874	8.7400e-001	-132.034302	-49.684291
 875	8.7500e-001	-130.775452	-49.755490
 876	8.7600e-001	-129.707336	-49.690763
 877	8.7700e-001	-128.425598	-49.768436
 878	8.7800e-001	-127.281189	-49.658400
 879	8.7900e-001	-125.900269	-49.250621
 880	8.8000e-001	-124.893188	-49.483638
 881	8.8100e-001	-123.596191	-49.535419
 882	8.8200e-001	-122.367859	-49.522474
 883	8.8300e-001	-121.246338	-49.470692
 884	8.8400e-001	-119.888306	-49.270039
 885	8.8500e-001	-118.621826	-49.477165
 886	8.8600e-001	-117.630005	-49.334766
 887	8.8700e-001	-116.432190	-49.347711
 888	8.8800e-001	-115.219116	-49.393020
 889	8.8900e-001	-114.044189	-49.172949
 890	8.9000e-001	-113.029480	-49.218258
 891	8.9100e-001	-111.572266	-49.114695
 892	8.9200e-001	-110.397339	-49.011132
 893	8.9300e-001	-109.352112	-49.140586
 894	8.9400e-001	-108.062744	-48.842842
 895	8.9500e-001	-106.788635	-48.719861
 896	8.9600e-001	-105.682373	-48.778116
 897	8.9700e-001	-104.400635	-48.732807
 898	8.9800e-001	-103.179932	-48.765170
 899	8.9900e-001	-102.172852	-48.732807
 900	9.0000e-001	-100.852966	-48.532154
 901	9.0100e-001	-99.517822	-48.506263
 902	9.0200e-001	-98.617554	-48.480372
 903	9.0300e-001	-97.282410	-48.577462
 904	9.0400e-001	-96.038818	-48.325028
 905	9.0500e-001	-94.856262	-48.454482
 906	9.0600e-001	-93.620300	-48.363864
 907	9.0700e-001	-92.590332	-48.227938
 908	9.0800e-001	-91.331482	-48.266774
 909	9.0900e-001	-89.927673	-48.156738
 910	9.1000e-001	-88.966370	-48.156738
 911	9.1100e-001	-87.844849	-48.098484
 912	9.1200e-001	-86.486816	-48.176156
 913	9.1300e-001	-85.342407	-47.917249
 914	9.1400e-001	-84.106445	-48.014339
 915	9.1500e-001	-82.870483	-47.956085
 916	9.1600e-001	-81.565857	-47.917249
 917	9.1700e-001	-80.436707	-47.917249
 918	9.1800e-001	-79.208374	-47.910776
 919	9.1900e-001	-78.109741	-47.677760
 920	9.2000e-001	-76.911926	-47.613033
 921	9.2100e-001	-75.805664	-47.846050
 922	9.2200e-001	-74.501038	-47.541834
 923	9.2300e-001	-73.402405	-47.464162
 924	9.2400e-001	-72.097778	-47.392962
 925	9.2500e-001	-70.922852	-47.179364
 926	9.2600e-001	-69.648743	-47.347653
 927	9.2700e-001	-68.511963	-47.127582
 928	9.2800e-001	-67.245483	-47.166418
 929	9.2900e-001	-66.162109	-47.036965
 930	9.3000e-001	-65.139771	-47.334708
 931	9.3100e-001	-63.705444	-47.121110
 932	9.3200e-001	-62.416077	-46.920456
 933	9.3300e-001	-61.248779	-46.875148
 934	9.3400e-001	-59.989929	-46.933402
 935	9.3500e-001	-58.822632	-46.836312
 936	9.3600e-001	-57.716370	-46.745694
 937	9.3700e-001	-56.610107	-46.797476
 938	9.3800e-001	-55.252075	-46.668022
 939	9.3900e-001	-54.061890	-46.583877
 940	9.4000e-001	-52.711487	-46.894566
 941	9.4100e-001	-51.773071	-46.460896
 942	9.4200e-001	-50.376892	-46.331443
 943	9.4300e-001	-49.293518	-46.512678
 944	9.4400e-001	-48.118591	-46.480314
 945	9.4500e-001	-46.806335	-46.357333
 946	9.4600e-001	-45.623779	-46.214934
 947	9.4700e-001	-44.593811	-46.189044
 948	9.4800e-001	-43.159485	-46.150208
 949	9.4900e-001	-41.831970	-46.066063
 950	9.5000e-001	-40.901184	-46.020754
 951	9.5100e-001	-39.520264	-45.994863
 952	9.5200e-001	-38.360596	-45.956027
 953	9.5300e-001	-37.284851	-45.541776
 954	9.5400e-001	-35.980225	-45.852464
 955	9.5500e-001	-34.767151	-45.470576
 956	9.5600e-001	-33.805847	-45.884828
 957	9.5700e-001	-32.310486	-45.625920
 958	9.5800e-001	-30.899048	-45.664757
 959	9.5900e-001	-30.113220	-45.464103
 960	9.6000e-001	-28.747559	-45.567666
 961	9.6100e-001	-27.626038	-45.295814
 962	9.6200e-001	-26.428223	-45.600030
 963	9.6300e-001	-25.161743	-45.328177
 964	9.6400e-001	-23.956299	-45.211669
 965	9.6500e-001	-22.750854	-45.159887
 966	9.6600e-001	-21.614075	-45.069270
 967	9.6700e-001	-20.454407	-45.017489
 968	9.6800e-001	-19.256592	-44.939816
 969	9.6900e-001	-18.150330	-45.062797
 970	9.7000e-001	-16.807556	-44.726218
 971	9.7100e-001	-15.686035	-44.862144
 972	9.7200e-001	-14.282227	-44.629128
 973	9.7300e-001	-13.259888	-44.661491
 974	9.7400e-001	-12.092590	-44.467311
 975	9.7500e-001	-10.833740	-44.532038
 976	9.7600e-001	-9.704590	-44.434947
 977	9.7700e-001	-8.476257	-44.415529
 978	9.7800e-001	-7.141113	-44.273130
 979	9.7900e-001	-6.095886	-44.331384
 980	9.8000e-001	-4.798889	-44.130731
 981	9.8100e-001	-3.593445	-44.279603
 982	9.8200e-001	-2.548218	-44.150149
 983	9.8300e-001	-1.075745	-43.923606
 984	9.8400e-001	-0.022888	-43.871824
 985	9.8500e-001	1.037598	-43.968914
 986	9.8600e-001	2.235413	-43.807097
 987	9.8700e-001	3.578186	-43.593499
 988	9.8800e-001	4.722595	-43.606444
 989	9.8900e-001	5.989075	-43.625862
 990	9.9000e-001	7.133484	-43.120993
 991	9.9100e-001	8.422852	-43.224556
 992	9.9200e-001	9.277344	-43.431682
 993	9.9300e-001	10.673523	-43.159829
 994	9.9400e-001	11.970520	-42.985067
 995	9.9500e-001	12.969971	-43.153357
 996	9.9600e-001	14.396667	-42.784414
 997	9.9700e-001	15.510559	-42.706742
 998	9.9800e-001	16.860962	-42.473725
 999	9.9900e-001	17.906189	-42.104783
1000	1.0000e+000	19.180298	-42.324854
1001	1.0010e+000	20.286560	-42.130673
1002	1.0020e+000	21.591187	-41.988274
1003	1.0030e+000	22.727966	-42.007692
1004	1.0040e+000	23.864746	-41.930020
1005	1.0050e+000	25.115967	-41.748785
1006	1.0060e+000	26.351929	-41.522241
1007	1.0070e+000	27.503967	-41.593441
1008	1.0080e+000	28.663635	-41.386315
1009	1.0090e+000	29.792786	-41.256862
1010	1.0100e+000	31.013489	-41.120935
1011	1.0110e+000	32.325745	-40.972064
1012	1.0120e+000	33.546448	-40.803774
1013	1.0130e+000	34.652710	-40.790829
1014	1.0140e+000	35.972595	-40.467195
1015	1.0150e+000	37.109375	-40.454249
1016	1.0160e+000	38.208008	-40.234178
1017	1.0170e+000	39.482117	-40.247123
1018	1.0180e+000	40.863037	-40.156506
1019	1.0190e+000	41.862488	-39.716364
1020	1.0200e+000	43.243408	-39.813454
1021	1.0210e+000	44.166565	-39.483347
1022	1.0220e+000	45.524597	-39.217967
1023	1.0230e+000	46.806335	-38.797243
1024	1.0240e+000	47.904968	-38.777825
1025	1.0250e+000	49.095154	-38.454191
1026	1.0260e+000	50.338745	-38.279429
1027	1.0270e+000	51.391602	-37.910486
1028	1.0280e+000	52.673340	-37.483289
1029	1.0290e+000	53.802490	-37.023729
1030	1.0300e+000	54.939270	-36.991365
1031	1.0310e+000	56.083679	-36.538278
1032	1.0320e+000	57.395935	-35.962209
1033	1.0330e+000	58.631897	-35.599739
1034	1.0340e+000	59.928894	-34.984835
1035	1.0350e+000	61.027527	-34.628837
1036	1.0360e+000	62.194824	-33.573791
1037	1.0370e+000	63.331604	-33.282520
1038	1.0380e+000	64.506531	-32.441072
1039	1.0390e+000	65.963745	-31.813222
1040	1.0400e+000	67.092896	-31.042973
1041	1.0410e+000	68.122864	-30.117379
1042	1.0420e+000	69.503784	-29.217677
1043	1.0430e+000	70.419312	-28.363283
1044	1.0440e+000	71.693420	-27.237037
1045	1.0450e+000	72.784424	-25.936028
1046	1.0460e+000	74.119568	-25.133416
1047	1.0470e+000	75.248718	-23.968334
1048	1.0480e+000	76.423645	-22.479617
1049	1.0490e+000	77.690125	-21.275699
1050	1.0500e+000	78.918457	-20.071780
1051	1.0510e+000	80.009460	-18.272375
1052	1.0520e+000	81.283569	-16.906640
1053	1.0530e+000	82.435608	-15.411451
1054	1.0540e+000	83.686829	-13.851535
1055	1.0550e+000	84.884644	-12.233365
1056	1.0560e+000	86.029053	-10.382179
1057	1.0570e+000	87.234497	-8.660446
1058	1.0580e+000	88.439941	-7.139366
1059	1.0590e+000	89.637756	-5.197562
1060	1.0600e+000	91.041565	-3.585865
1061	1.0610e+000	91.949463	-1.611697
1062	1.0620e+000	93.231201	0.368943
1063	1.0630e+000	94.276428	2.025949
1064	1.0640e+000	95.695496	4.019534
1065	1.0650e+000	96.794128	5.793048
1066	1.0660e+000	98.068237	7.437109
1067	1.0670e+000	99.128723	9.132951
1068	1.0680e+000	100.303650	10.893520
1069	1.0690e+000	101.661682	12.304564
1070	1.0700e+000	102.859497	14.097497
1071	1.0710e+000	103.965759	15.217270
1072	1.0720e+000	105.232239	16.453552
1073	1.0730e+000	106.330872	17.786924
1074	1.0740e+000	107.666016	19.087933
1075	1.0750e+000	108.863831	20.136507
1076	1.0760e+000	109.962463	21.256281
1077	1.0770e+000	111.259460	22.343691
1078	1.0780e+000	112.579346	23.372847
1079	1.0790e+000	113.662720	24.395530
1080	1.0800e+000	115.013123	25.211088
1081	1.0810e+000	116.180420	26.169045
1082	1.0820e+000	117.340088	27.036384
1083	1.0830e+000	118.568420	27.819578
1084	1.0840e+000	119.667053	28.719281
1085	1.0850e+000	120.903015	29.521893
1086	1.0860e+000	122.261047	30.415123
1087	1.0870e+000	123.390198	31.127118
1088	1.0880e+000	124.565125	31.515478
1089	1.0890e+000	125.633240	32.674088
1090	1.0900e+000	127.029419	33.366665
1091	1.0910e+000	128.196716	33.657935
1092	1.0920e+000	129.341125	34.823018
1093	1.0930e+000	130.645752	35.554431
1094	1.0940e+000	131.828308	36.221117
1095	1.0950e+000	132.995605	36.810130
1096	1.0960e+000	134.086609	37.243800
1097	1.0970e+000	135.330200	38.014049
1098	1.0980e+000	136.558533	38.609535
1099	1.0990e+000	137.794495	38.972006
1100	1.1000e+000	139.015198	39.632219
1101	1.1010e+000	140.213013	40.111197
1102	1.1020e+000	141.365051	40.609594
1103	1.1030e+000	142.517090	40.959118
1104	1.1040e+000	143.737793	41.425151
1105	1.1050e+000	145.011902	41.832930
1106	1.1060e+000	146.209717	42.286018
1107	1.1070e+000	147.377014	42.583761
1108	1.1080e+000	148.559570	42.881504
1109	1.1090e+000	149.864197	43.373428
1110	1.1100e+000	151.023865	43.742371
1111	1.1110e+000	152.275085	44.085423
1112	1.1120e+000	153.533936	44.318439
1113	1.1130e+000	154.495239	44.480256
1114	1.1140e+000	155.792236	44.920398
1115	1.1150e+000	156.936646	45.062797
1116	1.1160e+000	158.149719	45.269923
1117	1.1170e+000	159.446716	45.502940
1118	1.1180e+000	160.484314	45.477049
1119	1.1190e+000	161.796570	45.936609
1120	1.1200e+000	163.017273	46.072535
1121	1.1210e+000	164.161682	46.221407
1122	1.1220e+000	165.336609	46.616240
1123	1.1230e+000	166.435242	46.590350
1124	1.1240e+000	167.884827	46.622713
1125	1.1250e+000	169.036865	47.198782
1126	1.1260e+000	170.280457	47.095219
1127	1.1270e+000	171.379089	46.933402
1128	1.1280e+000	172.706604	47.095219
1129	1.1290e+000	173.866272	47.380017
1130	1.1300e+000	174.942017	47.632451
1131	1.1310e+000	176.216125	47.768377
1132	1.1320e+000	177.505493	47.930194
1133	1.1330e+000	178.604126	47.904304
1134	1.1340e+000	179.595947	47.852522
1135	1.1350e+000	181.045532	47.981976
1136	1.1360e+000	182.342529	48.273247
1137	1.1370e+000	183.494568	48.137320
1138	1.1380e+000	184.791565	48.331501
1139	1.1390e+000	185.813904	48.396227
1140	1.1400e+000	186.950684	48.538626
1141	1.1410e+000	188.262939	48.609826
1142	1.1420e+000	189.392090	48.758698
1143	1.1430e+000	190.643311	48.622771
1144	1.1440e+000	192.008972	49.004659
1145	1.1450e+000	193.000793	48.939933
1146	1.1460e+000	194.137573	48.972296
1147	1.1470e+000	195.388794	49.075859
1148	1.1480e+000	196.632385	49.043495
1149	1.1490e+000	197.822571	49.224730
1150	1.1500e+000	199.028015	49.270039
1151	1.1510e+000	200.279236	49.386547
1152	1.1520e+000	201.438904	49.334766
1153	1.1530e+000	202.362061	49.347711
1154	1.1540e+000	203.926086	49.587201
1155	1.1550e+000	205.024719	49.671345
1156	1.1560e+000	206.306458	49.677818
1157	1.1570e+000	207.374573	49.690763
1158	1.1580e+000	208.679199	49.839635
1159	1.1590e+000	209.930420	49.690763
1160	1.1600e+000	211.021423	49.982034
1161	1.1610e+000	212.089539	50.066179
1162	1.1620e+000	213.531494	50.085597
1163	1.1630e+000	214.683533	50.072652
1164	1.1640e+000	215.789795	50.312141
1165	1.1650e+000	217.094421	50.098542
1166	1.1660e+000	218.093872	50.312141
1167	1.1670e+000	219.367981	50.338031
1168	1.1680e+000	220.634460	50.461012
1169	1.1690e+000	221.992493	50.448067
1170	1.1700e+000	223.014832	50.525739
1171	1.1710e+000	224.296570	50.661665
1172	1.1720e+000	225.563049	50.791119
1173	1.1730e+000	226.486206	50.687556
1174	1.1740e+000	227.813721	50.726392
1175	1.1750e+000	229.080200	50.797592
1176	1.1760e+000	230.216980	50.817010
1177	1.1770e+000	231.285095	50.978827
1178	1.1780e+000	232.704163	51.069444
1179	1.1790e+000	233.894348	50.985299
1180	1.1800e+000	234.924316	51.037081
1181	1.1810e+000	236.488342	51.011190
1182	1.1820e+000	237.403870	51.250679
1183	1.1830e+000	238.632202	51.257152
1184	1.1840e+000	239.891052	51.289515
1185	1.1850e+000	240.882874	51.302461
1186	1.1860e+000	242.240906	51.393078
1187	1.1870e+000	243.453979	51.529004
1188	1.1880e+000	244.499207	51.406024
1189	1.1890e+000	245.841980	51.632567
1190	1.1900e+000	247.062683	51.574313
1191	1.1910e+000	248.329163	51.529004
1192	1.1920e+000	249.427795	51.651985
1193	1.1930e+000	250.572205	51.529004
1194	1.1940e+000	251.686096	51.800857
1195	1.1950e+000	253.059387	51.859111
1196	1.1960e+000	254.203796	51.910893
1197	1.1970e+000	255.516052	51.833220
1198	1.1980e+000	256.622314	52.053292
1199	1.1990e+000	257.835388	52.027401
1200	1.2000e+000	258.972168	52.059764
1201	1.2010e+000	260.231018	52.066237
1202	1.2020e+000	261.428833	51.897947
1203	1.2030e+000	262.657166	52.215109
1204	1.2040e+000	263.847351	52.344562
1205	1.2050e+000	264.999390	52.396344
1206	1.2060e+000	266.227722	52.299253
1207	1.2070e+000	267.440796	52.525797
1208	1.2080e+000	268.737793	52.577579
1209	1.2090e+000	269.676208	52.823540
1210	1.2100e+000	271.095276	52.648778
1211	1.2110e+000	272.277832	52.480488
1212	1.2120e+000	273.475647	52.713505
1213	1.2130e+000	274.719238	52.694087
1214	1.2140e+000	275.856018	52.694087
1215	1.2150e+000	277.030945	52.758814
1216	1.2160e+000	278.259277	52.836486
1217	1.2170e+000	279.396057	52.836486
1218	1.2180e+000	280.555725	52.545215
1219	1.2190e+000	281.951904	53.082448
1220	1.2200e+000	283.157349	52.901213
1221	1.2210e+000	283.973694	52.875322
1222	1.2220e+000	285.545349	53.030666
1223	1.2230e+000	286.834717	53.030666
1224	1.2240e+000	287.742615	53.160120
1225	1.2250e+000	289.062500	53.153647
1226	1.2260e+000	290.229797	53.153647
1227	1.2270e+000	291.549683	53.283101
1228	1.2280e+000	292.533875	53.470808
1229	1.2290e+000	293.815613	53.302519
1230	1.2300e+000	294.952393	53.444918
1231	1.2310e+000	296.325684	53.431972
1232	1.2320e+000	297.500610	53.431972
1233	1.2330e+000	298.629761	53.198956
1234	1.2340e+000	299.858093	53.464336
1235	1.2350e+000	301.139832	53.542008
1236	1.2360e+000	302.154541	53.664989
1237	1.2370e+000	303.375244	53.542008
1238	1.2380e+000	304.542542	53.781497
1239	1.2390e+000	305.824280	53.846224
1240	1.2400e+000	306.915283	53.781497
1241	1.2410e+000	308.067322	53.807388
1242	1.2420e+000	309.364319	53.852697
1243	1.2430e+000	310.592651	53.891533
1244	1.2440e+000	311.851501	53.872115
1245	1.2450e+000	313.102722	54.033932
1246	1.2460e+000	313.987732	53.846224
1247	1.2470e+000	315.467834	54.105131
1248	1.2480e+000	316.642761	54.111604
1249	1.2490e+000	317.718506	54.020986
1250	1.2500e+000	319.053650	54.143967
1251	1.2510e+000	320.137024	54.189276
1252	1.2520e+000	319.320679	54.150440
1253	1.2530e+000	318.267822	54.215167
1254	1.2540e+000	316.818237	54.143967
1255	1.2550e+000	315.734863	54.150440
1256	1.2560e+000	314.575195	54.085713
1257	1.2570e+000	313.362122	53.969205
1258	1.2580e+000	312.118530	54.014514
1259	1.2590e+000	310.913086	54.008041
1260	1.2600e+000	309.616089	53.995096
1261	1.2610e+000	308.464050	53.904478
1262	1.2620e+000	307.273865	53.943314
1263	1.2630e+000	306.053162	53.956259
1264	1.2640e+000	304.801941	53.736188
1265	1.2650e+000	303.825378	53.820333
1266	1.2660e+000	302.391052	53.852697
1267	1.2670e+000	301.422119	53.826806
1268	1.2680e+000	300.155640	53.639098
1269	1.2690e+000	298.820496	53.755606
1270	1.2700e+000	297.660828	53.762079
1271	1.2710e+000	296.348572	53.716770
1272	1.2720e+000	295.326233	53.703825
1273	1.2730e+000	294.052124	53.529063
1274	1.2740e+000	292.945862	53.684407
1275	1.2750e+000	291.633606	53.535535
1276	1.2760e+000	290.428162	53.664989
1277	1.2770e+000	289.222717	53.567899
1278	1.2780e+000	287.818909	53.419027
1279	1.2790e+000	286.735535	53.457863
1280	1.2800e+000	285.682678	53.412554
1281	1.2810e+000	284.355164	53.412554
1282	1.2820e+000	283.287048	53.490226
1283	1.2830e+000	281.974792	53.574371
1284	1.2840e+000	280.845642	53.341355
1285	1.2850e+000	279.632568	53.509645
1286	1.2860e+000	278.541565	53.153647
1287	1.2870e+000	277.160645	53.205429
1288	1.2880e+000	276.046753	53.108338
1289	1.2890e+000	274.909973	53.140702
1290	1.2900e+000	273.674011	53.114811
1291	1.2910e+000	272.590637	53.075975
1292	1.2920e+000	271.263123	53.140702
1293	1.2930e+000	270.057678	52.940049
1294	1.2940e+000	268.844604	52.881795
1295	1.2950e+000	267.570496	52.823540
1296	1.2960e+000	266.464233	52.901213
1297	1.2970e+000	265.060425	52.940049
1298	1.2980e+000	264.190674	53.075975
1299	1.2990e+000	262.886047	52.823540
1300	1.3000e+000	261.779785	52.765286
1301	1.3010e+000	260.604858	52.642305
1302	1.3020e+000	259.124756	52.622887
1303	1.3030e+000	258.049011	52.752341
1304	1.3040e+000	256.904602	52.739396
1305	1.3050e+000	255.523682	52.519325
1306	1.3060e+000	254.531860	52.577579
1307	1.3070e+000	253.326416	52.461070
1308	1.3080e+000	252.281189	52.525797
1309	1.3090e+000	250.991821	52.448125
1310	1.3100e+000	249.778748	52.415762
1311	1.3110e+000	248.405457	52.111546
1312	1.3120e+000	247.268677	52.402816
1313	1.3130e+000	246.025085	52.402816
1314	1.3140e+000	244.819641	52.318671
1315	1.3150e+000	243.690491	52.247472
1316	1.3160e+000	242.591858	52.234527
1317	1.3170e+000	241.249084	52.195691
1318	1.3180e+000	240.287781	52.130964
1319	1.3190e+000	238.861084	52.163327
1320	1.3200e+000	237.739563	52.033874
1321	1.3210e+000	236.549377	52.066237
1322	1.3220e+000	235.176086	51.962674
1323	1.3230e+000	234.184265	52.124491
1324	1.3240e+000	232.902527	51.949729
1325	1.3250e+000	231.758118	51.865584
1326	1.3260e+000	230.598450	51.800857
1327	1.3270e+000	229.324341	51.904420
1328	1.3280e+000	228.248596	51.664931
1329	1.3290e+000	226.928711	51.690821
1330	1.3300e+000	225.761414	51.600204
1331	1.3310e+000	224.617004	51.807330
1332	1.3320e+000	223.152161	51.910893
1333	1.3330e+000	222.129822	51.645513
1334	1.3340e+000	220.977783	51.626095
1335	1.3350e+000	219.718933	51.619622
1336	1.3360e+000	218.544006	51.496641
1337	1.3370e+000	217.338562	51.483696
1338	1.3380e+000	216.094971	51.444860
1339	1.3390e+000	214.904785	51.716712
1340	1.3400e+000	213.798523	51.354242
1341	1.3410e+000	212.501526	51.386606
1342	1.3420e+000	211.425781	51.334824
1343	1.3430e+000	210.258484	51.496641
1344	1.3440e+000	208.854675	51.257152
1345	1.3450e+000	207.702637	51.231261
1346	1.3460e+000	206.535339	51.477223
1347	1.3470e+000	205.299377	51.043554
1348	1.3480e+000	204.116821	51.069444
1349	1.3490e+000	202.781677	51.024135
1350	1.3500e+000	201.728821	51.030608
1351	1.3510e+000	200.645447	50.810537
1352	1.3520e+000	199.272156	50.927045
1353	1.3530e+000	198.150635	50.855846
1354	1.3540e+000	197.067261	50.946463
1355	1.3550e+000	195.610046	50.758756
1356	1.3560e+000	194.610596	50.784646
1357	1.3570e+000	193.374634	50.778174
1358	1.3580e+000	191.925049	50.551630
1359	1.3590e+000	191.093445	50.551630
1360	1.3600e+000	189.666748	50.583993
1361	1.3610e+000	188.507080	50.635775
1362	1.3620e+000	187.301636	50.435122
1363	1.3630e+000	186.065674	50.558103
1364	1.3640e+000	184.852600	50.318613
1365	1.3650e+000	183.708191	50.389813
1366	1.3660e+000	182.518005	50.350977
1367	1.3670e+000	181.251526	50.441594
1368	1.3680e+000	180.053711	50.383340
1369	1.3690e+000	178.886414	50.234469
1370	1.3700e+000	177.742004	50.111488
1371	1.3710e+000	176.567078	50.046761
1372	1.3720e+000	175.392151	50.156796
1373	1.3730e+000	174.163818	49.988507
1374	1.3740e+000	172.889709	50.001452
1375	1.3750e+000	171.684265	49.917307
1376	1.3760e+000	170.166016	49.645455
1377	1.3770e+000	169.342041	49.878471
1378	1.3780e+000	168.106079	49.813744
1379	1.3790e+000	166.870117	49.768436
1380	1.3800e+000	165.794373	49.768436
1381	1.3810e+000	164.428711	49.548364
1382	1.3820e+000	163.505554	49.600146
1383	1.3830e+000	162.216187	49.451274
1384	1.3840e+000	160.934448	49.548364
1385	1.3850e+000	159.667969	49.574255
1386	1.3860e+000	158.477783	49.360657
1387	1.3870e+000	157.386780	49.386547
1388	1.3880e+000	156.044006	49.373602
1389	1.3890e+000	154.808044	49.231203
1390	1.3900e+000	153.533936	49.250621
1391	1.3910e+000	152.420044	49.192367
1392	1.3920e+000	151.222229	49.114695
1393	1.3930e+000	150.138855	49.101750
1394	1.3940e+000	148.933411	49.004659
1395	1.3950e+000	147.644043	49.134113
1396	1.3960e+000	146.545410	48.946405
1397	1.3970e+000	145.347595	48.855788
1398	1.3980e+000	144.165039	48.765170
1399	1.3990e+000	142.906189	48.972296
1400	1.4000e+000	141.716003	48.778116
1401	1.4010e+000	140.373230	48.816952
1402	1.4020e+000	139.190674	48.745752
1403	1.4030e+000	138.008118	48.829897
1404	1.4040e+000	136.833191	48.389755
1405	1.4050e+000	135.650635	48.551572
1406	1.4060e+000	134.483337	48.409173
1407	1.4070e+000	133.346558	48.538626
1408	1.4080e+000	132.011414	48.467427
1409	1.4090e+000	130.950928	48.396227
1410	1.4100e+000	129.676819	48.409173
1411	1.4110e+000	128.379822	48.266774
1412	1.4120e+000	127.357483	48.202047
1413	1.4130e+000	125.953674	48.156738
1414	1.4140e+000	124.931335	48.085539
1415	1.4150e+000	123.680115	48.046703
1416	1.4160e+000	122.482300	48.001394
1417	1.4170e+000	121.345520	47.981976
1418	1.4180e+000	120.155334	47.871940
1419	1.4190e+000	118.919373	47.800741
1420	1.4200e+000	117.698669	47.871940
1421	1.4210e+000	116.470337	47.710123
1422	1.4220e+000	115.447998	47.813686
1423	1.4230e+000	114.143372	47.166418
1424	1.4240e+000	112.983704	47.716596
1425	1.4250e+000	111.724854	47.593615
1426	1.4260e+000	110.404968	47.386489
1427	1.4270e+000	109.245300	47.438271
1428	1.4280e+000	108.200073	47.477107
1429	1.4290e+000	106.742859	47.334708
1430	1.4300e+000	105.659485	47.127582
1431	1.4310e+000	104.515076	47.269981
1432	1.4320e+000	103.157043	47.082273
1433	1.4330e+000	102.241516	47.218200
1434	1.4340e+000	100.929260	47.289399
1435	1.4350e+000	99.662781	47.036965
1436	1.4360e+000	98.419189	46.972238
1437	1.4370e+000	97.167969	46.829839
1438	1.4380e+000	96.046448	46.719803
1439	1.4390e+000	94.963074	46.668022
1440	1.4400e+000	93.826294	46.525623
1441	1.4410e+000	92.407227	46.545041
1442	1.4420e+000	91.400146	46.557986
1443	1.4430e+000	90.103149	46.344388
1444	1.4440e+000	88.973999	46.383224
1445	1.4450e+000	87.684631	46.208462
1446	1.4460e+000	86.410522	46.337915
1447	1.4470e+000	85.342407	46.240825
1448	1.4480e+000	84.083557	46.337915
1449	1.4490e+000	82.885742	45.975445
1450	1.4500e+000	81.657410	46.027227
1451	1.4510e+000	80.505371	45.761847
1452	1.4520e+000	79.360962	45.852464
1453	1.4530e+000	78.346252	45.871882
1454	1.4540e+000	76.866150	45.638866
1455	1.4550e+000	75.691223	45.612975
1456	1.4560e+000	74.378967	45.502940
1457	1.4570e+000	73.265076	45.354068
1458	1.4580e+000	72.303772	45.244032
1459	1.4590e+000	70.915222	45.256978
1460	1.4600e+000	69.656372	44.849199
1461	1.4610e+000	68.572998	45.049852
1462	1.4620e+000	67.291260	44.732691
1463	1.4630e+000	66.192627	44.933344
1464	1.4640e+000	64.933777	44.875090
1465	1.4650e+000	63.804626	44.855672
1466	1.4660e+000	62.522888	44.700327
1467	1.4670e+000	61.454773	44.700327
1468	1.4680e+000	60.020447	44.577346
1469	1.4690e+000	58.860779	44.415529
1470	1.4700e+000	57.685852	44.234294
1471	1.4710e+000	56.358337	44.286076
1472	1.4720e+000	55.313110	44.156622
1473	1.4730e+000	54.130554	44.033641
1474	1.4740e+000	52.978516	44.007750
1475	1.4750e+000	51.689148	43.891242
1476	1.4760e+000	50.575256	43.722953
1477	1.4770e+000	49.308777	43.632335
1478	1.4780e+000	48.141479	43.535245
1479	1.4790e+000	46.981812	43.172775
1480	1.4800e+000	45.738220	43.334592
1481	1.4810e+000	44.563293	43.010958
1482	1.4820e+000	43.350220	43.075685
1483	1.4830e+000	42.068481	42.978594
1484	1.4840e+000	40.878296	42.946231
1485	1.4850e+000	39.680481	42.654960
1486	1.4860e+000	38.482666	42.616124
1487	1.4870e+000	37.307739	42.396053
1488	1.4880e+000	36.056519	42.091837
1489	1.4890e+000	34.942627	42.130673
1490	1.4900e+000	33.721924	42.001220
1491	1.4910e+000	32.485962	41.735840
1492	1.4920e+000	31.272888	41.709949
1493	1.4930e+000	30.021667	41.612859
1494	1.4940e+000	28.900146	41.379842
1495	1.4950e+000	27.702332	41.088572
1496	1.4960e+000	26.390076	40.933228
1497	1.4970e+000	25.192261	40.596648
1498	1.4980e+000	24.139404	40.370104
1499	1.4990e+000	22.850037	40.344214
1500	1.5000e+000	21.911621	39.988216
1501	1.5010e+000	20.584106	39.942908
1502	1.5020e+000	19.424438	39.489820
1503	1.5030e+000	18.203735	39.166186
1504	1.5040e+000	17.036438	38.861970
1505	1.5050e+000	15.693665	38.687208
1506	1.5060e+000	14.526367	38.363574
1507	1.5070e+000	13.458252	38.033467
1508	1.5080e+000	12.252808	37.729251
1509	1.5090e+000	11.039734	37.127292
1510	1.5100e+000	9.872437	37.166128
1511	1.5110e+000	8.644104	36.758349
1512	1.5120e+000	7.522583	36.324679
1513	1.5130e+000	6.271362	35.962209
1514	1.5140e+000	5.073547	35.632103
1515	1.5150e+000	3.898621	35.230797
1516	1.5160e+000	2.967834	35.127234
1517	1.5170e+000	1.441956	34.253422
1518	1.5180e+000	0.160217	33.748553
1519	1.5190e+000	-0.885010	33.204848
1520	1.5200e+000	-2.143860	32.693506
1521	1.5210e+000	-3.395081	32.369872
1522	1.5220e+000	-4.570007	31.748495
1523	1.5230e+000	-5.867004	31.256571
1524	1.5240e+000	-6.797791	30.648139
1525	1.5250e+000	-8.171082	30.091489
1526	1.5260e+000	-9.315491	29.489530
1527	1.5270e+000	-10.452271	28.796953
1528	1.5280e+000	-11.802673	28.104376
1529	1.5290e+000	-12.939453	27.418272
1530	1.5300e+000	-14.053345	26.777477
1531	1.5310e+000	-15.266418	25.890720
1532	1.5320e+000	-16.525269	25.243452
1533	1.5330e+000	-17.715454	24.557347
1534	1.5340e+000	-18.920898	23.612336
1535	1.5350e+000	-20.111084	22.660852
1536	1.5360e+000	-21.278381	21.910021
1537	1.5370e+000	-22.575378	21.062100
1538	1.5380e+000	-23.674011	19.780510
1539	1.5390e+000	-24.940491	18.977897
1540	1.5400e+000	-26.062012	17.715725
1541	1.5410e+000	-27.259827	16.887222
1542	1.5420e+000	-28.465271	15.858066
1543	1.5430e+000	-29.716492	14.660620
1544	1.5440e+000	-30.921936	13.747972
1545	1.5450e+000	-31.990051	12.498745
1546	1.5460e+000	-33.218384	11.294826
1547	1.5470e+000	-34.317017	10.136217
1548	1.5480e+000	-35.568237	8.789899
1549	1.5490e+000	-36.933899	7.767216
1550	1.5500e+000	-37.948608	6.349699
1551	1.5510e+000	-39.131165	5.139308
1552	1.5520e+000	-40.527344	3.857717
1553	1.5530e+000	-41.282654	2.770307
1554	1.5540e+000	-42.839050	1.488716
1555	1.5550e+000	-44.052124	0.194180
1556	1.5560e+000	-45.211792	-1.048574
1557	1.5570e+000	-46.401978	-2.220129
1558	1.5580e+000	-47.630310	-3.462884
1559	1.5590e+000	-48.896790	-4.738002
1560	1.5600e+000	-50.018311	-5.851303
1561	1.5610e+000	-51.383972	-7.217038
1562	1.5620e+000	-52.421570	-8.453320
1563	1.5630e+000	-53.604126	-9.689602
1564	1.5640e+000	-54.870605	-10.932356
1565	1.5650e+000	-56.198120	-11.935622
1566	1.5660e+000	-57.388306	-13.391975
1567	1.5670e+000	-58.151245	-14.421131
1568	1.5680e+000	-59.806824	-15.903374
1569	1.5690e+000	-60.852051	-17.243219
1570	1.5700e+000	-61.958313	-18.557173
1571	1.5710e+000	-63.224792	-19.890545
1572	1.5720e+000	-64.430237	-21.515188
1573	1.5730e+000	-65.628052	-22.609071
1574	1.5740e+000	-66.764832	-24.091315
1575	1.5750e+000	-68.069458	-25.405269
1576	1.5760e+000	-69.229126	-27.016966
1577	1.5770e+000	-70.442200	-28.363283
1578	1.5780e+000	-71.647644	-29.793745
1579	1.5790e+000	-72.769165	-31.211262
1580	1.5800e+000	-73.913574	-32.894159
1581	1.5810e+000	-75.111389	-34.428184
1582	1.5820e+000	-76.446533	-35.975155
1583	1.5830e+000	-77.667236	-37.179073
1584	1.5840e+000	-78.750610	-38.732516
1585	1.5850e+000	-80.139160	-39.975271
1586	1.5860e+000	-81.283569	-41.282752
1587	1.5870e+000	-82.527161	-42.460780
1588	1.5880e+000	-83.648682	-43.515827
1589	1.5890e+000	-84.945679	-44.279603
1590	1.5900e+000	-86.021423	-44.706800
1591	1.5910e+000	-87.333679	-45.386431
1592	1.5920e+000	-88.638306	-45.813628
1593	1.5930e+000	-89.607239	-46.460896
1594	1.5940e+000	-90.950012	-46.383224
1595	1.5950e+000	-92.201233	-46.499732
1596	1.5960e+000	-93.437195	-46.609768
1597	1.5970e+000	-94.589233	-46.745694
1598	1.5980e+000	-95.733643	-46.875148
1599	1.5990e+000	-96.900940	-47.127582
1600	1.6000e+000	-98.121643	-46.965765
1601	1.6010e+000	-99.426270	-47.263508
1602	1.6020e+000	-100.463867	-47.347653
1603	1.6030e+000	-101.905823	-47.425325
1604	1.6040e+000	-103.034973	-47.515943
1605	1.6050e+000	-104.385376	-47.587142
1606	1.6060e+000	-105.598450	-47.606560
1607	1.6070e+000	-106.491089	-47.748959
1608	1.6080e+000	-107.788086	-47.748959
1609	1.6090e+000	-109.146118	-47.969031
1610	1.6100e+000	-110.198975	-47.891358
1611	1.6110e+000	-111.373901	-47.969031
1612	1.6120e+000	-112.617493	-48.137320
1613	1.6130e+000	-113.883972	-48.098484
1614	1.6140e+000	-114.997864	-48.325028
1615	1.6150e+000	-116.256714	-48.130848
1616	1.6160e+000	-117.469788	-48.363864
1617	1.6170e+000	-118.606567	-48.370337
1618	1.6180e+000	-119.522095	-48.234410
1619	1.6190e+000	-121.002197	-48.480372
1620	1.6200e+000	-122.161865	-48.558044
1621	1.6210e+000	-123.588562	-48.642189
1622	1.6220e+000	-124.687195	-48.661607
1623	1.6230e+000	-125.724792	-48.603353
1624	1.6240e+000	-127.090454	-48.823424
1625	1.6250e+000	-128.349304	-48.681025
1626	1.6260e+000	-129.364014	-48.888151
1627	1.6270e+000	-130.722046	-48.998187
1628	1.6280e+000	-131.736755	-48.946405
1629	1.6290e+000	-133.010864	-49.101750
1630	1.6300e+000	-134.078979	-49.328293
1631	1.6310e+000	-135.475159	-49.321821
1632	1.6320e+000	-136.688232	-49.147058
1633	1.6330e+000	-137.786865	-49.308875
1634	1.6340e+000	-139.022827	-49.263567
1635	1.6350e+000	-140.167236	-49.328293
1636	1.6360e+000	-141.555786	-49.354184
1637	1.6370e+000	-142.814636	-49.347711
1638	1.6380e+000	-143.760681	-49.528946
1639	1.6390e+000	-145.072937	-49.522474
1640	1.6400e+000	-146.202087	-49.509528
1641	1.6410e+000	-147.415161	-49.600146
1642	1.6420e+000	-148.635864	-49.755490
1643	1.6430e+000	-149.818420	-49.677818
1644	1.6440e+000	-151.084900	-49.703709
1645	1.6450e+000	-152.099609	-49.884944
1646	1.6460e+000	-153.457642	-49.813744
1647	1.6470e+000	-154.724121	-49.923780
1648	1.6480e+000	-155.876160	-49.871998
1649	1.6490e+000	-157.073975	-49.884944
1650	1.6500e+000	-158.172607	-50.079124
1651	1.6510e+000	-159.538269	-50.111488
1652	1.6520e+000	-160.644531	-50.176214
1653	1.6530e+000	-161.804199	-50.221523
1654	1.6540e+000	-163.085938	-50.221523
1655	1.6550e+000	-163.894653	-50.072652
1656	1.6560e+000	-165.351868	-50.409231
1657	1.6570e+000	-166.549683	-50.331559
1658	1.6580e+000	-167.732239	-50.616357
1659	1.6590e+000	-168.907166	-50.558103
1660	1.6600e+000	-170.196533	-50.655193
1661	1.6610e+000	-171.485901	-50.668138
1662	1.6620e+000	-172.554016	-50.609884
1663	1.6630e+000	-173.889160	-50.635775
1664	1.6640e+000	-175.048828	-50.694029
1665	1.6650e+000	-176.361084	-50.810537
1666	1.6660e+000	-177.429199	-50.784646
1667	1.6670e+000	-178.611755	-50.855846
1668	1.6680e+000	-180.000305	-50.810537
1669	1.6690e+000	-181.015015	-50.972354
1670	1.6700e+000	-182.380676	-51.056499
1671	1.6710e+000	-183.441162	-51.024135
1672	1.6720e+000	-184.608459	-51.062972
1673	1.6730e+000	-185.722351	-51.088862
1674	1.6740e+000	-187.034607	-51.088862
1675	1.6750e+000	-188.323975	-51.192425
1676	1.6760e+000	-189.407349	-51.289515
1677	1.6770e+000	-190.559387	-51.321879
1678	1.6780e+000	-191.833496	-51.295988
1679	1.6790e+000	-192.970276	-51.315406
1680	1.6800e+000	-194.290161	-51.431914
1681	1.6810e+000	-195.373535	-51.393078
1682	1.6820e+000	-196.479797	-51.490168
1683	1.6830e+000	-197.593689	-51.289515
1684	1.6840e+000	-199.081421	-51.613149
1685	1.6850e+000	-200.225830	-51.639040
1686	1.6860e+000	-201.332092	-51.270097
1687	1.6870e+000	-202.697754	-51.639040
1688	1.6880e+000	-203.903198	-51.703767
1689	1.6890e+000	-205.017090	-51.781439
1690	1.6900e+000	-206.008911	-51.975619
1691	1.6910e+000	-207.450867	-51.897947
1692	1.6920e+000	-208.427429	-51.826748
1693	1.6930e+000	-209.884644	-51.865584
1694	1.6940e+000	-210.998535	-51.956201
1695	1.6950e+000	-212.219238	-51.982092
1696	1.6960e+000	-213.325500	-51.949729
1697	1.6970e+000	-214.622498	-51.936783
1698	1.6980e+000	-215.820313	-52.143909
1699	1.6990e+000	-216.979980	-52.020928
1700	1.7000e+000	-218.414307	-52.195691
1701	1.7010e+000	-219.390869	-52.182745
1702	1.7020e+000	-220.626831	-52.195691
1703	1.7030e+000	-221.763611	-52.202163
1704	1.7040e+000	-222.976685	-52.331617
1705	1.7050e+000	-224.090576	-52.428707
1706	1.7060e+000	-225.524902	-52.519325
1707	1.7070e+000	-226.638794	-52.499906
1708	1.7080e+000	-227.920532	-52.454598
1709	1.7090e+000	-229.232788	-52.616415
1710	1.7100e+000	-230.186462	-52.584051
1711	1.7110e+000	-231.422424	-52.519325
1712	1.7120e+000	-232.521057	-52.558161
1713	1.7130e+000	-233.871460	-52.726450
1714	1.7140e+000	-234.962463	-52.596997
1715	1.7150e+000	-236.175537	-52.674669
1716	1.7160e+000	-237.274170	-52.804122
1717	1.7170e+000	-238.647461	-52.771759
1718	1.7180e+000	-239.776611	-52.940049
1719	1.7190e+000	-240.997314	-52.959467
1720	1.7200e+000	-242.187500	-52.713505
1721	1.7210e+000	-243.522644	-52.920631
1722	1.7220e+000	-244.621277	-53.050084
1723	1.7230e+000	-245.788574	-52.758814
1724	1.7240e+000	-246.871948	-53.063030
1725	1.7250e+000	-248.191833	-53.160120
1726	1.7260e+000	-249.313354	-53.276628
1727	1.7270e+000	-250.648499	-53.211901
1728	1.7280e+000	-251.739502	-53.205429
1729	1.7290e+000	-252.746582	-53.198956
1730	1.7300e+000	-254.226685	-53.276628
1731	1.7310e+000	-255.386353	-53.444918
1732	1.7320e+000	-256.591797	-53.431972
1733	1.7330e+000	-257.965088	-53.781497
1734	1.7340e+000	-259.002686	-53.315464
1735	1.7350e+000	-260.147095	-53.509645
1736	1.7360e+000	-261.451721	-53.574371
1737	1.7370e+000	-262.664795	-53.535535
1738	1.7380e+000	-263.656616	-53.658516
1739	1.7390e+000	-264.999390	-53.852697
1740	1.7400e+000	-266.166687	-53.716770
1741	1.7410e+000	-267.318726	-53.716770
1742	1.7420e+000	-268.600464	-53.781497
1743	1.7430e+000	-269.760132	-53.710298
1744	1.7440e+000	-270.927429	-53.826806
1745	1.7450e+000	-272.247314	-53.910951
1746	1.7460e+000	-273.353577	-53.872115
1747	1.7470e+000	-274.665833	-53.930369
1748	1.7480e+000	-275.924683	-53.762079
1749	1.7490e+000	-277.130127	-54.040404
1750	1.7500e+000	-278.076172	-53.995096
1751	1.7510e+000	-279.457092	-54.156913
1752	1.7520e+000	-278.396606	-54.215167
1753	1.7530e+000	-277.755737	-54.111604
1754	1.7540e+000	-276.229858	-54.079240
1755	1.7550e+000	-275.001526	-54.008041
1756	1.7560e+000	-273.750305	-54.020986
1757	1.7570e+000	-272.521973	-54.098658
1758	1.7580e+000	-271.301270	-53.852697
1759	1.7590e+000	-270.133972	-53.930369
1760	1.7600e+000	-268.981934	-53.490226
1761	1.7610e+000	-267.761230	-53.813860
1762	1.7620e+000	-266.471863	-53.762079
1763	1.7630e+000	-265.396118	-53.658516
1764	1.7640e+000	-264.068604	-53.677934
1765	1.7650e+000	-263.038635	-53.755606
1766	1.7660e+000	-261.688232	-53.956259
1767	1.7670e+000	-260.643005	-53.736188
1768	1.7680e+000	-259.323120	-53.438445
1769	1.7690e+000	-258.239746	-53.412554
1770	1.7700e+000	-256.835938	-53.438445
1771	1.7710e+000	-255.798340	-53.496699
1772	1.7720e+000	-254.661560	-53.561426
1773	1.7730e+000	-253.448486	-53.425500
1774	1.7740e+000	-252.120972	-53.386664
1775	1.7750e+000	-250.915527	-53.328410
1776	1.7760e+000	-249.694824	-53.367246
1777	1.7770e+000	-248.580933	-53.328410
1778	1.7780e+000	-247.276306	-53.308991
1779	1.7790e+000	-246.101379	-53.360773
1780	1.7800e+000	-245.162964	-53.367246
1781	1.7810e+000	-243.698120	-53.160120
1782	1.7820e+000	-242.568970	-53.114811
1783	1.7830e+000	-241.256714	-53.095393
1784	1.7840e+000	-240.219116	-53.205429
1785	1.7850e+000	-238.945007	-52.901213
1786	1.7860e+000	-237.731934	-53.101866
1787	1.7870e+000	-236.518860	-52.933576
1788	1.7880e+000	-235.260010	-53.004776
1789	1.7890e+000	-234.077454	-52.914158
1790	1.7900e+000	-233.016968	-53.134229
1791	1.7910e+000	-231.903076	-52.894740
1792	1.7920e+000	-230.468750	-52.940049
1793	1.7930e+000	-229.339600	-52.952994
1794	1.7940e+000	-227.996826	-53.024194
1795	1.7950e+000	-227.088928	-52.752341
1796	1.7960e+000	-225.601196	-52.719978
1797	1.7970e+000	-224.525452	-53.037139
1798	1.7980e+000	-223.159790	-52.558161
1799	1.7990e+000	-222.007751	-52.778232
1800	1.8000e+000	-220.939636	-52.525797
1801	1.8010e+000	-219.657898	-52.603469
1802	1.8020e+000	-218.315125	-52.435180
1803	1.8030e+000	-217.437744	-52.422234
1804	1.8040e+000	-216.079712	-52.415762
1805	1.8050e+000	-214.942932	-52.486961
1806	1.8060e+000	-213.684082	-52.512852
1807	1.8070e+000	-212.501526	-52.428707
1808	1.8080e+000	-211.341858	-52.325144
1809	1.8090e+000	-210.083008	-52.312199
1810	1.8100e+000	-208.770752	-52.202163
1811	1.8110e+000	-207.710266	-52.228054
1812	1.8120e+000	-206.573486	-52.124491
1813	1.8130e+000	-205.261230	-51.923838
1814	1.8140e+000	-204.017639	-52.202163
1815	1.8150e+000	-202.934265	-52.105073
1816	1.8160e+000	-201.644897	-52.053292
1817	1.8170e+000	-200.454712	-51.936783
1818	1.8180e+000	-199.317932	-51.865584
1819	1.8190e+000	-198.074341	-51.897947
1820	1.8200e+000	-196.929932	-52.124491
1821	1.8210e+000	-195.701599	-51.872057
1822	1.8220e+000	-194.229126	-52.234527
1823	1.8230e+000	-193.321228	-51.852638
1824	1.8240e+000	-192.131042	-51.703767
1825	1.8250e+000	-190.773010	-51.703767
1826	1.8260e+000	-189.498901	-51.567841
1827	1.8270e+000	-188.598633	-51.651985
1828	1.8280e+000	-187.316895	-51.639040
1829	1.8290e+000	-186.065674	-51.580786
1830	1.8300e+000	-185.089111	-51.587259
1831	1.8310e+000	-183.570862	-51.341297
1832	1.8320e+000	-182.357788	-51.483696
1833	1.8330e+000	-181.327820	-51.470750
1834	1.8340e+000	-180.076599	-51.393078
1835	1.8350e+000	-178.756714	-51.444860
1836	1.8360e+000	-177.787781	-51.270097
1837	1.8370e+000	-176.429749	-51.283043
1838	1.8380e+000	-175.262451	-51.056499
1839	1.8390e+000	-174.079895	-51.231261
1840	1.8400e+000	-172.714233	-50.998245
1841	1.8410e+000	-171.592712	-50.965881
1842	1.8420e+000	-170.562744	-50.959409
1843	1.8430e+000	-169.326782	-51.153589
1844	1.8440e+000	-167.984009	-50.972354
1845	1.8450e+000	-166.954041	-50.901155
1846	1.8460e+000	-165.710449	-50.972354
1847	1.8470e+000	-164.398193	-50.881737
1848	1.8480e+000	-163.269043	-50.765228
1849	1.8490e+000	-162.117004	-50.784646
1850	1.8500e+000	-161.102295	-50.952936
1851	1.8510e+000	-159.896851	-50.700501
1852	1.8520e+000	-158.493042	-50.577521
1853	1.8530e+000	-157.165527	-50.583993
1854	1.8540e+000	-155.967712	-50.655193
1855	1.8550e+000	-155.014038	-50.461012
1856	1.8560e+000	-153.488159	-50.415704
1857	1.8570e+000	-152.709961	-50.441594
1858	1.8580e+000	-151.466370	-50.389813
1859	1.8590e+000	-150.047302	-50.292723
1860	1.8600e+000	-148.986816	-50.409231
1861	1.8610e+000	-147.705078	-50.273305
1862	1.8620e+000	-146.301270	-50.305668
1863	1.8630e+000	-145.439148	-50.124433
1864	1.8640e+000	-144.012451	-50.066179
1865	1.8650e+000	-142.860413	-50.163269
1866	1.8660e+000	-141.784668	-50.150324
1867	1.8670e+000	-140.350342	-49.982034
1868	1.8680e+000	-139.099121	-49.891416
1869	1.8690e+000	-138.031006	-49.904362
1870	1.8700e+000	-136.901855	-49.871998
1871	1.8710e+000	-135.574341	-50.001452
1872	1.8720e+000	-134.529114	-49.729599
1873	1.8730e+000	-133.331299	-49.865526
1874	1.8740e+000	-132.247925	-49.736072
1875	1.8750e+000	-130.867004	-49.664873
1876	1.8760e+000	-129.661560	-49.470692
1877	1.8770e+000	-128.379822	-49.651927
1878	1.8780e+000	-127.258301	-49.865526
1879	1.8790e+000	-125.946045	-49.561310
1880	1.8800e+000	-124.885559	-49.205312
1881	1.8810e+000	-123.840332	-49.354184
1882	1.8820e+000	-122.604370	-49.438329
1883	1.8830e+000	-121.200562	-49.341239
1884	1.8840e+000	-120.162964	-49.373602
1885	1.8850e+000	-118.835449	-49.276512
1886	1.8860e+000	-117.614746	-49.205312
1887	1.8870e+000	-116.645813	-48.972296
1888	1.8880e+000	-115.341187	-49.101750
1889	1.8890e+000	-114.006042	-48.829897
1890	1.8900e+000	-112.983704	-49.017605
1891	1.8910e+000	-111.816406	-49.114695
1892	1.8920e+000	-110.397339	-48.939933
1893	1.8930e+000	-109.519958	-48.881678
1894	1.8940e+000	-108.108521	-48.920515
1895	1.8950e+000	-106.857300	-48.901096
1896	1.8960e+000	-105.728149	-48.700443
1897	1.8970e+000	-104.431152	-48.758698
1898	1.8980e+000	-103.157043	-48.745752
1899	1.8990e+000	-102.226257	-48.551572
1900	1.9000e+000	-100.936890	-48.558044
1901	1.9010e+000	-99.678040	-48.473900
1902	1.9020e+000	-98.434448	-48.545099
1903	1.9030e+000	-97.274780	-48.396227
1904	1.9040e+000	-96.153259	-48.383282
1905	1.9050e+000	-94.879150	-48.292665
1906	1.9060e+000	-93.559265	-48.234410
1907	1.9070e+000	-92.521667	-48.279719
1908	1.9080e+000	-91.423035	-48.221465
1909	1.9090e+000	-90.133667	-48.092011
1910	1.9100e+000	-88.935852	-48.098484
1911	1.9110e+000	-87.684631	-47.761905
1912	1.9120e+000	-86.524963	-47.891358
1913	1.9130e+000	-85.296631	-48.130848
1914	1.9140e+000	-84.152222	-47.897831
1915	1.9150e+000	-82.740784	-47.949613
1916	1.9160e+000	-81.642151	-47.878413
1917	1.9170e+000	-80.680847	-47.923722
1918	1.9180e+000	-79.238892	-47.658342
1919	1.9190e+000	-78.094482	-47.541834
1920	1.9200e+000	-76.972961	-47.548306
1921	1.9210e+000	-75.798035	-47.502998
1922	1.9220e+000	-74.577332	-47.567724
1923	1.9230e+000	-73.379517	-47.405907
1924	1.9240e+000	-71.937561	-47.101691
1925	1.9250e+000	-70.945740	-47.360599
1926	1.9260e+000	-69.671631	-47.289399
1927	1.9270e+000	-68.511963	-47.211727
1928	1.9280e+000	-67.436218	-47.276454
1929	1.9290e+000	-66.116333	-47.043437
1930	1.9300e+000	-65.093994	-47.172891
1931	1.9310e+000	-63.751221	-47.088746
1932	1.9320e+000	-62.438965	-46.985183
1933	1.9330e+000	-61.203003	-46.862202
1934	1.9340e+000	-60.104370	-46.998129
1935	1.9350e+000	-58.784485	-46.829839
1936	1.9360e+000	-57.731628	-46.545041
1937	1.9370e+000	-56.671143	-46.655077
1938	1.9380e+000	-55.267334	-46.719803
1939	1.9390e+000	-54.138184	-46.441478
1940	1.9400e+000	-53.070068	-46.583877
1941	1.9410e+000	-51.567078	-46.506205
1942	1.9420e+000	-50.331116	-46.396169
1943	1.9430e+000	-49.293518	-46.273188
1944	1.9440e+000	-48.042297	-46.312025
1945	1.9450e+000	-46.836853	-46.234352
1946	1.9460e+000	-45.753479	-46.376751
1947	1.9470e+000	-44.624329	-46.040172
1948	1.9480e+000	-43.167114	-45.994863
1949	1.9490e+000	-42.205811	-46.111371
1950	1.9500e+000	-40.893555	-46.072535
1951	1.9510e+000	-39.482117	-45.807155
1952	1.9520e+000	-38.406372	-45.703593
1953	1.9530e+000	-37.406921	-45.845992
1954	1.9540e+000	-36.018372	-45.295814
1955	1.9550e+000	-35.118103	-45.865410
1956	1.9560e+000	-33.691406	-45.593557
1957	1.9570e+000	-32.531738	-45.600030
1958	1.9580e+000	-31.356812	-45.561194
1959	1.9590e+000	-30.181885	-45.451158
1960	1.9600e+000	-28.770447	-45.418795
1961	1.9610e+000	-27.603149	-45.386431
1962	1.9620e+000	-26.390076	-45.256978
1963	1.9630e+000	-25.215149	-45.140469
1964	1.9640e+000	-24.192810	-45.166360
1965	1.9650e+000	-22.842407	-44.972180
1966	1.9660e+000	-21.598816	-44.939816
1967	1.9670e+000	-20.568848	-44.959234
1968	1.9680e+000	-19.309998	-44.868617
1969	1.9690e+000	-17.967224	-44.693855
1970	1.9700e+000	-17.135620	-44.810363
1971	1.9710e+000	-15.617371	-44.551456
1972	1.9720e+000	-14.183044	-44.499674
1973	1.9730e+000	-13.420105	-44.596764
1974	1.9740e+000	-12.115479	-44.512620
1975	1.9750e+000	-10.635376	-44.480256
1976	1.9760e+000	-9.811401	-44.396111
1977	1.9770e+000	-8.460999	-44.260185
1978	1.9780e+000	-7.362366	-44.176040
1979	1.9790e+000	-6.355286	-44.104841
1980	1.9800e+000	-4.959106	-43.975387
1981	1.9810e+000	-3.768921	-44.053059
1982	1.9820e+000	-2.662659	-43.891242
1983	1.9830e+000	-1.373291	-43.917133
1984	1.9840e+000	-0.122070	-43.832988
1985	1.9850e+000	0.961304	-43.768261
1986	1.9860e+000	2.273560	-43.716480
1987	1.9870e+000	3.387451	-43.541718
1988	1.9880e+000	4.539490	-43.489936
1989	1.9890e+000	5.516052	-43.347537
1990	1.9900e+000	7.011414	-43.276338
1991	1.9910e+000	8.033752	-43.399319
1992	1.9920e+000	9.346008	-43.179247
1993	1.9930e+000	10.581970	-43.095103
1994	1.9940e+000	11.833191	-43.056267
1995	1.9950e+000	13.031006	-42.829723
1996	1.9960e+000	14.205933	-42.900922
1997	1.9970e+000	15.518188	-42.654960
1998	1.9980e+000	16.746521	-42.564343
1999	1.9990e+000	17.890930	-42.311908
2000	2.0000e+000	18.989563	-42.396053
2001	2.0010e+000	20.301819	-42.130673

Center data before PMax,±Pr and ±Vc Calc.

PMax (µC/cm2):	5.42e+001
Pr (µC/cm2):	3.37e+001
-Pr (µC/cm2):	-4.21e+001
Vc:	9.30e-001
-Vc:	-4.42e-001
C (Max-Eff) (nF):	1.12e+000
K (Eff):	2.04e+003
Vert. (±Pr) Shift (µC/cm2):	-4.23e+000
Horiz. Shift (±Vc):	2.44e-001
Offset (µC/cm2):	4.14e+001

A (Loop Area - µC/cm2·Volts):	1.24e+002



Hysteresis Version: 5.16.2 - Radiant Technologies, Inc., 1999 - 3/20/18

