»»»»»»»»»»»»»»»»»»»»»»»»»»»»»»»»»»»» Hysteresis ««««««««««««««««««««««««««««««««««««
»»»  Executed Version:	5.12.0
»»»  Vision Version:	5.12.5 (R)
»»»  Vision Compiled:	2/24/17
»»»  Driver Version:	5.12.4
»»»  Windows Version:	Windows 7
»»»  Processor Information:	x86 (AMD or Intel) - 2 Processors
»»»  Tester Name:	PMF0910-256
»»»  Tester S/N:	PMF0910-256
»»»  Internal Amp Type:	 RTI 100V      
»»»  Internal Amp S/N:	 iAB1-0000     
»»»  Execution Count:	1
»»»»»»»»»»»»»»»»»»»»»»»»»»»»»»»»»»»»»»»»»»««««««««««««««««««««««««««««««««««««««««««

Stored:	8/3/2017 - 10:44:14
Configured:	08/03/17 10:04:09 AM
Executed:	08/03/17 10:42:45 AM

»»»»»»»»»»»»»»»»»»»»»»»»»»»»»»»»»»» Sample Info ««««««««««««««««««««««««««««««««««««
Sample Name:	
Lot Name:	
Wafer Name:	
Die Row/Column:	0/0
Capacitor Number:	0
Sample Area (cm2):	4.91e-006
Sample Thickness (µm):	1.00e-001

Mux Loop Adjustment:	Disabled

Amplifier:	Internal

»»»»»»»»»»»»»»»»»»»»»»»»»»»»»»»»»»» Tester Info «««««««««««««««««««««««««««««««««««
Tester Name:	PMF0910-256
Tester Serial Number:	PMF0910-256
Return Signal Amp. Level:	16.67 [Index: 1]

»»»»»»»»»»»»»»»»»»»»»»»»»»»»»»»» Hysteresis Info ««««««««««««««««««««««««««««««««««
Task Name:	Hyst-1
Volts:	3.00
Field:	300.00 (kV/cm)
Hysteresis Period (ms):	2.00e+000
Preset:	Enabled
Preset Delay (ms):	1.00e+003
Profile:	Double Bipolar

»»»»»»»»»»»»»»»»»»»»»»»»»»»»»»»»»»»»»» Data «««««««««««««««««««««««««««««««««««««««
Points:	2001

Valid Data

Point	Time (ms)	Drive Voltage	Measured Polarization
   1	1.0000e-003	-0.0002	-9.998383
   2	2.0000e-003	0.0117	-9.718449
   3	3.0000e-003	0.0239	-9.803727
   4	4.0000e-003	0.0357	-9.705472
   5	5.0000e-003	0.0456	-9.555309
   6	6.0000e-003	0.0602	-9.477446
   7	7.0000e-003	0.0709	-9.472811
   8	8.0000e-003	0.0843	-9.254982
   9	9.0000e-003	0.0964	-9.242931
  10	1.0000e-002	0.1075	-9.074229
  11	1.1000e-002	0.1202	-8.892550
  12	1.2000e-002	0.1314	-8.719213
  13	1.3000e-002	0.1429	-8.446694
  14	1.4000e-002	0.1540	-8.195495
  15	1.5000e-002	0.1674	-7.915561
  16	1.6000e-002	0.1777	-7.468778
  17	1.7000e-002	0.1908	-7.123958
  18	1.8000e-002	0.2042	-6.785627
  19	1.9000e-002	0.2156	-6.472323
  20	2.0000e-002	0.2271	-5.871669
  21	2.1000e-002	0.2396	-5.523142
  22	2.2000e-002	0.2510	-5.197788
  23	2.3000e-002	0.2637	-4.754713
  24	2.4000e-002	0.2747	-4.442336
  25	2.5000e-002	0.2863	-3.941791
  26	2.6000e-002	0.2990	-3.539501
  27	2.7000e-002	0.3128	-3.184485
  28	2.8000e-002	0.3228	-2.560658
  29	2.9000e-002	0.3365	-2.157441
  30	3.0000e-002	0.3477	-1.705097
  31	3.1000e-002	0.3569	-1.233287
  32	3.2000e-002	0.3695	-0.672491
  33	3.3000e-002	0.3817	-0.017148
  34	3.4000e-002	0.3959	0.429634
  35	3.5000e-002	0.4076	0.886613
  36	3.6000e-002	0.4205	1.443701
  37	3.7000e-002	0.4305	1.803352
  38	3.8000e-002	0.4458	2.509676
  39	3.9000e-002	0.4559	2.833177
  40	4.0000e-002	0.4663	3.348552
  41	4.1000e-002	0.4787	3.873198
  42	4.2000e-002	0.4890	4.259729
  43	4.3000e-002	0.5034	4.871506
  44	4.4000e-002	0.5141	5.355366
  45	4.5000e-002	0.5260	5.803076
  46	4.6000e-002	0.5388	6.403730
  47	4.7000e-002	0.5499	6.788408
  48	4.8000e-002	0.5624	7.423358
  49	4.9000e-002	0.5767	7.984154
  50	5.0000e-002	0.5858	8.292823
  51	5.1000e-002	0.5996	8.907381
  52	5.2000e-002	0.6124	9.244785
  53	5.3000e-002	0.6227	9.729572
  54	5.4000e-002	0.6335	10.114250
  55	5.5000e-002	0.6474	10.464632
  56	5.6000e-002	0.6589	11.189495
  57	5.7000e-002	0.6735	11.457379
  58	5.8000e-002	0.6842	11.977389
  59	5.9000e-002	0.6950	12.495546
  60	6.0000e-002	0.7073	12.798654
  61	6.1000e-002	0.7196	13.337203
  62	6.2000e-002	0.7317	13.833113
  63	6.3000e-002	0.7450	14.149198
  64	6.4000e-002	0.7549	14.653451
  65	6.5000e-002	0.7674	14.968608
  66	6.6000e-002	0.7793	15.396852
  67	6.7000e-002	0.7921	15.830658
  68	6.8000e-002	0.8041	16.129131
  69	6.9000e-002	0.8138	16.691780
  70	7.0000e-002	0.8255	17.004158
  71	7.1000e-002	0.8408	17.384201
  72	7.2000e-002	0.8519	17.809664
  73	7.3000e-002	0.8615	18.008028
  74	7.4000e-002	0.8746	18.733818
  75	7.5000e-002	0.8875	19.005410
  76	7.6000e-002	0.8987	19.428092
  77	7.7000e-002	0.9103	19.826674
  78	7.8000e-002	0.9235	20.110316
  79	7.9000e-002	0.9375	20.576565
  80	8.0000e-002	0.9476	20.990905
  81	8.1000e-002	0.9606	21.175365
  82	8.2000e-002	0.9708	21.552627
  83	8.3000e-002	0.9831	21.803826
  84	8.4000e-002	0.9960	22.204262
  85	8.5000e-002	1.0069	22.435996
  86	8.6000e-002	1.0191	22.897610
  87	8.7000e-002	1.0296	23.282288
  88	8.8000e-002	1.0452	23.708678
  89	8.9000e-002	1.0529	24.098917
  90	9.0000e-002	1.0681	24.441883
  91	9.1000e-002	1.0803	24.757968
  92	9.2000e-002	1.0890	25.393845
  93	9.3000e-002	1.1040	25.570890
  94	9.4000e-002	1.1135	25.948152
  95	9.5000e-002	1.1247	26.263310
  96	9.6000e-002	1.1400	26.472798
  97	9.7000e-002	1.1501	26.928850
  98	9.8000e-002	1.1622	27.180049
  99	9.9000e-002	1.1745	27.459983
 100	1.0000e-001	1.1879	27.809438
 101	1.0100e-001	1.1981	28.173723
 102	1.0200e-001	1.2119	28.478685
 103	1.0300e-001	1.2253	28.874486
 104	1.0400e-001	1.2363	29.208183
 105	1.0500e-001	1.2471	29.694823
 106	1.0600e-001	1.2601	30.056328
 107	1.0700e-001	1.2694	30.399294
 108	1.0800e-001	1.2818	30.626393
 109	1.0900e-001	1.2936	30.807145
 110	1.1000e-001	1.3100	31.241878
 111	1.1100e-001	1.3189	31.345694
 112	1.1200e-001	1.3290	31.569086
 113	1.1300e-001	1.3433	31.760961
 114	1.1400e-001	1.3560	31.884244
 115	1.1500e-001	1.3670	32.127101
 116	1.1600e-001	1.3787	32.384789
 117	1.1700e-001	1.3908	32.555345
 118	1.1800e-001	1.4007	32.746293
 119	1.1900e-001	1.4130	32.851964
 120	1.2000e-001	1.4264	33.038278
 121	1.2100e-001	1.4389	33.147656
 122	1.2200e-001	1.4497	33.095748
 123	1.2300e-001	1.4620	33.389586
 124	1.2400e-001	1.4765	33.313577
 125	1.2500e-001	1.4879	33.375682
 126	1.2600e-001	1.4988	33.354362
 127	1.2700e-001	1.5122	33.255180
 128	1.2800e-001	1.5238	33.639858
 129	1.2900e-001	1.5341	33.467448
 130	1.3000e-001	1.5466	33.494330
 131	1.3100e-001	1.5562	33.663032
 132	1.3200e-001	1.5728	33.601854
 133	1.3300e-001	1.5806	33.833588
 134	1.3400e-001	1.5955	33.925354
 135	1.3500e-001	1.6074	33.868811
 136	1.3600e-001	1.6198	34.084787
 137	1.3700e-001	1.6297	33.947601
 138	1.3800e-001	1.6440	34.000436
 139	1.3900e-001	1.6554	34.050491
 140	1.4000e-001	1.6669	33.994874
 141	1.4100e-001	1.6782	34.051417
 142	1.4200e-001	1.6919	34.030098
 143	1.4300e-001	1.7027	34.067175
 144	1.4400e-001	1.7172	34.108887
 145	1.4500e-001	1.7288	34.044002
 146	1.4600e-001	1.7382	34.461123
 147	1.4700e-001	1.7519	34.323936
 148	1.4800e-001	1.7619	34.462050
 149	1.4900e-001	1.7747	34.458342
 150	1.5000e-001	1.7879	34.400872
 151	1.5100e-001	1.7972	34.535278
 152	1.5200e-001	1.8125	34.437022
 153	1.5300e-001	1.8227	34.500981
 154	1.5400e-001	1.8365	34.548255
 155	1.5500e-001	1.8465	34.411995
 156	1.5600e-001	1.8578	34.520447
 157	1.5700e-001	1.8719	34.433315
 158	1.5800e-001	1.8832	34.482442
 159	1.5900e-001	1.8959	34.651144
 160	1.6000e-001	1.9073	34.576990
 161	1.6100e-001	1.9186	34.746619
 162	1.6200e-001	1.9321	34.789258
 163	1.6300e-001	1.9424	34.692856
 164	1.6400e-001	1.9556	35.187840
 165	1.6500e-001	1.9671	34.861559
 166	1.6600e-001	1.9799	34.939421
 167	1.6700e-001	1.9918	34.952398
 168	1.6800e-001	2.0040	34.798527
 169	1.6900e-001	2.0141	34.924590
 170	1.7000e-001	2.0282	34.835604
 171	1.7100e-001	2.0396	34.862486
 172	1.7200e-001	2.0526	34.906978
 173	1.7300e-001	2.0652	34.871755
 174	1.7400e-001	2.0761	35.104416
 175	1.7500e-001	2.0885	34.966302
 176	1.7600e-001	2.0988	35.028407
 177	1.7700e-001	2.1115	35.183205
 178	1.7800e-001	2.1238	35.154470
 179	1.7900e-001	2.1362	35.275899
 180	1.8000e-001	2.1474	35.209159
 181	1.8100e-001	2.1587	35.220282
 182	1.8200e-001	2.1712	35.446455
 183	1.8300e-001	2.1832	35.211013
 184	1.8400e-001	2.1941	35.243456
 185	1.8500e-001	2.2083	35.114612
 186	1.8600e-001	2.2193	35.169301
 187	1.8700e-001	2.2311	35.216575
 188	1.8800e-001	2.2446	35.163739
 189	1.8900e-001	2.2563	35.324099
 190	1.9000e-001	2.2673	35.327807
 191	1.9100e-001	2.2794	35.358396
 192	1.9200e-001	2.2921	35.525244
 193	1.9300e-001	2.3009	35.463139
 194	1.9400e-001	2.3174	35.521536
 195	1.9500e-001	2.3254	35.602180
 196	1.9600e-001	2.3389	35.478897
 197	1.9700e-001	2.3501	35.542856
 198	1.9800e-001	2.3627	35.400108
 199	1.9900e-001	2.3763	35.413085
 200	2.0000e-001	2.3893	35.704142
 201	2.0100e-001	2.3981	35.561394
 202	2.0200e-001	2.4112	35.531733
 203	2.0300e-001	2.4229	35.593837
 204	2.0400e-001	2.4342	35.552125
 205	2.0500e-001	2.4460	35.697654
 206	2.0600e-001	2.4594	35.762539
 207	2.0700e-001	2.4697	35.750489
 208	2.0800e-001	2.4834	35.833913
 209	2.0900e-001	2.4938	35.808886
 210	2.1000e-001	2.5085	35.781078
 211	2.1100e-001	2.5201	35.844110
 212	2.1200e-001	2.5302	35.797763
 213	2.1300e-001	2.5452	35.841329
 214	2.1400e-001	2.5561	35.804251
 215	2.1500e-001	2.5665	35.845037
 216	2.1600e-001	2.5790	35.854306
 217	2.1700e-001	2.5920	35.809813
 218	2.1800e-001	2.6025	36.067501
 219	2.1900e-001	2.6154	35.921045
 220	2.2000e-001	2.6302	35.947926
 221	2.2100e-001	2.6382	36.017446
 222	2.2200e-001	2.6514	35.986858
 223	2.2300e-001	2.6630	36.107359
 224	2.2400e-001	2.6752	36.057305
 225	2.2500e-001	2.6872	36.048962
 226	2.2600e-001	2.7016	36.074916
 227	2.2700e-001	2.7101	35.980369
 228	2.2800e-001	2.7223	36.048035
 229	2.2900e-001	2.7338	36.002615
 230	2.3000e-001	2.7484	35.997054
 231	2.3100e-001	2.7594	36.157414
 232	2.3200e-001	2.7695	36.198199
 233	2.3300e-001	2.7840	36.221372
 234	2.3400e-001	2.7975	36.251034
 235	2.3500e-001	2.8091	36.144437
 236	2.3600e-001	2.8204	36.437348
 237	2.3700e-001	2.8329	36.264011
 238	2.3800e-001	2.8443	36.292746
 239	2.3900e-001	2.8555	36.299235
 240	2.4000e-001	2.8683	36.198199
 241	2.4100e-001	2.8792	36.334458
 242	2.4200e-001	2.8892	36.285331
 243	2.4300e-001	2.9051	36.273280
 244	2.4400e-001	2.9178	36.331677
 245	2.4500e-001	2.9292	36.297381
 246	2.4600e-001	2.9408	36.317773
 247	2.4700e-001	2.9524	36.382659
 248	2.4800e-001	2.9646	36.416955
 249	2.4900e-001	2.9768	36.479060
 250	2.5000e-001	2.9855	36.438275
 251	2.5100e-001	3.0011	36.604196
 252	2.5200e-001	2.9901	36.513357
 253	2.5300e-001	2.9767	36.466083
 254	2.5400e-001	2.9641	36.683913
 255	2.5500e-001	2.9530	36.452179
 256	2.5600e-001	2.9402	36.493891
 257	2.5700e-001	2.9292	36.345581
 258	2.5800e-001	2.9185	36.312212
 259	2.5900e-001	2.9037	36.416028
 260	2.6000e-001	2.8928	36.234349
 261	2.6100e-001	2.8802	36.352997
 262	2.6200e-001	2.8680	36.279769
 263	2.6300e-001	2.8551	36.241765
 264	2.6400e-001	2.8434	36.470718
 265	2.6500e-001	2.8317	36.196345
 266	2.6600e-001	2.8195	36.384513
 267	2.6700e-001	2.8072	36.432713
 268	2.6800e-001	2.7948	36.274207
 269	2.6900e-001	2.7838	36.336312
 270	2.7000e-001	2.7734	36.299235
 271	2.7100e-001	2.7586	36.266792
 272	2.7200e-001	2.7481	36.395636
 273	2.7300e-001	2.7364	36.142583
 274	2.7400e-001	2.7248	36.177806
 275	2.7500e-001	2.7135	36.117555
 276	2.7600e-001	2.6982	36.073063
 277	2.7700e-001	2.6879	36.093455
 278	2.7800e-001	2.6758	36.064720
 279	2.7900e-001	2.6630	36.135167
 280	2.8000e-001	2.6527	36.146290
 281	2.8100e-001	2.6388	36.110140
 282	2.8200e-001	2.6283	36.198199
 283	2.8300e-001	2.6172	36.085113
 284	2.8400e-001	2.6033	36.106432
 285	2.8500e-001	2.5917	35.924753
 286	2.8600e-001	2.5801	36.039693
 287	2.8700e-001	2.5665	36.019300
 288	2.8800e-001	2.5546	35.886749
 289	2.8900e-001	2.5439	35.997054
 290	2.9000e-001	2.5325	36.086967
 291	2.9100e-001	2.5195	35.910849
 292	2.9200e-001	2.5070	35.945146
 293	2.9300e-001	2.4946	35.854306
 294	2.9400e-001	2.4823	35.889529
 295	2.9500e-001	2.4711	35.906214
 296	2.9600e-001	2.4616	35.826498
 297	2.9700e-001	2.4481	35.928461
 298	2.9800e-001	2.4338	35.840402
 299	2.9900e-001	2.4246	35.851525
 300	3.0000e-001	2.4136	35.794055
 301	3.0100e-001	2.4012	35.774589
 302	3.0200e-001	2.3881	35.705996
 303	3.0300e-001	2.3768	35.740293
 304	3.0400e-001	2.3636	35.612376
 305	3.0500e-001	2.3524	35.692092
 306	3.0600e-001	2.3400	35.670773
 307	3.0700e-001	2.3273	35.723608
 308	3.0800e-001	2.3164	35.856160
 309	3.0900e-001	2.3013	35.725462
 310	3.1000e-001	2.2910	35.706923
 311	3.1100e-001	2.2784	35.716193
 312	3.1200e-001	2.2650	35.691165
 313	3.1300e-001	2.2559	35.654088
 314	3.1400e-001	2.2426	35.603107
 315	3.1500e-001	2.2314	35.556760
 316	3.1600e-001	2.2198	35.519682
 317	3.1700e-001	2.2070	35.507632
 318	3.1800e-001	2.1929	35.457578
 319	3.1900e-001	2.1839	35.396400
 320	3.2000e-001	2.1723	35.494655
 321	3.2100e-001	2.1600	35.533586
 322	3.2200e-001	2.1481	35.457578
 323	3.2300e-001	2.1368	35.547490
 324	3.2400e-001	2.1202	35.552125
 325	3.2500e-001	2.1117	35.655015
 326	3.2600e-001	2.1001	35.600326
 327	3.2700e-001	2.0869	35.439966
 328	3.2800e-001	2.0776	35.403816
 329	3.2900e-001	2.0632	35.326880
 330	3.3000e-001	2.0517	35.283314
 331	3.3100e-001	2.0425	35.325953
 332	3.3200e-001	2.0251	35.185986
 333	3.3300e-001	2.0171	35.243456
 334	3.3400e-001	2.0036	35.214721
 335	3.3500e-001	1.9918	35.106269
 336	3.3600e-001	1.9814	35.294437
 337	3.3700e-001	1.9667	35.185059
 338	3.3800e-001	1.9559	35.286095
 339	3.3900e-001	1.9447	35.370446
 340	3.4000e-001	1.9307	35.261994
 341	3.4100e-001	1.9187	35.299072
 342	3.4200e-001	1.9073	35.315757
 343	3.4300e-001	1.8961	35.294437
 344	3.4400e-001	1.8838	35.363957
 345	3.4500e-001	1.8729	34.950544
 346	3.4600e-001	1.8589	34.974645
 347	3.4700e-001	1.8462	34.872682
 348	3.4800e-001	1.8348	34.919029
 349	3.4900e-001	1.8216	34.946837
 350	3.5000e-001	1.8109	34.894928
 351	3.5100e-001	1.7986	35.021918
 352	3.5200e-001	1.7890	34.992256
 353	3.5300e-001	1.7770	35.056215
 354	3.5400e-001	1.7614	35.111831
 355	3.5500e-001	1.7511	34.989476
 356	3.5600e-001	1.7406	35.080315
 357	3.5700e-001	1.7265	35.074754
 358	3.5800e-001	1.7148	34.935713
 359	3.5900e-001	1.7033	34.944056
 360	3.6000e-001	1.6920	34.778134
 361	3.6100e-001	1.6766	34.877316
 362	3.6200e-001	1.6675	34.811504
 363	3.6300e-001	1.6560	34.516739
 364	3.6400e-001	1.6428	34.737349
 365	3.6500e-001	1.6286	34.657633
 366	3.6600e-001	1.6199	34.832824
 367	3.6700e-001	1.6067	34.899563
 368	3.6800e-001	1.5936	34.810577
 369	3.6900e-001	1.5823	34.953325
 370	3.7000e-001	1.5746	34.804089
 371	3.7100e-001	1.5588	34.745692
 372	3.7200e-001	1.5472	34.724372
 373	3.7300e-001	1.5336	34.578843
 374	3.7400e-001	1.5224	34.570501
 375	3.7500e-001	1.5097	34.510250
 376	3.7600e-001	1.4989	34.471319
 377	3.7700e-001	1.4858	34.482442
 378	3.7800e-001	1.4735	34.533424
 379	3.7900e-001	1.4627	34.683587
 380	3.8000e-001	1.4504	34.467611
 381	3.8100e-001	1.4407	34.523227
 382	3.8200e-001	1.4275	34.503762
 383	3.8300e-001	1.4165	34.449999
 384	3.8400e-001	1.4010	34.508396
 385	3.8500e-001	1.3888	34.513958
 386	3.8600e-001	1.3786	34.443511
 387	3.8700e-001	1.3689	34.461123
 388	3.8800e-001	1.3528	34.247001
 389	3.8900e-001	1.3432	34.313740
 390	3.9000e-001	1.3322	34.247928
 391	3.9100e-001	1.3190	34.142257
 392	3.9200e-001	1.3087	34.226608
 393	3.9300e-001	1.2943	34.124645
 394	3.9400e-001	1.2812	34.221047
 395	3.9500e-001	1.2719	34.282224
 396	3.9600e-001	1.2583	34.338767
 397	3.9700e-001	1.2472	34.499127
 398	3.9800e-001	1.2360	34.306325
 399	3.9900e-001	1.2246	34.217339
 400	4.0000e-001	1.2115	34.170992
 401	4.0100e-001	1.1987	34.027317
 402	4.0200e-001	1.1872	33.977263
 403	4.0300e-001	1.1735	33.962432
 404	4.0400e-001	1.1649	33.810414
 405	4.0500e-001	1.1512	33.962432
 406	4.0600e-001	1.1396	33.768702
 407	4.0700e-001	1.1271	33.849346
 408	4.0800e-001	1.1144	33.917012
 409	4.0900e-001	1.1037	33.940185
 410	4.1000e-001	1.0919	34.001363
 411	4.1100e-001	1.0799	34.030098
 412	4.1200e-001	1.0669	34.021756
 413	4.1300e-001	1.0548	34.044929
 414	4.1400e-001	1.0438	34.005998
 415	4.1500e-001	1.0299	33.977263
 416	4.1600e-001	1.0211	33.781679
 417	4.1700e-001	1.0072	33.741821
 418	4.1800e-001	0.9961	33.639858
 419	4.1900e-001	0.9843	33.474864
 420	4.2000e-001	0.9719	33.618539
 421	4.2100e-001	0.9612	33.560142
 422	4.2200e-001	0.9458	33.596292
 423	4.2300e-001	0.9350	33.697328
 424	4.2400e-001	0.9248	33.700109
 425	4.2500e-001	0.9103	33.634297
 426	4.2600e-001	0.8983	33.688986
 427	4.2700e-001	0.8872	33.610196
 428	4.2800e-001	0.8750	33.677863
 429	4.2900e-001	0.8640	33.544384
 430	4.3000e-001	0.8508	33.516576
 431	4.3100e-001	0.8398	33.497110
 432	4.3200e-001	0.8282	33.409052
 433	4.3300e-001	0.8157	33.543457
 434	4.3400e-001	0.8040	33.272792
 435	4.3500e-001	0.7915	33.231080
 436	4.3600e-001	0.7807	33.290404
 437	4.3700e-001	0.7678	33.138387
 438	4.3800e-001	0.7545	33.219030
 439	4.3900e-001	0.7428	33.288550
 440	4.4000e-001	0.7316	33.249619
 441	4.4100e-001	0.7167	33.265377
 442	4.4200e-001	0.7072	33.227372
 443	4.4300e-001	0.6960	33.131898
 444	4.4400e-001	0.6836	33.153218
 445	4.4500e-001	0.6722	32.978027
 446	4.4600e-001	0.6561	33.051255
 447	4.4700e-001	0.6480	32.911288
 448	4.4800e-001	0.6373	32.907580
 449	4.4900e-001	0.6218	32.872356
 450	4.5000e-001	0.6132	32.844548
 451	4.5100e-001	0.5983	33.024374
 452	4.5200e-001	0.5869	32.759270
 453	4.5300e-001	0.5743	32.830644
 454	4.5400e-001	0.5625	32.846402
 455	4.5500e-001	0.5505	32.697166
 456	4.5600e-001	0.5360	32.828790
 457	4.5700e-001	0.5288	32.694385
 458	4.5800e-001	0.5154	32.633207
 459	4.5900e-001	0.5043	32.730535
 460	4.6000e-001	0.4916	32.293949
 461	4.6100e-001	0.4774	32.484897
 462	4.6200e-001	0.4676	32.347711
 463	4.6300e-001	0.4548	32.202182
 464	4.6400e-001	0.4445	32.359761
 465	4.6500e-001	0.4295	32.233698
 466	4.6600e-001	0.4205	32.225356
 467	4.6700e-001	0.4071	32.305999
 468	4.6800e-001	0.3956	32.167886
 469	4.6900e-001	0.3812	32.355127
 470	4.7000e-001	0.3711	32.022357
 471	4.7100e-001	0.3587	31.994549
 472	4.7200e-001	0.3481	31.904636
 473	4.7300e-001	0.3336	31.633044
 474	4.7400e-001	0.3236	31.644168
 475	4.7500e-001	0.3098	31.494004
 476	4.7600e-001	0.2984	31.412434
 477	4.7700e-001	0.2858	31.370722
 478	4.7800e-001	0.2776	31.164942
 479	4.7900e-001	0.2639	31.115815
 480	4.8000e-001	0.2489	30.865542
 481	4.8100e-001	0.2398	30.796022
 482	4.8200e-001	0.2263	30.624539
 483	4.8300e-001	0.2146	30.375194
 484	4.8400e-001	0.2042	30.253765
 485	4.8500e-001	0.1908	29.967342
 486	4.8600e-001	0.1777	29.639207
 487	4.8700e-001	0.1677	29.478848
 488	4.8800e-001	0.1550	28.928248
 489	4.8900e-001	0.1421	28.803112
 490	4.9000e-001	0.1303	28.335010
 491	4.9100e-001	0.1177	27.785337
 492	4.9200e-001	0.1053	27.476668
 493	4.9300e-001	0.0943	26.986320
 494	4.9400e-001	0.0829	26.560856
 495	4.9500e-001	0.0708	26.003769
 496	4.9600e-001	0.0597	25.528251
 497	4.9700e-001	0.0465	25.050879
 498	4.9800e-001	0.0362	24.400171
 499	4.9900e-001	0.0240	23.773563
 500	5.0000e-001	0.0090	23.257260
 501	5.0100e-001	-0.0015	22.436923
 502	5.0200e-001	-0.0153	21.796411
 503	5.0300e-001	-0.0259	21.017786
 504	5.0400e-001	-0.0340	20.160371
 505	5.0500e-001	-0.0478	19.687634
 506	5.0600e-001	-0.0609	18.789434
 507	5.0700e-001	-0.0718	18.144287
 508	5.0800e-001	-0.0853	17.378639
 509	5.0900e-001	-0.0962	16.483220
 510	5.1000e-001	-0.1092	15.776896
 511	5.1100e-001	-0.1209	14.972316
 512	5.1200e-001	-0.1305	14.276188
 513	5.1300e-001	-0.1440	13.568937
 514	5.1400e-001	-0.1551	12.678152
 515	5.1500e-001	-0.1675	11.931043
 516	5.1600e-001	-0.1794	11.064359
 517	5.1700e-001	-0.1920	10.290368
 518	5.1800e-001	-0.2039	9.527500
 519	5.1900e-001	-0.2168	8.682136
 520	5.2000e-001	-0.2288	7.933172
 521	5.2100e-001	-0.2396	7.039607
 522	5.2200e-001	-0.2550	6.108038
 523	5.2300e-001	-0.2648	5.537046
 524	5.2400e-001	-0.2775	4.514636
 525	5.2500e-001	-0.2877	4.012238
 526	5.2600e-001	-0.3016	3.315183
 527	5.2700e-001	-0.3107	2.315020
 528	5.2800e-001	-0.3236	1.665239
 529	5.2900e-001	-0.3380	0.932033
 530	5.3000e-001	-0.3485	0.215512
 531	5.3100e-001	-0.3593	-0.334160
 532	5.3200e-001	-0.3727	-1.186013
 533	5.3300e-001	-0.3839	-1.735686
 534	5.3400e-001	-0.3972	-2.500407
 535	5.3500e-001	-0.4094	-3.211366
 536	5.3600e-001	-0.4200	-3.698934
 537	5.3700e-001	-0.4339	-4.434920
 538	5.3800e-001	-0.4433	-4.979031
 539	5.3900e-001	-0.4559	-5.532411
 540	5.4000e-001	-0.4679	-6.449150
 541	5.4100e-001	-0.4822	-6.578921
 542	5.4200e-001	-0.4932	-7.239825
 543	5.4300e-001	-0.5059	-7.644896
 544	5.4400e-001	-0.5155	-8.100948
 545	5.4500e-001	-0.5267	-8.781318
 546	5.4600e-001	-0.5408	-9.211416
 547	5.4700e-001	-0.5521	-9.740696
 548	5.4800e-001	-0.5636	-10.256071
 549	5.4900e-001	-0.5766	-10.514686
 550	5.5000e-001	-0.5865	-11.158906
 551	5.5100e-001	-0.6003	-11.530607
 552	5.5200e-001	-0.6114	-12.012613
 553	5.5300e-001	-0.6242	-12.410268
 554	5.5400e-001	-0.6353	-12.719864
 555	5.5500e-001	-0.6495	-13.223190
 556	5.5600e-001	-0.6637	-13.613430
 557	5.5700e-001	-0.6746	-13.994400
 558	5.5800e-001	-0.6833	-14.566319
 559	5.5900e-001	-0.6959	-14.629350
 560	5.6000e-001	-0.7079	-15.192000
 561	5.6100e-001	-0.7197	-15.353286
 562	5.6200e-001	-0.7323	-15.826950
 563	5.6300e-001	-0.7459	-16.309883
 564	5.6400e-001	-0.7565	-16.545325
 565	5.6500e-001	-0.7673	-17.092216
 566	5.6600e-001	-0.7826	-17.238672
 567	5.6700e-001	-0.7938	-17.454648
 568	5.6800e-001	-0.8037	-17.933873
 569	5.6900e-001	-0.8180	-18.160045
 570	5.7000e-001	-0.8281	-18.505792
 571	5.7100e-001	-0.8408	-18.860808
 572	5.7200e-001	-0.8541	-19.089761
 573	5.7300e-001	-0.8653	-19.453120
 574	5.7400e-001	-0.8763	-19.653337
 575	5.7500e-001	-0.8880	-19.930491
 576	5.7600e-001	-0.9000	-20.551537
 577	5.7700e-001	-0.9129	-20.587688
 578	5.7800e-001	-0.9224	-21.019640
 579	5.7900e-001	-0.9365	-21.248592
 580	5.8000e-001	-0.9489	-21.489596
 581	5.8100e-001	-0.9605	-21.922474
 582	5.8200e-001	-0.9722	-22.080053
 583	5.8300e-001	-0.9856	-22.242267
 584	5.8400e-001	-0.9985	-22.573182
 585	5.8500e-001	-1.0085	-22.793793
 586	5.8600e-001	-1.0228	-22.955080
 587	5.8700e-001	-1.0342	-23.130270
 588	5.8800e-001	-1.0460	-23.500117
 589	5.8900e-001	-1.0569	-23.612276
 590	5.9000e-001	-1.0671	-23.881088
 591	5.9100e-001	-1.0826	-24.161949
 592	5.9200e-001	-1.0927	-24.348263
 593	5.9300e-001	-1.1064	-24.724598
 594	5.9400e-001	-1.1155	-25.117619
 595	5.9500e-001	-1.1289	-25.180650
 596	5.9600e-001	-1.1417	-25.480977
 597	5.9700e-001	-1.1539	-25.522689
 598	5.9800e-001	-1.1653	-25.695099
 599	5.9900e-001	-1.1765	-25.987084
 600	6.0000e-001	-1.1880	-26.024161
 601	6.0100e-001	-1.2004	-26.189156
 602	6.0200e-001	-1.2142	-26.323561
 603	6.0300e-001	-1.2254	-26.486702
 604	6.0400e-001	-1.2370	-26.959438
 605	6.0500e-001	-1.2486	-26.827814
 606	6.0600e-001	-1.2614	-27.151314
 607	6.0700e-001	-1.2733	-27.342263
 608	6.0800e-001	-1.2848	-27.505403
 609	6.0900e-001	-1.2969	-27.726014
 610	6.1000e-001	-1.3071	-27.865981
 611	6.1100e-001	-1.3221	-28.028194
 612	6.1200e-001	-1.3326	-28.450877
 613	6.1300e-001	-1.3462	-28.292371
 614	6.1400e-001	-1.3578	-28.466635
 615	6.1500e-001	-1.3718	-28.544497
 616	6.1600e-001	-1.3814	-28.576940
 617	6.1700e-001	-1.3914	-28.828139
 618	6.1800e-001	-1.4047	-28.876340
 619	6.1900e-001	-1.4191	-29.119197
 620	6.2000e-001	-1.4294	-29.215598
 621	6.2100e-001	-1.4417	-29.368542
 622	6.2200e-001	-1.4516	-29.590080
 623	6.2300e-001	-1.4646	-29.715216
 624	6.2400e-001	-1.4756	-29.806056
 625	6.2500e-001	-1.4905	-29.993296
 626	6.2600e-001	-1.5011	-30.024812
 627	6.2700e-001	-1.5147	-30.143460
 628	6.2800e-001	-1.5254	-30.132337
 629	6.2900e-001	-1.5374	-30.337189
 630	6.3000e-001	-1.5479	-30.598585
 631	6.3100e-001	-1.5627	-30.479937
 632	6.3200e-001	-1.5718	-30.714452
 633	6.3300e-001	-1.5858	-30.734844
 634	6.3400e-001	-1.5965	-30.839588
 635	6.3500e-001	-1.6088	-31.105618
 636	6.3600e-001	-1.6197	-31.041660
 637	6.3700e-001	-1.6335	-31.339206
 638	6.3800e-001	-1.6441	-31.397603
 639	6.3900e-001	-1.6582	-31.420776
 640	6.4000e-001	-1.6685	-31.560743
 641	6.4100e-001	-1.6824	-31.534789
 642	6.4200e-001	-1.6924	-31.686807
 643	6.4300e-001	-1.7064	-31.697003
 644	6.4400e-001	-1.7176	-31.579282
 645	6.4500e-001	-1.7297	-31.941714
 646	6.4600e-001	-1.7400	-31.856436
 647	6.4700e-001	-1.7532	-32.071485
 648	6.4800e-001	-1.7648	-32.273556
 649	6.4900e-001	-1.7741	-32.316195
 650	6.5000e-001	-1.7906	-32.532171
 651	6.5100e-001	-1.8007	-32.530317
 652	6.5200e-001	-1.8128	-32.536806
 653	6.5300e-001	-1.8256	-32.768540
 654	6.5400e-001	-1.8374	-32.734243
 655	6.5500e-001	-1.8488	-32.872356
 656	6.5600e-001	-1.8618	-32.741658
 657	6.5700e-001	-1.8715	-32.781517
 658	6.5800e-001	-1.8839	-32.894603
 659	6.5900e-001	-1.8970	-32.784297
 660	6.6000e-001	-1.9078	-33.091113
 661	6.6100e-001	-1.9201	-33.018812
 662	6.6200e-001	-1.9328	-33.105017
 663	6.6300e-001	-1.9444	-33.165268
 664	6.6400e-001	-1.9577	-33.291331
 665	6.6500e-001	-1.9703	-33.566631
 666	6.6600e-001	-1.9822	-33.686205
 667	6.6700e-001	-1.9949	-33.593512
 668	6.6800e-001	-2.0077	-33.864177
 669	6.6900e-001	-2.0179	-33.720502
 670	6.7000e-001	-2.0314	-33.670447
 671	6.7100e-001	-2.0419	-33.742748
 672	6.7200e-001	-2.0518	-33.694548
 673	6.7300e-001	-2.0662	-33.841003
 674	6.7400e-001	-2.0771	-33.610196
 675	6.7500e-001	-2.0898	-33.780752
 676	6.7600e-001	-2.1015	-33.933697
 677	6.7700e-001	-2.1138	-33.951309
 678	6.7800e-001	-2.1239	-34.190458
 679	6.7900e-001	-2.1382	-34.152453
 680	6.8000e-001	-2.1478	-34.299836
 681	6.8100e-001	-2.1620	-34.361941
 682	6.8200e-001	-2.1731	-34.310959
 683	6.8300e-001	-2.1868	-34.450926
 684	6.8400e-001	-2.1968	-34.533424
 685	6.8500e-001	-2.2095	-34.382333
 686	6.8600e-001	-2.2198	-34.494492
 687	6.8700e-001	-2.2330	-34.449073
 688	6.8800e-001	-2.2449	-34.486150
 689	6.8900e-001	-2.2588	-34.554743
 690	6.9000e-001	-2.2701	-34.483369
 691	6.9100e-001	-2.2826	-34.631679
 692	6.9200e-001	-2.2932	-34.611286
 693	6.9300e-001	-2.3049	-34.769792
 694	6.9400e-001	-2.3182	-34.855997
 695	6.9500e-001	-2.3290	-34.862486
 696	6.9600e-001	-2.3412	-35.003380
 697	6.9700e-001	-2.3551	-34.931079
 698	6.9800e-001	-2.3643	-34.907905
 699	6.9900e-001	-2.3762	-35.069192
 700	7.0000e-001	-2.3899	-34.908832
 701	7.0100e-001	-2.4008	-35.023772
 702	7.0200e-001	-2.4130	-35.079388
 703	7.0300e-001	-2.4251	-35.163739
 704	7.0400e-001	-2.4371	-35.208232
 705	7.0500e-001	-2.4513	-35.265702
 706	7.0600e-001	-2.4620	-35.208232
 707	7.0700e-001	-2.4727	-35.388985
 708	7.0800e-001	-2.4868	-35.375081
 709	7.0900e-001	-2.4995	-35.421427
 710	7.1000e-001	-2.5089	-35.474263
 711	7.1100e-001	-2.5240	-35.406596
 712	7.1200e-001	-2.5337	-35.468701
 713	7.1300e-001	-2.5477	-35.464993
 714	7.1400e-001	-2.5569	-35.522463
 715	7.1500e-001	-2.5723	-35.536367
 716	7.1600e-001	-2.5825	-35.549344
 717	7.1700e-001	-2.5947	-35.523390
 718	7.1800e-001	-2.6035	-35.516902
 719	7.1900e-001	-2.6171	-35.626280
 720	7.2000e-001	-2.6289	-35.650380
 721	7.2100e-001	-2.6410	-35.919191
 722	7.2200e-001	-2.6551	-35.923826
 723	7.2300e-001	-2.6669	-35.882114
 724	7.2400e-001	-2.6777	-35.771809
 725	7.2500e-001	-2.6902	-36.014666
 726	7.2600e-001	-2.7025	-35.906214
 727	7.2700e-001	-2.7164	-36.012812
 728	7.2800e-001	-2.7249	-35.771809
 729	7.2900e-001	-2.7391	-35.960903
 730	7.3000e-001	-2.7500	-35.893237
 731	7.3100e-001	-2.7627	-35.820936
 732	7.3200e-001	-2.7717	-35.934949
 733	7.3300e-001	-2.7846	-35.944219
 734	7.3400e-001	-2.7978	-36.031350
 735	7.3500e-001	-2.8110	-36.155560
 736	7.3600e-001	-2.8220	-36.082332
 737	7.3700e-001	-2.8355	-36.346508
 738	7.3800e-001	-2.8447	-36.272354
 739	7.3900e-001	-2.8567	-36.127752
 740	7.4000e-001	-2.8708	-36.504087
 741	7.4100e-001	-2.8806	-36.322408
 742	7.4200e-001	-2.8927	-36.245472
 743	7.4300e-001	-2.9046	-36.300162
 744	7.4400e-001	-2.9185	-36.276988
 745	7.4500e-001	-2.9321	-36.406759
 746	7.4600e-001	-2.9399	-36.271427
 747	7.4700e-001	-2.9530	-36.244545
 748	7.4800e-001	-2.9652	-36.355778
 749	7.4900e-001	-2.9778	-36.387293
 750	7.5000e-001	-2.9882	-36.577315
 751	7.5100e-001	-3.0025	-36.541165
 752	7.5200e-001	-2.9897	-36.606050
 753	7.5300e-001	-2.9786	-36.545799
 754	7.5400e-001	-2.9643	-36.510576
 755	7.5500e-001	-2.9549	-36.599562
 756	7.5600e-001	-2.9395	-36.479987
 757	7.5700e-001	-2.9275	-36.551361
 758	7.5800e-001	-2.9165	-36.524480
 759	7.5900e-001	-2.9045	-36.422517
 760	7.6000e-001	-2.8962	-36.464229
 761	7.6100e-001	-2.8829	-36.234349
 762	7.6200e-001	-2.8716	-36.365047
 763	7.6300e-001	-2.8587	-36.403051
 764	7.6400e-001	-2.8463	-36.270500
 765	7.6500e-001	-2.8333	-36.272354
 766	7.6600e-001	-2.8212	-36.333531
 767	7.6700e-001	-2.8093	-36.272354
 768	7.6800e-001	-2.7978	-36.421590
 769	7.6900e-001	-2.7860	-36.270500
 770	7.7000e-001	-2.7713	-36.337239
 771	7.7100e-001	-2.7619	-36.296454
 772	7.7200e-001	-2.7507	-36.198199
 773	7.7300e-001	-2.7364	-36.260303
 774	7.7400e-001	-2.7256	-36.119409
 775	7.7500e-001	-2.7137	-36.139802
 776	7.7600e-001	-2.7020	-36.213957
 777	7.7700e-001	-2.6897	-36.143510
 778	7.7800e-001	-2.6775	-36.002615
 779	7.7900e-001	-2.6652	-36.090674
 780	7.8000e-001	-2.6530	-36.086967
 781	7.8100e-001	-2.6394	-36.109213
 782	7.8200e-001	-2.6292	-36.077697
 783	7.8300e-001	-2.6177	-36.126825
 784	7.8400e-001	-2.6031	-35.999835
 785	7.8500e-001	-2.5941	-36.089747
 786	7.8600e-001	-2.5810	-36.025789
 787	7.8700e-001	-2.5684	-35.969246
 788	7.8800e-001	-2.5577	-35.984077
 789	7.8900e-001	-2.5455	-35.842256
 790	7.9000e-001	-2.5358	-35.873772
 791	7.9100e-001	-2.5208	-35.869137
 792	7.9200e-001	-2.5090	-35.732877
 793	7.9300e-001	-2.4959	-35.892310
 794	7.9400e-001	-2.4832	-35.920118
 795	7.9500e-001	-2.4744	-35.840402
 796	7.9600e-001	-2.4607	-35.790347
 797	7.9700e-001	-2.4496	-35.802398
 798	7.9800e-001	-2.4360	-35.914557
 799	7.9900e-001	-2.4258	-35.764393
 800	8.0000e-001	-2.4149	-35.687458
 801	8.0100e-001	-2.3988	-35.785713
 802	8.0200e-001	-2.3882	-35.642038
 803	8.0300e-001	-2.3775	-35.641111
 804	8.0400e-001	-2.3663	-35.688385
 805	8.0500e-001	-2.3530	-35.650380
 806	8.0600e-001	-2.3427	-35.667065
 807	8.0700e-001	-2.3296	-35.552125
 808	8.0800e-001	-2.3158	-35.458505
 809	8.0900e-001	-2.3060	-35.615157
 810	8.1000e-001	-2.2916	-35.489094
 811	8.1100e-001	-2.2820	-35.582714
 812	8.1200e-001	-2.2679	-35.657796
 813	8.1300e-001	-2.2561	-35.625353
 814	8.1400e-001	-2.2452	-35.510413
 815	8.1500e-001	-2.2319	-35.561394
 816	8.1600e-001	-2.2208	-35.495582
 817	8.1700e-001	-2.2073	-35.432551
 818	8.1800e-001	-2.1980	-35.293510
 819	8.1900e-001	-2.1844	-35.256433
 820	8.2000e-001	-2.1724	-35.209159
 821	8.2100e-001	-2.1626	-35.207305
 822	8.2200e-001	-2.1512	-35.260141
 823	8.2300e-001	-2.1382	-35.210086
 824	8.2400e-001	-2.1246	-35.317611
 825	8.2500e-001	-2.1133	-35.308341
 826	8.2600e-001	-2.1000	-35.239748
 827	8.2700e-001	-2.0905	-35.379715
 828	8.2800e-001	-2.0770	-35.197109
 829	8.2900e-001	-2.0640	-35.274045
 830	8.3000e-001	-2.0526	-35.293510
 831	8.3100e-001	-2.0423	-35.122954
 832	8.3200e-001	-2.0275	-35.032115
 833	8.3300e-001	-2.0158	-34.997818
 834	8.3400e-001	-2.0042	-34.939421
 835	8.3500e-001	-1.9927	-35.034895
 836	8.3600e-001	-1.9801	-34.715103
 837	8.3700e-001	-1.9680	-34.886586
 838	8.3800e-001	-1.9575	-34.820773
 839	8.3900e-001	-1.9443	-34.846728
 840	8.4000e-001	-1.9344	-34.981133
 841	8.4100e-001	-1.9185	-34.918102
 842	8.4200e-001	-1.9086	-34.975572
 843	8.4300e-001	-1.8954	-34.985768
 844	8.4400e-001	-1.8848	-34.806869
 845	8.4500e-001	-1.8732	-34.822627
 846	8.4600e-001	-1.8615	-34.821700
 847	8.4700e-001	-1.8487	-34.708614
 848	8.4800e-001	-1.8369	-34.644656
 849	8.4900e-001	-1.8251	-34.597382
 850	8.5000e-001	-1.8127	-34.457415
 851	8.5100e-001	-1.8000	-34.444438
 852	8.5200e-001	-1.7860	-34.496346
 853	8.5300e-001	-1.7789	-34.523227
 854	8.5400e-001	-1.7635	-34.562159
 855	8.5500e-001	-1.7526	-34.556597
 856	8.5600e-001	-1.7416	-34.504689
 857	8.5700e-001	-1.7283	-34.523227
 858	8.5800e-001	-1.7160	-34.587186
 859	8.5900e-001	-1.7063	-34.462050
 860	8.6000e-001	-1.6926	-34.589967
 861	8.6100e-001	-1.6804	-34.313740
 862	8.6200e-001	-1.6702	-34.395310
 863	8.6300e-001	-1.6566	-34.319302
 864	8.6400e-001	-1.6453	-34.007852
 865	8.6500e-001	-1.6325	-34.220120
 866	8.6600e-001	-1.6197	-34.189531
 867	8.6700e-001	-1.6088	-34.086641
 868	8.6800e-001	-1.5964	-34.028244
 869	8.6900e-001	-1.5865	-34.031952
 870	8.7000e-001	-1.5719	-34.101472
 871	8.7100e-001	-1.5615	-34.137622
 872	8.7200e-001	-1.5504	-34.069029
 873	8.7300e-001	-1.5363	-34.139476
 874	8.7400e-001	-1.5253	-34.029171
 875	8.7500e-001	-1.5140	-33.931843
 876	8.7600e-001	-1.4993	-33.904035
 877	8.7700e-001	-1.4891	-33.775191
 878	8.7800e-001	-1.4767	-33.747383
 879	8.7900e-001	-1.4664	-33.587950
 880	8.8000e-001	-1.4533	-33.620393
 881	8.8100e-001	-1.4413	-33.609270
 882	8.8200e-001	-1.4302	-33.587023
 883	8.8300e-001	-1.4174	-33.585169
 884	8.8400e-001	-1.4063	-33.663959
 885	8.8500e-001	-1.3905	-33.670447
 886	8.8600e-001	-1.3799	-33.486914
 887	8.8700e-001	-1.3691	-33.525845
 888	8.8800e-001	-1.3541	-33.558288
 889	8.8900e-001	-1.3438	-33.373828
 890	8.9000e-001	-1.3314	-33.287623
 891	8.9100e-001	-1.3196	-33.306162
 892	8.9200e-001	-1.3071	-33.082771
 893	8.9300e-001	-1.2965	-33.148583
 894	8.9400e-001	-1.2867	-33.098528
 895	8.9500e-001	-1.2721	-32.991931
 896	8.9600e-001	-1.2610	-33.083697
 897	8.9700e-001	-1.2488	-32.914995
 898	8.9800e-001	-1.2379	-32.984515
 899	8.9900e-001	-1.2254	-33.072574
 900	9.0000e-001	-1.2122	-32.994712
 901	9.0100e-001	-1.2013	-33.022520
 902	9.0200e-001	-1.1900	-32.945584
 903	9.0300e-001	-1.1790	-32.931680
 904	9.0400e-001	-1.1623	-32.672138
 905	9.0500e-001	-1.1517	-32.605399
 906	9.0600e-001	-1.1414	-32.580372
 907	9.0700e-001	-1.1285	-32.510852
 908	9.0800e-001	-1.1161	-32.341223
 909	9.0900e-001	-1.1034	-32.321757
 910	9.1000e-001	-1.0918	-32.282826
 911	9.1100e-001	-1.0818	-32.252237
 912	9.1200e-001	-1.0686	-32.308780
 913	9.1300e-001	-1.0594	-32.272629
 914	9.1400e-001	-1.0452	-32.256871
 915	9.1500e-001	-1.0327	-32.145639
 916	9.1600e-001	-1.0207	-32.147493
 917	9.1700e-001	-1.0098	-32.099293
 918	9.1800e-001	-0.9958	-32.022357
 919	9.1900e-001	-0.9837	-31.996403
 920	9.2000e-001	-0.9740	-31.744276
 921	9.2100e-001	-0.9618	-31.722030
 922	9.2200e-001	-0.9483	-31.453219
 923	9.2300e-001	-0.9370	-31.511616
 924	9.2400e-001	-0.9271	-31.341060
 925	9.2500e-001	-0.9137	-31.320667
 926	9.2600e-001	-0.9003	-31.326229
 927	9.2700e-001	-0.8891	-31.319740
 928	9.2800e-001	-0.8775	-31.161234
 929	9.2900e-001	-0.8667	-31.234462
 930	9.3000e-001	-0.8514	-31.195531
 931	9.3100e-001	-0.8419	-30.964724
 932	9.3200e-001	-0.8292	-30.896131
 933	9.3300e-001	-0.8177	-30.690351
 934	9.3400e-001	-0.8036	-30.596731
 935	9.3500e-001	-0.7941	-30.570777
 936	9.3600e-001	-0.7808	-30.375194
 937	9.3700e-001	-0.7713	-30.362217
 938	9.3800e-001	-0.7577	-30.250057
 939	9.3900e-001	-0.7432	-29.982173
 940	9.4000e-001	-0.7333	-29.984027
 941	9.4100e-001	-0.7195	-29.838498
 942	9.4200e-001	-0.7111	-29.882991
 943	9.4300e-001	-0.6951	-29.694823
 944	9.4400e-001	-0.6847	-29.550222
 945	9.4500e-001	-0.6710	-29.566906
 946	9.4600e-001	-0.6626	-29.352784
 947	9.4700e-001	-0.6478	-29.270287
 948	9.4800e-001	-0.6363	-29.188717
 949	9.4900e-001	-0.6245	-28.921760
 950	9.5000e-001	-0.6123	-28.823505
 951	9.5100e-001	-0.6001	-28.523178
 952	9.5200e-001	-0.5897	-28.411945
 953	9.5300e-001	-0.5750	-28.302567
 954	9.5400e-001	-0.5657	-28.167235
 955	9.5500e-001	-0.5540	-28.113472
 956	9.5600e-001	-0.5391	-27.921597
 957	9.5700e-001	-0.5283	-27.803876
 958	9.5800e-001	-0.5169	-27.518380
 959	9.5900e-001	-0.5057	-27.297770
 960	9.6000e-001	-0.4900	-27.403440
 961	9.6100e-001	-0.4810	-27.008566
 962	9.6200e-001	-0.4679	-26.785175
 963	9.6300e-001	-0.4586	-26.590518
 964	9.6400e-001	-0.4419	-26.382885
 965	9.6500e-001	-0.4312	-26.241991
 966	9.6600e-001	-0.4224	-26.040846
 967	9.6700e-001	-0.4085	-25.746081
 968	9.6800e-001	-0.3960	-25.705296
 969	9.6900e-001	-0.3852	-25.329887
 970	9.7000e-001	-0.3729	-25.161185
 971	9.7100e-001	-0.3604	-24.995263
 972	9.7200e-001	-0.3483	-24.756114
 973	9.7300e-001	-0.3385	-24.584631
 974	9.7400e-001	-0.3246	-24.284304
 975	9.7500e-001	-0.3112	-23.945046
 976	9.7600e-001	-0.2995	-23.594665
 977	9.7700e-001	-0.2880	-23.316584
 978	9.7800e-001	-0.2752	-23.100608
 979	9.7900e-001	-0.2625	-22.832724
 980	9.8000e-001	-0.2534	-22.465658
 981	9.8100e-001	-0.2399	-22.216313
 982	9.8200e-001	-0.2300	-21.725964
 983	9.8300e-001	-0.2141	-21.738014
 984	9.8400e-001	-0.2055	-21.381144
 985	9.8500e-001	-0.1952	-21.107698
 986	9.8600e-001	-0.1801	-20.793467
 987	9.8700e-001	-0.1709	-20.400447
 988	9.8800e-001	-0.1551	-20.151102
 989	9.8900e-001	-0.1445	-19.692269
 990	9.9000e-001	-0.1315	-19.372476
 991	9.9100e-001	-0.1188	-19.099030
 992	9.9200e-001	-0.1101	-18.582728
 993	9.9300e-001	-0.0971	-18.197123
 994	9.9400e-001	-0.0861	-17.682674
 995	9.9500e-001	-0.0719	-17.517679
 996	9.9600e-001	-0.0600	-17.148759
 997	9.9700e-001	-0.0481	-16.653776
 998	9.9800e-001	-0.0358	-16.329349
 999	9.9900e-001	-0.0228	-16.041072
1000	1.0000e+000	-0.0122	-15.462665
1001	1.0010e+000	-0.0005	-15.256885
1002	1.0020e+000	0.0106	-14.855522
1003	1.0030e+000	0.0218	-14.568173
1004	1.0040e+000	0.0356	-14.004596
1005	1.0050e+000	0.0468	-13.479024
1006	1.0060e+000	0.0578	-13.153670
1007	1.0070e+000	0.0706	-12.702253
1008	1.0080e+000	0.0824	-12.185023
1009	1.0090e+000	0.0952	-11.860596
1010	1.0100e+000	0.1087	-11.397128
1011	1.0110e+000	0.1189	-10.983715
1012	1.0120e+000	0.1333	-10.400673
1013	1.0130e+000	0.1447	-10.131862
1014	1.0140e+000	0.1570	-9.738842
1015	1.0150e+000	0.1659	-9.280936
1016	1.0160e+000	0.1779	-8.831372
1017	1.0170e+000	0.1936	-8.328974
1018	1.0180e+000	0.2042	-7.969323
1019	1.0190e+000	0.2167	-7.642115
1020	1.0200e+000	0.2286	-7.032192
1021	1.0210e+000	0.2375	-6.572432
1022	1.0220e+000	0.2518	-6.163654
1023	1.0230e+000	0.2635	-5.411909
1024	1.0240e+000	0.2763	-5.106021
1025	1.0250e+000	0.2882	-4.518344
1026	1.0260e+000	0.2986	-4.078977
1027	1.0270e+000	0.3108	-3.816655
1028	1.0280e+000	0.3257	-3.125161
1029	1.0290e+000	0.3355	-2.670963
1030	1.0300e+000	0.3474	-1.981323
1031	1.0310e+000	0.3594	-1.521564
1032	1.0320e+000	0.3728	-1.101662
1033	1.0330e+000	0.3811	-0.423146
1034	1.0340e+000	0.3962	0.069984
1035	1.0350e+000	0.4036	0.498228
1036	1.0360e+000	0.4196	1.267583
1037	1.0370e+000	0.4301	1.617965
1038	1.0380e+000	0.4420	2.213984
1039	1.0390e+000	0.4568	2.835030
1040	1.0400e+000	0.4668	3.237320
1041	1.0410e+000	0.4813	3.929741
1042	1.0420e+000	0.4915	4.378377
1043	1.0430e+000	0.5014	4.860383
1044	1.0440e+000	0.5157	5.347951
1045	1.0450e+000	0.5273	5.805857
1046	1.0460e+000	0.5408	6.378703
1047	1.0470e+000	0.5516	6.932083
1048	1.0480e+000	0.5658	7.543860
1049	1.0490e+000	0.5743	8.086117
1050	1.0500e+000	0.5848	8.389224
1051	1.0510e+000	0.5989	8.962070
1052	1.0520e+000	0.6089	9.508035
1053	1.0530e+000	0.6217	10.012287
1054	1.0540e+000	0.6351	10.508198
1055	1.0550e+000	0.6442	10.842821
1056	1.0560e+000	0.6604	11.325754
1057	1.0570e+000	0.6726	11.665012
1058	1.0580e+000	0.6827	12.272155
1059	1.0590e+000	0.6947	12.705033
1060	1.0600e+000	0.7075	13.112885
1061	1.0610e+000	0.7180	13.580060
1062	1.0620e+000	0.7307	14.085239
1063	1.0630e+000	0.7417	14.387420
1064	1.0640e+000	0.7553	14.939873
1065	1.0650e+000	0.7660	15.382948
1066	1.0660e+000	0.7788	15.898324
1067	1.0670e+000	0.7904	16.331203
1068	1.0680e+000	0.8013	16.592598
1069	1.0690e+000	0.8167	17.069043
1070	1.0700e+000	0.8262	17.444452
1071	1.0710e+000	0.8414	17.838399
1072	1.0720e+000	0.8514	18.288889
1073	1.0730e+000	0.8622	18.487253
1074	1.0740e+000	0.8760	18.926621
1075	1.0750e+000	0.8879	19.271440
1076	1.0760e+000	0.8992	19.602356
1077	1.0770e+000	0.9135	20.091778
1078	1.0780e+000	0.9241	20.396739
1079	1.0790e+000	0.9346	20.773075
1080	1.0800e+000	0.9483	21.378363
1081	1.0810e+000	0.9585	21.630490
1082	1.0820e+000	0.9714	22.074491
1083	1.0830e+000	0.9840	22.394284
1084	1.0840e+000	0.9916	22.943029
1085	1.0850e+000	1.0079	23.007915
1086	1.0860e+000	1.0195	23.421328
1087	1.0870e+000	1.0324	23.810641
1088	1.0880e+000	1.0424	24.142483
1089	1.0890e+000	1.0540	24.551262
1090	1.0900e+000	1.0672	24.939647
1091	1.0910e+000	1.0806	25.121327
1092	1.0920e+000	1.0908	25.561621
1093	1.0930e+000	1.1044	25.848970
1094	1.0940e+000	1.1150	26.284630
1095	1.0950e+000	1.1287	26.721216
1096	1.0960e+000	1.1395	26.874160
1097	1.0970e+000	1.1524	27.539700
1098	1.0980e+000	1.1644	27.764018
1099	1.0990e+000	1.1761	28.010583
1100	1.1000e+000	1.1874	28.475904
1101	1.1010e+000	1.2002	28.807747
1102	1.1020e+000	1.2150	29.091389
1103	1.1030e+000	1.2244	29.400058
1104	1.1040e+000	1.2377	29.487190
1105	1.1050e+000	1.2466	29.979392
1106	1.1060e+000	1.2587	30.273231
1107	1.1070e+000	1.2695	30.658836
1108	1.1080e+000	1.2823	30.961943
1109	1.1090e+000	1.2973	31.157527
1110	1.1100e+000	1.3090	31.463415
1111	1.1110e+000	1.3199	31.663633
1112	1.1120e+000	1.3322	31.917613
1113	1.1130e+000	1.3439	32.177155
1114	1.1140e+000	1.3527	32.265214
1115	1.1150e+000	1.3677	32.369031
1116	1.1160e+000	1.3800	32.589641
1117	1.1170e+000	1.3915	32.692531
1118	1.1180e+000	1.4048	32.776882
1119	1.1190e+000	1.4149	32.978954
1120	1.1200e+000	1.4276	33.161560
1121	1.1210e+000	1.4399	33.054036
1122	1.1220e+000	1.4515	33.070720
1123	1.1230e+000	1.4627	33.344166
1124	1.1240e+000	1.4742	33.231080
1125	1.1250e+000	1.4908	33.462814
1126	1.1260e+000	1.4996	33.534188
1127	1.1270e+000	1.5115	33.498037
1128	1.1280e+000	1.5253	33.667666
1129	1.1290e+000	1.5347	33.579608
1130	1.1300e+000	1.5470	33.606489
1131	1.1310e+000	1.5591	33.761287
1132	1.1320e+000	1.5733	33.653762
1133	1.1330e+000	1.5821	33.718648
1134	1.1340e+000	1.5945	33.755725
1135	1.1350e+000	1.6090	33.733479
1136	1.1360e+000	1.6177	33.945747
1137	1.1370e+000	1.6324	33.977263
1138	1.1380e+000	1.6418	34.127426
1139	1.1390e+000	1.6550	34.069029
1140	1.1400e+000	1.6685	34.051417
1141	1.1410e+000	1.6785	34.206216
1142	1.1420e+000	1.6917	34.196946
1143	1.1430e+000	1.7027	34.196946
1144	1.1440e+000	1.7162	34.267393
1145	1.1450e+000	1.7274	34.202508
1146	1.1460e+000	1.7416	34.246074
1147	1.1470e+000	1.7525	34.239585
1148	1.1480e+000	1.7659	34.325790
1149	1.1490e+000	1.7725	34.338767
1150	1.1500e+000	1.7886	34.335987
1151	1.1510e+000	1.7976	34.330425
1152	1.1520e+000	1.8118	34.406434
1153	1.1530e+000	1.8233	34.492639
1154	1.1540e+000	1.8358	34.631679
1155	1.1550e+000	1.8459	34.727153
1156	1.1560e+000	1.8585	34.819847
1157	1.1570e+000	1.8735	34.532497
1158	1.1580e+000	1.8842	34.648364
1159	1.1590e+000	1.8972	34.692856
1160	1.1600e+000	1.9081	34.578843
1161	1.1610e+000	1.9172	34.730861
1162	1.1620e+000	1.9341	34.656706
1163	1.1630e+000	1.9427	34.621482
1164	1.1640e+000	1.9543	34.852289
1165	1.1650e+000	1.9673	34.568647
1166	1.1660e+000	1.9788	34.822627
1167	1.1670e+000	1.9914	34.984841
1168	1.1680e+000	2.0031	34.909759
1169	1.1690e+000	2.0169	34.944983
1170	1.1700e+000	2.0267	35.019138
1171	1.1710e+000	2.0403	35.007087
1172	1.1720e+000	2.0523	35.085877
1173	1.1730e+000	2.0629	35.093292
1174	1.1740e+000	2.0753	35.300926
1175	1.1750e+000	2.0864	35.015430
1176	1.1760e+000	2.1008	34.975572
1177	1.1770e+000	2.1125	35.031188
1178	1.1780e+000	2.1253	35.038603
1179	1.1790e+000	2.1350	35.103489
1180	1.1800e+000	2.1483	35.157251
1181	1.1810e+000	2.1611	35.240675
1182	1.1820e+000	2.1719	35.194328
1183	1.1830e+000	2.1838	35.261994
1184	1.1840e+000	2.1958	35.298145
1185	1.1850e+000	2.2079	35.370446
1186	1.1860e+000	2.2198	35.394546
1187	1.1870e+000	2.2320	35.259214
1188	1.1880e+000	2.2443	35.274972
1189	1.1890e+000	2.2577	35.341711
1190	1.1900e+000	2.2696	35.426989
1191	1.1910e+000	2.2778	35.442747
1192	1.1920e+000	2.2915	35.561394
1193	1.1930e+000	2.3019	35.374154
1194	1.1940e+000	2.3151	35.261994
1195	1.1950e+000	2.3270	35.540075
1196	1.1960e+000	2.3383	35.508559
1197	1.1970e+000	2.3513	35.662430
1198	1.1980e+000	2.3648	35.718973
1199	1.1990e+000	2.3779	35.606814
1200	1.2000e+000	2.3893	35.679115
1201	1.2010e+000	2.3988	35.618864
1202	1.2020e+000	2.4123	35.680042
1203	1.2030e+000	2.4251	35.680042
1204	1.2040e+000	2.4376	35.541929
1205	1.2050e+000	2.4490	35.518755
1206	1.2060e+000	2.4618	35.592910
1207	1.2070e+000	2.4733	35.610522
1208	1.2080e+000	2.4862	35.724535
1209	1.2090e+000	2.4941	35.891383
1210	1.2100e+000	2.5089	35.877479
1211	1.2110e+000	2.5190	35.899726
1212	1.2120e+000	2.5303	35.860794
1213	1.2130e+000	2.5437	35.929388
1214	1.2140e+000	2.5560	35.926607
1215	1.2150e+000	2.5672	35.899726
1216	1.2160e+000	2.5815	35.874698
1217	1.2170e+000	2.5900	35.857087
1218	1.2180e+000	2.6028	35.824644
1219	1.2190e+000	2.6172	35.770882
1220	1.2200e+000	2.6277	35.873772
1221	1.2210e+000	2.6398	35.863575
1222	1.2220e+000	2.6526	35.915484
1223	1.2230e+000	2.6649	35.895091
1224	1.2240e+000	2.6760	35.964611
1225	1.2250e+000	2.6882	36.048962
1226	1.2260e+000	2.7005	36.149998
1227	1.2270e+000	2.7126	36.210249
1228	1.2280e+000	2.7240	36.353924
1229	1.2290e+000	2.7364	36.140729
1230	1.2300e+000	2.7445	36.086040
1231	1.2310e+000	2.7618	36.152779
1232	1.2320e+000	2.7711	36.142583
1233	1.2330e+000	2.7838	36.157414
1234	1.2340e+000	2.7966	36.065647
1235	1.2350e+000	2.8069	35.993346
1236	1.2360e+000	2.8193	36.192637
1237	1.2370e+000	2.8311	36.109213
1238	1.2380e+000	2.8430	36.186149
1239	1.2390e+000	2.8555	36.414175
1240	1.2400e+000	2.8661	36.326116
1241	1.2410e+000	2.8799	36.421590
1242	1.2420e+000	2.8943	36.360412
1243	1.2430e+000	2.9029	36.352070
1244	1.2440e+000	2.9166	36.543019
1245	1.2450e+000	2.9272	36.583804
1246	1.2460e+000	2.9403	36.543945
1247	1.2470e+000	2.9507	36.362266
1248	1.2480e+000	2.9649	36.316846
1249	1.2490e+000	2.9764	36.378024
1250	1.2500e+000	2.9906	36.295527
1251	1.2510e+000	3.0021	36.444763
1252	1.2520e+000	2.9902	36.374316
1253	1.2530e+000	2.9753	36.468864
1254	1.2540e+000	2.9659	36.516137
1255	1.2550e+000	2.9514	36.429006
1256	1.2560e+000	2.9388	36.602342
1257	1.2570e+000	2.9282	36.515210
1258	1.2580e+000	2.9159	36.542092
1259	1.2590e+000	2.9043	36.473498
1260	1.2600e+000	2.8894	36.302015
1261	1.2610e+000	2.8807	36.352070
1262	1.2620e+000	2.8679	36.273280
1263	1.2630e+000	2.8554	36.272354
1264	1.2640e+000	2.8436	36.431786
1265	1.2650e+000	2.8319	36.177806
1266	1.2660e+000	2.8185	36.232495
1267	1.2670e+000	2.8072	36.333531
1268	1.2680e+000	2.7969	36.235276
1269	1.2690e+000	2.7839	36.429932
1270	1.2700e+000	2.7696	36.362266
1271	1.2710e+000	2.7593	36.299235
1272	1.2720e+000	2.7477	36.276988
1273	1.2730e+000	2.7351	36.179660
1274	1.2740e+000	2.7238	36.252888
1275	1.2750e+000	2.7116	36.206541
1276	1.2760e+000	2.7005	36.120336
1277	1.2770e+000	2.6875	36.136094
1278	1.2780e+000	2.6756	36.017446
1279	1.2790e+000	2.6650	36.018373
1280	1.2800e+000	2.6513	35.997054
1281	1.2810e+000	2.6378	36.124971
1282	1.2820e+000	2.6280	36.231568
1283	1.2830e+000	2.6155	36.053597
1284	1.2840e+000	2.6024	36.162048
1285	1.2850e+000	2.5911	36.186149
1286	1.2860e+000	2.5796	36.150925
1287	1.2870e+000	2.5658	36.169464
1288	1.2880e+000	2.5563	35.963684
1289	1.2890e+000	2.5426	36.013739
1290	1.2900e+000	2.5320	35.918264
1291	1.2910e+000	2.5203	35.782932
1292	1.2920e+000	2.5098	35.878406
1293	1.2930e+000	2.4974	35.889529
1294	1.2940e+000	2.4845	35.873772
1295	1.2950e+000	2.4726	35.950707
1296	1.2960e+000	2.4606	35.813521
1297	1.2970e+000	2.4468	35.970173
1298	1.2980e+000	2.4356	35.914557
1299	1.2990e+000	2.4244	36.037839
1300	1.3000e+000	2.4108	36.022081
1301	1.3010e+000	2.3978	35.970173
1302	1.3020e+000	2.3878	35.848744
1303	1.3030e+000	2.3740	35.813521
1304	1.3040e+000	2.3639	35.737512
1305	1.3050e+000	2.3541	35.772736
1306	1.3060e+000	2.3396	35.624426
1307	1.3070e+000	2.3256	35.576225
1308	1.3080e+000	2.3154	35.580860
1309	1.3090e+000	2.3026	35.604033
1310	1.3100e+000	2.2925	35.629988
1311	1.3110e+000	2.2800	35.697654
1312	1.3120e+000	2.2682	35.743074
1313	1.3130e+000	2.2552	35.775516
1314	1.3140e+000	2.2420	35.724535
1315	1.3150e+000	2.2298	35.672627
1316	1.3160e+000	2.2203	35.659650
1317	1.3170e+000	2.2068	35.782005
1318	1.3180e+000	2.1967	35.666138
1319	1.3190e+000	2.1832	35.513194
1320	1.3200e+000	2.1703	35.493728
1321	1.3210e+000	2.1589	35.433477
1322	1.3220e+000	2.1466	35.331515
1323	1.3230e+000	2.1356	35.440893
1324	1.3240e+000	2.1241	35.365811
1325	1.3250e+000	2.1139	35.364884
1326	1.3260e+000	2.1010	35.357469
1327	1.3270e+000	2.0863	35.277752
1328	1.3280e+000	2.0777	35.453870
1329	1.3290e+000	2.0625	35.383423
1330	1.3300e+000	2.0541	35.363030
1331	1.3310e+000	2.0397	35.491874
1332	1.3320e+000	2.0268	35.361177
1333	1.3330e+000	2.0134	35.389911
1334	1.3340e+000	2.0034	35.284241
1335	1.3350e+000	1.9913	35.149835
1336	1.3360e+000	1.9772	35.420500
1337	1.3370e+000	1.9675	35.039530
1338	1.3380e+000	1.9555	35.081242
1339	1.3390e+000	1.9449	35.196182
1340	1.3400e+000	1.9318	35.194328
1341	1.3410e+000	1.9201	35.175790
1342	1.3420e+000	1.9044	35.208232
1343	1.3430e+000	1.8948	35.139639
1344	1.3440e+000	1.8842	35.191547
1345	1.3450e+000	1.8710	35.029334
1346	1.3460e+000	1.8608	35.142420
1347	1.3470e+000	1.8476	35.126662
1348	1.3480e+000	1.8360	35.131297
1349	1.3490e+000	1.8221	35.139639
1350	1.3500e+000	1.8095	34.967229
1351	1.3510e+000	1.7985	35.031188
1352	1.3520e+000	1.7871	34.959814
1353	1.3530e+000	1.7740	35.014503
1354	1.3540e+000	1.7616	35.090512
1355	1.3550e+000	1.7509	34.885659
1356	1.3560e+000	1.7395	34.987622
1357	1.3570e+000	1.7255	34.997818
1358	1.3580e+000	1.7158	34.912540
1359	1.3590e+000	1.7036	35.057142
1360	1.3600e+000	1.6916	34.881024
1361	1.3610e+000	1.6781	34.911613
1362	1.3620e+000	1.6675	34.941275
1363	1.3630e+000	1.6544	34.709541
1364	1.3640e+000	1.6434	34.864339
1365	1.3650e+000	1.6309	34.695637
1366	1.3660e+000	1.6170	34.791112
1367	1.3670e+000	1.6066	34.855997
1368	1.3680e+000	1.5980	34.643729
1369	1.3690e+000	1.5832	34.770719
1370	1.3700e+000	1.5708	34.690076
1371	1.3710e+000	1.5604	34.730861
1372	1.3720e+000	1.5472	34.805943
1373	1.3730e+000	1.5332	34.608505
1374	1.3740e+000	1.5211	34.689149
1375	1.3750e+000	1.5114	34.601090
1376	1.3760e+000	1.5018	34.551035
1377	1.3770e+000	1.4860	34.687295
1378	1.3780e+000	1.4765	34.491712
1379	1.3790e+000	1.4626	34.528789
1380	1.3800e+000	1.4492	34.316521
1381	1.3810e+000	1.4394	34.448146
1382	1.3820e+000	1.4264	34.459269
1383	1.3830e+000	1.4141	34.392530
1384	1.3840e+000	1.4028	34.489858
1385	1.3850e+000	1.3916	34.475027
1386	1.3860e+000	1.3785	34.402726
1387	1.3870e+000	1.3673	34.494492
1388	1.3880e+000	1.3556	34.326717
1389	1.3890e+000	1.3416	34.479661
1390	1.3900e+000	1.3323	34.481515
1391	1.3910e+000	1.3190	34.276663
1392	1.3920e+000	1.3065	34.356379
1393	1.3930e+000	1.2969	34.219193
1394	1.3940e+000	1.2836	34.259978
1395	1.3950e+000	1.2719	34.284078
1396	1.3960e+000	1.2607	34.137622
1397	1.3970e+000	1.2479	34.246074
1398	1.3980e+000	1.2338	34.094983
1399	1.3990e+000	1.2228	34.087568
1400	1.4000e+000	1.2116	34.185823
1401	1.4010e+000	1.1989	34.159869
1402	1.4020e+000	1.1902	34.199727
1403	1.4030e+000	1.1755	34.289640
1404	1.4040e+000	1.1637	34.032879
1405	1.4050e+000	1.1507	34.128353
1406	1.4060e+000	1.1407	34.003217
1407	1.4070e+000	1.1272	33.990240
1408	1.4080e+000	1.1170	34.056979
1409	1.4090e+000	1.1037	33.864177
1410	1.4100e+000	1.0925	33.885496
1411	1.4110e+000	1.0825	33.866957
1412	1.4120e+000	1.0659	33.884569
1413	1.4130e+000	1.0554	33.917939
1414	1.4140e+000	1.0442	33.842857
1415	1.4150e+000	1.0325	33.885496
1416	1.4160e+000	1.0206	33.917939
1417	1.4170e+000	1.0059	33.782606
1418	1.4180e+000	0.9949	33.813195
1419	1.4190e+000	0.9812	33.808561
1420	1.4200e+000	0.9715	33.849346
1421	1.4210e+000	0.9573	33.727917
1422	1.4220e+000	0.9476	33.689913
1423	1.4230e+000	0.9354	33.628735
1424	1.4240e+000	0.9242	33.697328
1425	1.4250e+000	0.9133	33.539749
1426	1.4260e+000	0.8993	33.649128
1427	1.4270e+000	0.8880	33.435006
1428	1.4280e+000	0.8772	33.491549
1429	1.4290e+000	0.8633	33.417394
1430	1.4300e+000	0.8528	33.454471
1431	1.4310e+000	0.8362	33.591658
1432	1.4320e+000	0.8270	33.580535
1433	1.4330e+000	0.8134	33.511941
1434	1.4340e+000	0.8028	33.377536
1435	1.4350e+000	0.7906	33.250546
1436	1.4360e+000	0.7778	33.349728
1437	1.4370e+000	0.7667	33.146729
1438	1.4380e+000	0.7560	33.218103
1439	1.4390e+000	0.7419	33.229226
1440	1.4400e+000	0.7297	33.165268
1441	1.4410e+000	0.7178	33.147656
1442	1.4420e+000	0.7072	33.343239
1443	1.4430e+000	0.6924	33.132825
1444	1.4440e+000	0.6847	33.304308
1445	1.4450e+000	0.6709	33.033643
1446	1.4460e+000	0.6591	33.079990
1447	1.4470e+000	0.6451	33.016958
1448	1.4480e+000	0.6373	33.101309
1449	1.4490e+000	0.6229	32.985442
1450	1.4500e+000	0.6106	32.808398
1451	1.4510e+000	0.6002	32.833425
1452	1.4520e+000	0.5860	32.696239
1453	1.4530e+000	0.5728	32.657307
1454	1.4540e+000	0.5638	32.727754
1455	1.4550e+000	0.5509	32.665650
1456	1.4560e+000	0.5395	32.804690
1457	1.4570e+000	0.5265	32.706435
1458	1.4580e+000	0.5135	32.592422
1459	1.4590e+000	0.5022	32.761124
1460	1.4600e+000	0.4924	32.648965
1461	1.4610e+000	0.4790	32.727754
1462	1.4620e+000	0.4658	32.631353
1463	1.4630e+000	0.4547	32.353273
1464	1.4640e+000	0.4438	32.457089
1465	1.4650e+000	0.4304	32.202182
1466	1.4660e+000	0.4210	32.194767
1467	1.4670e+000	0.4076	32.235552
1468	1.4680e+000	0.3961	32.027919
1469	1.4690e+000	0.3846	32.148420
1470	1.4700e+000	0.3713	31.938933
1471	1.4710e+000	0.3603	31.842532
1472	1.4720e+000	0.3471	31.917613
1473	1.4730e+000	0.3359	31.773011
1474	1.4740e+000	0.3242	31.825847
1475	1.4750e+000	0.3101	31.733153
1476	1.4760e+000	0.3002	31.520885
1477	1.4770e+000	0.2883	31.489369
1478	1.4780e+000	0.2750	31.158454
1479	1.4790e+000	0.2655	31.238170
1480	1.4800e+000	0.2522	30.998094
1481	1.4810e+000	0.2408	30.641224
1482	1.4820e+000	0.2271	30.539261
1483	1.4830e+000	0.2148	30.361290
1484	1.4840e+000	0.2018	30.171268
1485	1.4850e+000	0.1922	29.968269
1486	1.4860e+000	0.1788	29.764344
1487	1.4870e+000	0.1673	29.569687
1488	1.4880e+000	0.1544	29.184082
1489	1.4890e+000	0.1405	29.015380
1490	1.4900e+000	0.1311	28.640898
1491	1.4910e+000	0.1186	28.140354
1492	1.4920e+000	0.1066	27.788118
1493	1.4930e+000	0.0959	27.183757
1494	1.4940e+000	0.0818	26.627596
1495	1.4950e+000	0.0701	26.089974
1496	1.4960e+000	0.0578	25.341937
1497	1.4970e+000	0.0447	25.159331
1498	1.4980e+000	0.0341	24.546627
1499	1.4990e+000	0.0216	23.881088
1500	1.5000e+000	0.0117	23.367566
1501	1.5010e+000	-0.0042	22.605625
1502	1.5020e+000	-0.0133	22.099519
1503	1.5030e+000	-0.0242	21.359825
1504	1.5040e+000	-0.0358	20.642377
1505	1.5050e+000	-0.0487	19.981472
1506	1.5060e+000	-0.0613	19.162062
1507	1.5070e+000	-0.0733	18.378802
1508	1.5080e+000	-0.0836	17.692870
1509	1.5090e+000	-0.0984	16.858629
1510	1.5100e+000	-0.1087	16.090200
1511	1.5110e+000	-0.1232	15.266155
1512	1.5120e+000	-0.1332	14.411521
1513	1.5130e+000	-0.1440	13.670900
1514	1.5140e+000	-0.1561	12.794019
1515	1.5150e+000	-0.1665	12.123845
1516	1.5160e+000	-0.1802	11.395274
1517	1.5170e+000	-0.1925	10.534152
1518	1.5180e+000	-0.2036	9.794458
1519	1.5190e+000	-0.2177	8.890696
1520	1.5200e+000	-0.2279	8.199203
1521	1.5210e+000	-0.2404	7.428920
1522	1.5220e+000	-0.2528	6.473250
1523	1.5230e+000	-0.2641	5.712236
1524	1.5240e+000	-0.2782	4.844625
1525	1.5250e+000	-0.2885	4.126251
1526	1.5260e+000	-0.3006	3.444027
1527	1.5270e+000	-0.3136	2.538411
1528	1.5280e+000	-0.3253	2.014693
1529	1.5290e+000	-0.3370	1.181379
1530	1.5300e+000	-0.3488	0.432415
1531	1.5310e+000	-0.3609	-0.135796
1532	1.5320e+000	-0.3712	-0.830997
1533	1.5330e+000	-0.3838	-1.426089
1534	1.5340e+000	-0.3957	-2.150026
1535	1.5350e+000	-0.4076	-3.038956
1536	1.5360e+000	-0.4207	-3.528378
1537	1.5370e+000	-0.4347	-4.253241
1538	1.5380e+000	-0.4434	-4.838137
1539	1.5390e+000	-0.4556	-5.357220
1540	1.5400e+000	-0.4696	-6.025540
1541	1.5410e+000	-0.4803	-6.462127
1542	1.5420e+000	-0.4924	-7.085027
1543	1.5430e+000	-0.5056	-7.551275
1544	1.5440e+000	-0.5141	-7.933172
1545	1.5450e+000	-0.5290	-8.495822
1546	1.5460e+000	-0.5412	-8.901819
1547	1.5470e+000	-0.5529	-9.497839
1548	1.5480e+000	-0.5634	-9.951110
1549	1.5490e+000	-0.5779	-10.337642
1550	1.5500e+000	-0.5892	-11.023573
1551	1.5510e+000	-0.6005	-11.336877
1552	1.5520e+000	-0.6126	-11.833715
1553	1.5530e+000	-0.6258	-12.333332
1554	1.5540e+000	-0.6373	-12.655906
1555	1.5550e+000	-0.6470	-13.123081
1556	1.5560e+000	-0.6608	-13.375207
1557	1.5570e+000	-0.6752	-13.779351
1558	1.5580e+000	-0.6843	-14.234476
1559	1.5590e+000	-0.6983	-14.531095
1560	1.5600e+000	-0.7098	-14.985293
1561	1.5610e+000	-0.7218	-15.306940
1562	1.5620e+000	-0.7356	-15.706449
1563	1.5630e+000	-0.7447	-15.998433
1564	1.5640e+000	-0.7584	-16.282075
1565	1.5650e+000	-0.7680	-16.818771
1566	1.5660e+000	-0.7790	-17.143198
1567	1.5670e+000	-0.7928	-17.399959
1568	1.5680e+000	-0.8039	-17.919969
1569	1.5690e+000	-0.8175	-17.976512
1570	1.5700e+000	-0.8278	-18.406610
1571	1.5710e+000	-0.8414	-18.794069
1572	1.5720e+000	-0.8528	-18.977602
1573	1.5730e+000	-0.8646	-19.386380
1574	1.5740e+000	-0.8766	-19.547667
1575	1.5750e+000	-0.8884	-19.860971
1576	1.5760e+000	-0.9005	-20.211352
1577	1.5770e+000	-0.9148	-20.376347
1578	1.5780e+000	-0.9242	-20.843522
1579	1.5790e+000	-0.9364	-21.038178
1580	1.5800e+000	-0.9474	-21.397829
1581	1.5810e+000	-0.9631	-21.679617
1582	1.5820e+000	-0.9729	-21.851100
1583	1.5830e+000	-0.9870	-22.286760
1584	1.5840e+000	-0.9961	-22.478635
1585	1.5850e+000	-1.0085	-22.642703
1586	1.5860e+000	-1.0220	-23.017184
1587	1.5870e+000	-1.0337	-23.069093
1588	1.5880e+000	-1.0459	-23.466748
1589	1.5890e+000	-1.0557	-23.650281
1590	1.5900e+000	-1.0704	-23.858841
1591	1.5910e+000	-1.0817	-24.120237
1592	1.5920e+000	-1.0943	-24.212003
1593	1.5930e+000	-1.1029	-24.554969
1594	1.5940e+000	-1.1166	-24.753333
1595	1.5950e+000	-1.1286	-24.935013
1596	1.5960e+000	-1.1414	-25.269636
1597	1.5970e+000	-1.1546	-25.356768
1598	1.5980e+000	-1.1631	-25.516201
1599	1.5990e+000	-1.1763	-25.797062
1600	1.6000e+000	-1.1903	-25.883267
1601	1.6010e+000	-1.2009	-26.201206
1602	1.6020e+000	-1.2136	-26.369908
1603	1.6030e+000	-1.2254	-26.438501
1604	1.6040e+000	-1.2385	-26.895480
1605	1.6050e+000	-1.2507	-26.786102
1606	1.6060e+000	-1.2627	-27.066036
1607	1.6070e+000	-1.2704	-27.212492
1608	1.6080e+000	-1.2855	-27.352459
1609	1.6090e+000	-1.2956	-27.561946
1610	1.6100e+000	-1.3094	-27.625905
1611	1.6110e+000	-1.3200	-27.835392
1612	1.6120e+000	-1.3345	-28.020779
1613	1.6130e+000	-1.3445	-28.154258
1614	1.6140e+000	-1.3560	-28.382284
1615	1.6150e+000	-1.3688	-28.486100
1616	1.6160e+000	-1.3808	-28.651095
1617	1.6170e+000	-1.3930	-28.698368
1618	1.6180e+000	-1.4036	-28.817943
1619	1.6190e+000	-1.4166	-29.126612
1620	1.6200e+000	-1.4272	-29.043188
1621	1.6210e+000	-1.4417	-29.124758
1622	1.6220e+000	-1.4527	-29.556710
1623	1.6230e+000	-1.4645	-29.477921
1624	1.6240e+000	-1.4782	-29.798640
1625	1.6250e+000	-1.4908	-29.856110
1626	1.6260e+000	-1.4992	-29.912653
1627	1.6270e+000	-1.5132	-30.163852
1628	1.6280e+000	-1.5253	-30.118433
1629	1.6290e+000	-1.5391	-30.315870
1630	1.6300e+000	-1.5491	-30.469741
1631	1.6310e+000	-1.5603	-30.471595
1632	1.6320e+000	-1.5746	-30.707963
1633	1.6330e+000	-1.5849	-30.679228
1634	1.6340e+000	-1.5982	-30.821049
1635	1.6350e+000	-1.6081	-30.938770
1636	1.6360e+000	-1.6196	-30.909108
1637	1.6370e+000	-1.6320	-31.219631
1638	1.6380e+000	-1.6425	-31.270613
1639	1.6390e+000	-1.6576	-31.176065
1640	1.6400e+000	-1.6703	-31.642314
1641	1.6410e+000	-1.6824	-31.561670
1642	1.6420e+000	-1.6918	-31.776719
1643	1.6430e+000	-1.7067	-31.816577
1644	1.6440e+000	-1.7170	-31.857363
1645	1.6450e+000	-1.7290	-31.983426
1646	1.6460e+000	-1.7390	-31.926883
1647	1.6470e+000	-1.7545	-32.067777
1648	1.6480e+000	-1.7632	-32.079827
1649	1.6490e+000	-1.7783	-32.198475
1650	1.6500e+000	-1.7892	-32.343076
1651	1.6510e+000	-1.8016	-32.350492
1652	1.6520e+000	-1.8147	-32.497875
1653	1.6530e+000	-1.8231	-32.500655
1654	1.6540e+000	-1.8362	-32.532171
1655	1.6550e+000	-1.8489	-32.670284
1656	1.6560e+000	-1.8601	-32.760197
1657	1.6570e+000	-1.8726	-32.842694
1658	1.6580e+000	-1.8845	-33.063305
1659	1.6590e+000	-1.8954	-32.932607
1660	1.6600e+000	-1.9082	-33.249619
1661	1.6610e+000	-1.9242	-33.105017
1662	1.6620e+000	-1.9311	-33.186587
1663	1.6630e+000	-1.9456	-33.215322
1664	1.6640e+000	-1.9572	-33.049401
1665	1.6650e+000	-1.9705	-33.255180
1666	1.6660e+000	-1.9817	-33.263523
1667	1.6670e+000	-1.9925	-33.337678
1668	1.6680e+000	-2.0045	-33.567557
1669	1.6690e+000	-2.0187	-33.535115
1670	1.6700e+000	-2.0287	-33.722356
1671	1.6710e+000	-2.0404	-33.741821
1672	1.6720e+000	-2.0558	-33.776118
1673	1.6730e+000	-2.0641	-33.879008
1674	1.6740e+000	-2.0780	-33.779826
1675	1.6750e+000	-2.0905	-33.820611
1676	1.6760e+000	-2.1013	-34.040294
1677	1.6770e+000	-2.1143	-33.942039
1678	1.6780e+000	-2.1239	-34.017121
1679	1.6790e+000	-2.1359	-34.077372
1680	1.6800e+000	-2.1478	-34.098691
1681	1.6810e+000	-2.1620	-34.025463
1682	1.6820e+000	-2.1750	-34.088495
1683	1.6830e+000	-2.1832	-34.301690
1684	1.6840e+000	-2.1976	-34.348964
1685	1.6850e+000	-2.2090	-34.454634
1686	1.6860e+000	-2.2194	-34.568647
1687	1.6870e+000	-2.2326	-34.524154
1688	1.6880e+000	-2.2456	-34.726226
1689	1.6890e+000	-2.2569	-34.573282
1690	1.6900e+000	-2.2694	-34.445365
1691	1.6910e+000	-2.2789	-34.593674
1692	1.6920e+000	-2.2940	-34.560305
1693	1.6930e+000	-2.3055	-34.564012
1694	1.6940e+000	-2.3193	-34.766084
1695	1.6950e+000	-2.3302	-34.661341
1696	1.6960e+000	-2.3396	-34.916248
1697	1.6970e+000	-2.3542	-34.949617
1698	1.6980e+000	-2.3662	-34.912540
1699	1.6990e+000	-2.3779	-35.211013
1700	1.7000e+000	-2.3927	-35.004307
1701	1.7010e+000	-2.4026	-35.154470
1702	1.7020e+000	-2.4113	-35.167447
1703	1.7030e+000	-2.4284	-35.152616
1704	1.7040e+000	-2.4360	-35.282387
1705	1.7050e+000	-2.4470	-35.166520
1706	1.7060e+000	-2.4625	-35.075681
1707	1.7070e+000	-2.4743	-35.160032
1708	1.7080e+000	-2.4836	-35.099781
1709	1.7090e+000	-2.4964	-35.129443
1710	1.7100e+000	-2.5114	-35.297218
1711	1.7110e+000	-2.5220	-35.222136
1712	1.7120e+000	-2.5336	-35.509486
1713	1.7130e+000	-2.5467	-35.431624
1714	1.7140e+000	-2.5571	-35.635549
1715	1.7150e+000	-2.5713	-35.705069
1716	1.7160e+000	-2.5822	-35.700435
1717	1.7170e+000	-2.5934	-35.680042
1718	1.7180e+000	-2.6069	-35.599399
1719	1.7190e+000	-2.6187	-35.614230
1720	1.7200e+000	-2.6293	-35.531733
1721	1.7210e+000	-2.6396	-35.629988
1722	1.7220e+000	-2.6544	-35.591983
1723	1.7230e+000	-2.6672	-35.571591
1724	1.7240e+000	-2.6746	-35.640184
1725	1.7250e+000	-2.6909	-35.741220
1726	1.7260e+000	-2.7016	-35.757905
1727	1.7270e+000	-2.7133	-35.823717
1728	1.7280e+000	-2.7267	-35.916411
1729	1.7290e+000	-2.7370	-36.038766
1730	1.7300e+000	-2.7489	-36.238057
1731	1.7310e+000	-2.7631	-35.980369
1732	1.7320e+000	-2.7727	-36.015593
1733	1.7330e+000	-2.7868	-36.065647
1734	1.7340e+000	-2.7969	-36.048962
1735	1.7350e+000	-2.8101	-35.999835
1736	1.7360e+000	-2.8204	-35.880260
1737	1.7370e+000	-2.8337	-36.065647
1738	1.7380e+000	-2.8454	-35.983150
1739	1.7390e+000	-2.8568	-36.009104
1740	1.7400e+000	-2.8719	-36.270500
1741	1.7410e+000	-2.8805	-36.139802
1742	1.7420e+000	-2.8925	-36.359485
1743	1.7430e+000	-2.9051	-36.346508
1744	1.7440e+000	-2.9163	-36.388220
1745	1.7450e+000	-2.9276	-36.417882
1746	1.7460e+000	-2.9421	-36.491110
1747	1.7470e+000	-2.9521	-36.512430
1748	1.7480e+000	-2.9644	-36.465156
1749	1.7490e+000	-2.9795	-36.332604
1750	1.7500e+000	-2.9910	-36.492037
1751	1.7510e+000	-3.0022	-36.394709
1752	1.7520e+000	-2.9890	-36.454033
1753	1.7530e+000	-2.9798	-36.365047
1754	1.7540e+000	-2.9672	-36.281623
1755	1.7550e+000	-2.9538	-36.416028
1756	1.7560e+000	-2.9399	-36.348362
1757	1.7570e+000	-2.9288	-36.470718
1758	1.7580e+000	-2.9185	-36.503160
1759	1.7590e+000	-2.9061	-36.430859
1760	1.7600e+000	-2.8948	-36.602342
1761	1.7610e+000	-2.8842	-36.326116
1762	1.7620e+000	-2.8693	-36.454960
1763	1.7630e+000	-2.8572	-36.266792
1764	1.7640e+000	-2.8466	-36.144437
1765	1.7650e+000	-2.8342	-36.276061
1766	1.7660e+000	-2.8225	-36.178733
1767	1.7670e+000	-2.8094	-36.037839
1768	1.7680e+000	-2.7956	-36.294600
1769	1.7690e+000	-2.7863	-36.190783
1770	1.7700e+000	-2.7737	-36.264011
1771	1.7710e+000	-2.7613	-36.262157
1772	1.7720e+000	-2.7486	-36.162975
1773	1.7730e+000	-2.7385	-36.275134
1774	1.7740e+000	-2.7268	-36.144437
1775	1.7750e+000	-2.7129	-36.179660
1776	1.7760e+000	-2.7023	-36.153706
1777	1.7770e+000	-2.6913	-36.059159
1778	1.7780e+000	-2.6782	-36.104578
1779	1.7790e+000	-2.6678	-35.967392
1780	1.7800e+000	-2.6527	-35.929388
1781	1.7810e+000	-2.6398	-35.890456
1782	1.7820e+000	-2.6293	-35.930315
1783	1.7830e+000	-2.6170	-36.034131
1784	1.7840e+000	-2.6057	-35.941438
1785	1.7850e+000	-2.5922	-35.975734
1786	1.7860e+000	-2.5816	-36.044328
1787	1.7870e+000	-2.5687	-36.005396
1788	1.7880e+000	-2.5573	-36.089747
1789	1.7890e+000	-2.5470	-35.919191
1790	1.7900e+000	-2.5318	-35.870991
1791	1.7910e+000	-2.5192	-35.894164
1792	1.7920e+000	-2.5071	-35.757905
1793	1.7930e+000	-2.4980	-35.817228
1794	1.7940e+000	-2.4848	-35.750489
1795	1.7950e+000	-2.4736	-35.703215
1796	1.7960e+000	-2.4627	-35.751416
1797	1.7970e+000	-2.4497	-35.727316
1798	1.7980e+000	-2.4374	-35.776443
1799	1.7990e+000	-2.4250	-35.648526
1800	1.8000e+000	-2.4136	-35.771809
1801	1.8010e+000	-2.4012	-35.902507
1802	1.8020e+000	-2.3898	-35.624426
1803	1.8030e+000	-2.3764	-35.706923
1804	1.8040e+000	-2.3641	-35.771809
1805	1.8050e+000	-2.3530	-35.696727
1806	1.8060e+000	-2.3396	-35.681896
1807	1.8070e+000	-2.3299	-35.605887
1808	1.8080e+000	-2.3174	-35.492801
1809	1.8090e+000	-2.3069	-35.474263
1810	1.8100e+000	-2.2925	-35.365811
1811	1.8110e+000	-2.2816	-35.398254
1812	1.8120e+000	-2.2695	-35.382496
1813	1.8130e+000	-2.2571	-35.411231
1814	1.8140e+000	-2.2458	-35.436258
1815	1.8150e+000	-2.2340	-35.424208
1816	1.8160e+000	-2.2230	-35.439966
1817	1.8170e+000	-2.2095	-35.379715
1818	1.8180e+000	-2.1961	-35.378788
1819	1.8190e+000	-2.1851	-35.365811
1820	1.8200e+000	-2.1741	-35.259214
1821	1.8210e+000	-2.1634	-35.169301
1822	1.8220e+000	-2.1489	-35.301853
1823	1.8230e+000	-2.1367	-35.185059
1824	1.8240e+000	-2.1230	-35.238821
1825	1.8250e+000	-2.1141	-35.084950
1826	1.8260e+000	-2.1018	-35.109977
1827	1.8270e+000	-2.0886	-35.197109
1828	1.8280e+000	-2.0776	-35.037676
1829	1.8290e+000	-2.0650	-35.109050
1830	1.8300e+000	-2.0551	-35.079388
1831	1.8310e+000	-2.0430	-34.987622
1832	1.8320e+000	-2.0293	-35.105342
1833	1.8330e+000	-2.0173	-34.873609
1834	1.8340e+000	-2.0079	-34.985768
1835	1.8350e+000	-1.9906	-35.214721
1836	1.8360e+000	-1.9823	-34.947764
1837	1.8370e+000	-1.9700	-34.897709
1838	1.8380e+000	-1.9566	-34.786477
1839	1.8390e+000	-1.9455	-34.792038
1840	1.8400e+000	-1.9325	-34.912540
1841	1.8410e+000	-1.9207	-34.714176
1842	1.8420e+000	-1.9089	-34.813358
1843	1.8430e+000	-1.8961	-34.771646
1844	1.8440e+000	-1.8842	-34.672464
1845	1.8450e+000	-1.8765	-34.778134
1846	1.8460e+000	-1.8614	-34.670610
1847	1.8470e+000	-1.8480	-34.682660
1848	1.8480e+000	-1.8366	-34.614994
1849	1.8490e+000	-1.8226	-34.606651
1850	1.8500e+000	-1.8110	-34.633533
1851	1.8510e+000	-1.8011	-34.462050
1852	1.8520e+000	-1.7892	-34.521373
1853	1.8530e+000	-1.7776	-34.738276
1854	1.8540e+000	-1.7666	-34.437022
1855	1.8550e+000	-1.7521	-34.462977
1856	1.8560e+000	-1.7399	-34.307252
1857	1.8570e+000	-1.7288	-34.332279
1858	1.8580e+000	-1.7155	-34.376772
1859	1.8590e+000	-1.7054	-34.331352
1860	1.8600e+000	-1.6922	-34.424972
1861	1.8610e+000	-1.6802	-34.302617
1862	1.8620e+000	-1.6692	-34.290567
1863	1.8630e+000	-1.6579	-34.300763
1864	1.8640e+000	-1.6448	-34.118157
1865	1.8650e+000	-1.6309	-34.205289
1866	1.8660e+000	-1.6190	-34.036587
1867	1.8670e+000	-1.6078	-34.005998
1868	1.8680e+000	-1.5981	-34.081079
1869	1.8690e+000	-1.5842	-33.878081
1870	1.8700e+000	-1.5739	-33.957797
1871	1.8710e+000	-1.5623	-34.196019
1872	1.8720e+000	-1.5491	-33.960578
1873	1.8730e+000	-1.5355	-33.916085
1874	1.8740e+000	-1.5254	-33.845638
1875	1.8750e+000	-1.5121	-33.907743
1876	1.8760e+000	-1.5000	-33.863250
1877	1.8770e+000	-1.4892	-33.878081
1878	1.8780e+000	-1.4762	-33.820611
1879	1.8790e+000	-1.4636	-33.634297
1880	1.8800e+000	-1.4518	-33.620393
1881	1.8810e+000	-1.4433	-33.611123
1882	1.8820e+000	-1.4293	-33.436860
1883	1.8830e+000	-1.4190	-33.549019
1884	1.8840e+000	-1.4063	-33.442421
1885	1.8850e+000	-1.3920	-33.490622
1886	1.8860e+000	-1.3790	-33.465595
1887	1.8870e+000	-1.3704	-33.332116
1888	1.8880e+000	-1.3557	-33.418321
1889	1.8890e+000	-1.3458	-33.578681
1890	1.8900e+000	-1.3335	-33.352509
1891	1.8910e+000	-1.3197	-33.254253
1892	1.8920e+000	-1.3099	-33.262596
1893	1.8930e+000	-1.2980	-33.240349
1894	1.8940e+000	-1.2833	-33.178245
1895	1.8950e+000	-1.2730	-32.964123
1896	1.8960e+000	-1.2595	-33.072574
1897	1.8970e+000	-1.2500	-32.838060
1898	1.8980e+000	-1.2378	-32.818594
1899	1.8990e+000	-1.2224	-32.788932
1900	1.9000e+000	-1.2133	-32.811179
1901	1.9010e+000	-1.2018	-32.840840
1902	1.9020e+000	-1.1888	-32.817667
1903	1.9030e+000	-1.1771	-32.807471
1904	1.9040e+000	-1.1649	-32.858452
1905	1.9050e+000	-1.1539	-32.678627
1906	1.9060e+000	-1.1405	-32.635061
1907	1.9070e+000	-1.1304	-32.617449
1908	1.9080e+000	-1.1156	-32.444112
1909	1.9090e+000	-1.1040	-32.311561
1910	1.9100e+000	-1.0925	-32.312488
1911	1.9110e+000	-1.0802	-32.168813
1912	1.9120e+000	-1.0711	-32.191986
1913	1.9130e+000	-1.0542	-32.066850
1914	1.9140e+000	-1.0458	-32.082608
1915	1.9150e+000	-1.0321	-32.040896
1916	1.9160e+000	-1.0218	-31.980645
1917	1.9170e+000	-1.0084	-31.817504
1918	1.9180e+000	-0.9956	-31.885171
1919	1.9190e+000	-0.9847	-31.861070
1920	1.9200e+000	-0.9721	-31.721103
1921	1.9210e+000	-0.9591	-31.684953
1922	1.9220e+000	-0.9489	-31.637679
1923	1.9230e+000	-0.9369	-31.385553
1924	1.9240e+000	-0.9263	-31.290078
1925	1.9250e+000	-0.9101	-31.359598
1926	1.9260e+000	-0.9032	-31.095422
1927	1.9270e+000	-0.8895	-30.981409
1928	1.9280e+000	-0.8745	-31.017560
1929	1.9290e+000	-0.8639	-30.936916
1930	1.9300e+000	-0.8523	-31.005509
1931	1.9310e+000	-0.8400	-30.851638
1932	1.9320e+000	-0.8292	-30.796022
1933	1.9330e+000	-0.8192	-30.664397
1934	1.9340e+000	-0.8041	-30.604147
1935	1.9350e+000	-0.7914	-30.682936
1936	1.9360e+000	-0.7784	-30.292696
1937	1.9370e+000	-0.7684	-30.307527
1938	1.9380e+000	-0.7568	-30.185172
1939	1.9390e+000	-0.7442	-29.865379
1940	1.9400e+000	-0.7343	-29.820887
1941	1.9410e+000	-0.7221	-29.642915
1942	1.9420e+000	-0.7101	-29.573395
1943	1.9430e+000	-0.6951	-29.475140
1944	1.9440e+000	-0.6861	-29.329611
1945	1.9450e+000	-0.6734	-29.204475
1946	1.9460e+000	-0.6623	-29.375031
1947	1.9470e+000	-0.6490	-29.177594
1948	1.9480e+000	-0.6356	-29.084900
1949	1.9490e+000	-0.6257	-28.950495
1950	1.9500e+000	-0.6136	-28.880048
1951	1.9510e+000	-0.6019	-28.563036
1952	1.9520e+000	-0.5875	-28.393407
1953	1.9530e+000	-0.5760	-28.194116
1954	1.9540e+000	-0.5627	-27.934574
1955	1.9550e+000	-0.5517	-27.862273
1956	1.9560e+000	-0.5407	-27.610147
1957	1.9570e+000	-0.5292	-27.642589
1958	1.9580e+000	-0.5173	-27.442372
1959	1.9590e+000	-0.5070	-27.193953
1960	1.9600e+000	-0.4926	-27.257912
1961	1.9610e+000	-0.4823	-26.918653
1962	1.9620e+000	-0.4692	-26.696189
1963	1.9630e+000	-0.4557	-26.526560
1964	1.9640e+000	-0.4461	-26.433866
1965	1.9650e+000	-0.4346	-26.222525
1966	1.9660e+000	-0.4180	-26.004696
1967	1.9670e+000	-0.4079	-25.646899
1968	1.9680e+000	-0.3967	-25.487466
1969	1.9690e+000	-0.3873	-25.085176
1970	1.9700e+000	-0.3711	-24.883104
1971	1.9710e+000	-0.3629	-24.657859
1972	1.9720e+000	-0.3496	-24.436322
1973	1.9730e+000	-0.3376	-24.319528
1974	1.9740e+000	-0.3249	-23.996954
1975	1.9750e+000	-0.3121	-23.791175
1976	1.9760e+000	-0.2988	-23.696628
1977	1.9770e+000	-0.2883	-23.252626
1978	1.9780e+000	-0.2780	-23.059823
1979	1.9790e+000	-0.2651	-22.866094
1980	1.9800e+000	-0.2539	-22.398919
1981	1.9810e+000	-0.2399	-22.011460
1982	1.9820e+000	-0.2261	-21.728745
1983	1.9830e+000	-0.2163	-21.446957
1984	1.9840e+000	-0.2039	-21.163314
1985	1.9850e+000	-0.1926	-20.829618
1986	1.9860e+000	-0.1826	-20.499629
1987	1.9870e+000	-0.1685	-20.096412
1988	1.9880e+000	-0.1572	-19.921222
1989	1.9890e+000	-0.1414	-19.459608
1990	1.9900e+000	-0.1338	-19.177820
1991	1.9910e+000	-0.1202	-18.995214
1992	1.9920e+000	-0.1084	-18.588289
1993	1.9930e+000	-0.0956	-18.311136
1994	1.9940e+000	-0.0852	-17.913481
1995	1.9950e+000	-0.0717	-17.389762
1996	1.9960e+000	-0.0599	-17.180275
1997	1.9970e+000	-0.0500	-16.438727
1998	1.9980e+000	-0.0359	-16.068880
1999	1.9990e+000	-0.0257	-15.602632
2000	2.0000e+000	-0.0119	-15.262447
2001	2.0010e+000	-0.0008	-15.006613

Center data before PMax,±Pr and ±Vc Calc.

PMax (µC/cm2):	3.64e+001
Pr (µC/cm2):	2.28e+001
-Pr (µC/cm2):	-1.50e+001
Vc:	3.94e-001
-Vc:	-3.58e-001
C (Max-Eff) (nF):	5.96e-002
Vert. (±Pr) Shift (µC/cm2):	3.90e+000
Horiz. Shift (±Vc):	1.80e-002
Offset (µC/cm2):	9.81e+000

A (Loop Area - µC/cm2·Volts):	5.64e+001



Hysteresis Version: 5.12.0 - Radiant Technologies, Inc., 1999 - 11/30/16

