»»»»»»»»»»»»»»»»»»»»»»»»»»»»»»»»»»»» Hysteresis ««««««««««««««««««««««««««««««««««««
»»»  Executed Version:	5.12.0
»»»  Vision Version:	5.12.5 (R)
»»»  Vision Compiled:	2/24/17
»»»  Driver Version:	5.12.4
»»»  Windows Version:	Windows 7
»»»  Processor Information:	x86 (AMD or Intel) - 2 Processors
»»»  Tester Name:	PMF0910-256
»»»  Tester S/N:	PMF0910-256
»»»  Internal Amp Type:	 RTI 100V      
»»»  Internal Amp S/N:	 iAB1-0000     
»»»  Execution Count:	1
»»»»»»»»»»»»»»»»»»»»»»»»»»»»»»»»»»»»»»»»»»««««««««««««««««««««««««««««««««««««««««««

Stored:	8/4/2017 - 8:5:42
Configured:	08/03/17 01:23:53 PM
Executed:	08/04/17 08:04:49 AM

»»»»»»»»»»»»»»»»»»»»»»»»»»»»»»»»»»» Sample Info ««««««««««««««««««««««««««««««««««««
Sample Name:	63
Lot Name:	
Wafer Name:	
Die Row/Column:	1/1
Capacitor Number:	1
Sample Area (cm2):	7.85e-005
Sample Thickness (µm):	1.00e-001

Mux Loop Adjustment:	Disabled

Amplifier:	Internal

»»»»»»»»»»»»»»»»»»»»»»»»»»»»»»»»»»» Tester Info «««««««««««««««««««««««««««««««««««
Tester Name:	PMF0910-256
Tester Serial Number:	PMF0910-256
Return Signal Amp. Level:	0.19 [Index: 3]

»»»»»»»»»»»»»»»»»»»»»»»»»»»»»»»» Hysteresis Info ««««««««««««««««««««««««««««««««««
Task Name:	Hyst-2
Volts:	3.00
Field:	300.00 (kV/cm)
Hysteresis Period (ms):	2.00e+000
Preset:	Enabled
Preset Delay (ms):	1.00e+003
Profile:	Double Bipolar

»»»»»»»»»»»»»»»»»»»»»»»»»»»»»»»»»»»»»» Data «««««««««««««««««««««««««««««««««««««««
Points:	2001

Valid Data

Point	Time (ms)	Drive Voltage	Measured Polarization
   1	1.0000e-003	0.0000	-21.373619
   2	2.0000e-003	0.0101	-21.246742
   3	3.0000e-003	0.0218	-21.206142
   4	4.0000e-003	0.0340	-21.170616
   5	5.0000e-003	0.0478	-20.739236
   6	6.0000e-003	0.0571	-21.043740
   7	7.0000e-003	0.0702	-20.982839
   8	8.0000e-003	0.0823	-20.795062
   9	9.0000e-003	0.0945	-20.739236
  10	1.0000e-002	0.1053	-20.658035
  11	1.1000e-002	0.1186	-20.490558
  12	1.2000e-002	0.1298	-20.302781
  13	1.3000e-002	0.1424	-20.221580
  14	1.4000e-002	0.1544	-20.003352
  15	1.5000e-002	0.1659	-19.947527
  16	1.6000e-002	0.1781	-19.693773
  17	1.7000e-002	0.1897	-19.521221
  18	1.8000e-002	0.2022	-19.368970
  19	1.9000e-002	0.2148	-19.099991
  20	2.0000e-002	0.2271	-18.881764
  21	2.1000e-002	0.2391	-18.714287
  22	2.2000e-002	0.2505	-18.536660
  23	2.3000e-002	0.2637	-18.252456
  24	2.4000e-002	0.2746	-17.998703
  25	2.5000e-002	0.2853	-17.953028
  26	2.6000e-002	0.2981	-17.602848
  27	2.7000e-002	0.3101	-17.415071
  28	2.8000e-002	0.3212	-17.069967
  29	2.9000e-002	0.3336	-16.958316
  30	3.0000e-002	0.3460	-16.608136
  31	3.1000e-002	0.3588	-16.394984
  32	3.2000e-002	0.3700	-16.207207
  33	3.3000e-002	0.3818	-15.963604
  34	3.4000e-002	0.3932	-15.679400
  35	3.5000e-002	0.4065	-15.471323
  36	3.6000e-002	0.4179	-15.288621
  37	3.7000e-002	0.4293	-14.994267
  38	3.8000e-002	0.4425	-14.679613
  39	3.9000e-002	0.4537	-14.461386
  40	4.0000e-002	0.4671	-14.222858
  41	4.1000e-002	0.4772	-13.999555
  42	4.2000e-002	0.4900	-13.522500
  43	4.3000e-002	0.5020	-13.334722
  44	4.4000e-002	0.5145	-13.182470
  45	4.5000e-002	0.5261	-12.872892
  46	4.6000e-002	0.5373	-12.649589
  47	4.7000e-002	0.5482	-12.360311
  48	4.8000e-002	0.5624	-12.020282
  49	4.9000e-002	0.5743	-11.731003
  50	5.0000e-002	0.5858	-11.583826
  51	5.1000e-002	0.5981	-11.324998
  52	5.2000e-002	0.6095	-11.081395
  53	5.3000e-002	0.6219	-10.797192
  54	5.4000e-002	0.6352	-10.604340
  55	5.5000e-002	0.6458	-10.249085
  56	5.6000e-002	0.6577	-10.056233
  57	5.7000e-002	0.6699	-9.741579
  58	5.8000e-002	0.6824	-9.513201
  59	5.9000e-002	0.6937	-9.208698
  60	6.0000e-002	0.7068	-9.025996
  61	6.1000e-002	0.7184	-8.645366
  62	6.2000e-002	0.7301	-8.406838
  63	6.3000e-002	0.7421	-8.163235
  64	6.4000e-002	0.7553	-7.868882
  65	6.5000e-002	0.7658	-7.569453
  66	6.6000e-002	0.7786	-7.280175
  67	6.7000e-002	0.7906	-7.001046
  68	6.8000e-002	0.8022	-6.864020
  69	6.9000e-002	0.8134	-6.600117
  70	7.0000e-002	0.8260	-6.255012
  71	7.1000e-002	0.8374	-6.168736
  72	7.2000e-002	0.8510	-5.752581
  73	7.3000e-002	0.8618	-5.539429
  74	7.4000e-002	0.8747	-5.153724
  75	7.5000e-002	0.8876	-4.981172
  76	7.6000e-002	0.8984	-4.630993
  77	7.7000e-002	0.9093	-4.397540
  78	7.8000e-002	0.9236	-4.265589
  79	7.9000e-002	0.9328	-3.803758
  80	8.0000e-002	0.9468	-3.544930
  81	8.1000e-002	0.9583	-3.499254
  82	8.2000e-002	0.9702	-3.022199
  83	8.3000e-002	0.9830	-2.732920
  84	8.4000e-002	0.9949	-2.443642
  85	8.5000e-002	1.0081	-2.271090
  86	8.6000e-002	1.0200	-1.956436
  87	8.7000e-002	1.0307	-1.621482
  88	8.8000e-002	1.0428	-1.332203
  89	8.9000e-002	1.0543	-1.048000
  90	9.0000e-002	1.0650	-0.773947
  91	9.1000e-002	1.0775	-0.408542
  92	9.2000e-002	1.0902	-0.159864
  93	9.3000e-002	1.1024	0.114189
  94	9.4000e-002	1.1138	0.438993
  95	9.5000e-002	1.1264	0.707971
  96	9.6000e-002	1.1398	0.976949
  97	9.7000e-002	1.1494	1.276378
  98	9.8000e-002	1.1619	1.636707
  99	9.9000e-002	1.1732	2.012262
 100	1.0000e-001	1.1864	2.179739
 101	1.0100e-001	1.1984	2.534993
 102	1.0200e-001	1.2103	2.885172
 103	1.0300e-001	1.2219	3.138925
 104	1.0400e-001	1.2335	3.565230
 105	1.0500e-001	1.2469	3.961085
 106	1.0600e-001	1.2585	4.250363
 107	1.0700e-001	1.2694	4.559942
 108	1.0800e-001	1.2823	4.986247
 109	1.0900e-001	1.2958	5.402402
 110	1.1000e-001	1.3068	5.656155
 111	1.1100e-001	1.3190	6.138286
 112	1.1200e-001	1.3301	6.513841
 113	1.1300e-001	1.3411	6.919845
 114	1.1400e-001	1.3546	7.386751
 115	1.1500e-001	1.3655	7.980533
 116	1.1600e-001	1.3779	8.295187
 117	1.1700e-001	1.3906	8.772243
 118	1.1800e-001	1.4014	9.315274
 119	1.1900e-001	1.4127	9.832930
 120	1.2000e-001	1.4252	10.315061
 121	1.2100e-001	1.4386	10.959594
 122	1.2200e-001	1.4484	11.670102
 123	1.2300e-001	1.4616	12.121783
 124	1.2400e-001	1.4738	12.862742
 125	1.2500e-001	1.4848	13.598625
 126	1.2600e-001	1.4957	14.121357
 127	1.2700e-001	1.5090	15.019642
 128	1.2800e-001	1.5205	15.740301
 129	1.2900e-001	1.5337	16.455885
 130	1.3000e-001	1.5456	17.404921
 131	1.3100e-001	1.5559	18.176330
 132	1.3200e-001	1.5709	19.084766
 133	1.3300e-001	1.5804	19.937376
 134	1.3400e-001	1.5927	20.947313
 135	1.3500e-001	1.6048	21.891275
 136	1.3600e-001	1.6157	22.921512
 137	1.3700e-001	1.6283	23.926374
 138	1.3800e-001	1.6402	24.987062
 139	1.3900e-001	1.6535	26.083275
 140	1.4000e-001	1.6640	27.209939
 141	1.4100e-001	1.6745	28.174200
 142	1.4200e-001	1.6895	29.382065
 143	1.4300e-001	1.7011	30.473203
 144	1.4400e-001	1.7131	31.518665
 145	1.4500e-001	1.7245	32.706229
 146	1.4600e-001	1.7370	33.609590
 147	1.4700e-001	1.7468	34.644903
 148	1.4800e-001	1.7593	35.583789
 149	1.4900e-001	1.7719	36.512525
 150	1.5000e-001	1.7863	37.360060
 151	1.5100e-001	1.7978	38.040118
 152	1.5200e-001	1.8096	38.659276
 153	1.5300e-001	1.8215	39.390084
 154	1.5400e-001	1.8344	39.801164
 155	1.5500e-001	1.8458	40.262995
 156	1.5600e-001	1.8572	40.765426
 157	1.5700e-001	1.8700	41.161281
 158	1.5800e-001	1.8821	41.415034
 159	1.5900e-001	1.8935	41.719537
 160	1.6000e-001	1.9068	42.054491
 161	1.6100e-001	1.9183	42.252419
 162	1.6200e-001	1.9314	42.379295
 163	1.6300e-001	1.9436	42.617823
 164	1.6400e-001	1.9532	42.567073
 165	1.6500e-001	1.9669	42.942627
 166	1.6600e-001	1.9783	43.125329
 167	1.6700e-001	1.9914	43.176080
 168	1.6800e-001	2.0037	43.333407
 169	1.6900e-001	2.0144	43.490734
 170	1.7000e-001	2.0261	43.480583
 171	1.7100e-001	2.0393	43.602385
 172	1.7200e-001	2.0506	43.678511
 173	1.7300e-001	2.0628	43.790162
 174	1.7400e-001	2.0744	43.749562
 175	1.7500e-001	2.0872	43.917039
 176	1.7600e-001	2.1006	44.094666
 177	1.7700e-001	2.1104	44.175867
 178	1.7800e-001	2.1235	44.054065
 179	1.7900e-001	2.1360	44.216467
 180	1.8000e-001	2.1458	44.267218
 181	1.8100e-001	2.1600	44.353494
 182	1.8200e-001	2.1706	44.348419
 183	1.8300e-001	2.1830	44.424545
 184	1.8400e-001	2.1952	44.556496
 185	1.8500e-001	2.2066	44.444845
 186	1.8600e-001	2.2186	44.556496
 187	1.8700e-001	2.2309	44.617397
 188	1.8800e-001	2.2426	44.627547
 189	1.8900e-001	2.2553	44.774724
 190	1.9000e-001	2.2672	44.749349
 191	1.9100e-001	2.2788	44.729048
 192	1.9200e-001	2.2910	44.708748
 193	1.9300e-001	2.3026	44.871150
 194	1.9400e-001	2.3149	44.896525
 195	1.9500e-001	2.3257	44.977726
 196	1.9600e-001	2.3389	44.982801
 197	1.9700e-001	2.3512	44.977726
 198	1.9800e-001	2.3623	45.099528
 199	1.9900e-001	2.3753	45.145203
 200	2.0000e-001	2.3870	45.028477
 201	2.0100e-001	2.3979	45.160429
 202	2.0200e-001	2.4100	45.201029
 203	2.0300e-001	2.4236	45.190879
 204	2.0400e-001	2.4358	45.277155
 205	2.0500e-001	2.4466	45.327906
 206	2.0600e-001	2.4593	45.414182
 207	2.0700e-001	2.4715	45.439557
 208	2.0800e-001	2.4831	45.393881
 209	2.0900e-001	2.4955	45.439557
 210	2.1000e-001	2.5076	45.449707
 211	2.1100e-001	2.5195	45.368506
 212	2.1200e-001	2.5309	45.581659
 213	2.1300e-001	2.5456	45.591809
 214	2.1400e-001	2.5559	45.556283
 215	2.1500e-001	2.5668	45.607034
 216	2.1600e-001	2.5788	45.764361
 217	2.1700e-001	2.5897	45.678085
 218	2.1800e-001	2.6038	45.708535
 219	2.1900e-001	2.6154	45.774511
 220	2.2000e-001	2.6273	45.698385
 221	2.2100e-001	2.6391	45.779586
 222	2.2200e-001	2.6517	45.835412
 223	2.2300e-001	2.6649	45.936913
 224	2.2400e-001	2.6749	45.901387
 225	2.2500e-001	2.6865	45.921688
 226	2.2600e-001	2.6994	46.007964
 227	2.2700e-001	2.7115	45.921688
 228	2.2800e-001	2.7231	46.007964
 229	2.2900e-001	2.7356	46.084090
 230	2.3000e-001	2.7472	46.109465
 231	2.3100e-001	2.7604	46.089165
 232	2.3200e-001	2.7711	46.327693
 233	2.3300e-001	2.7821	46.226191
 234	2.3400e-001	2.7945	46.170366
 235	2.3500e-001	2.8091	46.297242
 236	2.3600e-001	2.8186	46.332768
 237	2.3700e-001	2.8305	46.251567
 238	2.3800e-001	2.8431	46.327693
 239	2.3900e-001	2.8554	46.439344
 240	2.4000e-001	2.8674	46.439344
 241	2.4100e-001	2.8802	46.419044
 242	2.4200e-001	2.8916	46.444419
 243	2.4300e-001	2.9022	46.434269
 244	2.4400e-001	2.9144	46.383518
 245	2.4500e-001	2.9261	46.550995
 246	2.4600e-001	2.9388	46.591596
 247	2.4700e-001	2.9509	46.591596
 248	2.4800e-001	2.9629	46.672797
 249	2.4900e-001	2.9747	46.637271
 250	2.5000e-001	2.9862	46.698172
 251	2.5100e-001	3.0000	46.662647
 252	2.5200e-001	2.9903	46.713397
 253	2.5300e-001	2.9774	46.657572
 254	2.5400e-001	2.9652	46.708322
 255	2.5500e-001	2.9537	46.652496
 256	2.5600e-001	2.9413	46.779373
 257	2.5700e-001	2.9288	46.698172
 258	2.5800e-001	2.9177	46.647421
 259	2.5900e-001	2.9058	46.642346
 260	2.6000e-001	2.8935	46.637271
 261	2.6100e-001	2.8819	46.566220
 262	2.6200e-001	2.8698	46.627121
 263	2.6300e-001	2.8574	46.591596
 264	2.6400e-001	2.8465	46.642346
 265	2.6500e-001	2.8338	46.591596
 266	2.6600e-001	2.8211	46.469794
 267	2.6700e-001	2.8089	46.464719
 268	2.6800e-001	2.7976	46.530695
 269	2.6900e-001	2.7858	46.540845
 270	2.7000e-001	2.7741	46.403819
 271	2.7100e-001	2.7615	46.454569
 272	2.7200e-001	2.7493	46.515470
 273	2.7300e-001	2.7377	46.373368
 274	2.7400e-001	2.7258	46.388593
 275	2.7500e-001	2.7136	46.327693
 276	2.7600e-001	2.7011	46.297242
 277	2.7700e-001	2.6892	46.332768
 278	2.7800e-001	2.6782	46.337843
 279	2.7900e-001	2.6650	46.373368
 280	2.8000e-001	2.6537	46.398743
 281	2.8100e-001	2.6422	46.363218
 282	2.8200e-001	2.6294	46.271867
 283	2.8300e-001	2.6172	46.271867
 284	2.8400e-001	2.6041	46.368293
 285	2.8500e-001	2.5928	46.205891
 286	2.8600e-001	2.5813	46.190666
 287	2.8700e-001	2.5676	46.200816
 288	2.8800e-001	2.5574	46.150065
 289	2.8900e-001	2.5455	46.119615
 290	2.9000e-001	2.5337	46.144990
 291	2.9100e-001	2.5220	46.068864
 292	2.9200e-001	2.5089	46.099315
 293	2.9300e-001	2.4973	46.190666
 294	2.9400e-001	2.4869	46.109465
 295	2.9500e-001	2.4724	45.967363
 296	2.9600e-001	2.4621	46.063789
 297	2.9700e-001	2.4501	46.073940
 298	2.9800e-001	2.4374	46.018114
 299	2.9900e-001	2.4246	45.977513
 300	3.0000e-001	2.4134	46.013039
 301	3.0100e-001	2.4015	45.977513
 302	3.0200e-001	2.3895	45.799886
 303	3.0300e-001	2.3779	45.987664
 304	3.0400e-001	2.3662	45.860787
 305	3.0500e-001	2.3531	45.764361
 306	3.0600e-001	2.3422	45.804961
 307	3.0700e-001	2.3296	45.840487
 308	3.0800e-001	2.3175	45.810036
 309	3.0900e-001	2.3054	45.718685
 310	3.1000e-001	2.2932	45.799886
 311	3.1100e-001	2.2806	45.749136
 312	3.1200e-001	2.2693	45.698385
 313	3.1300e-001	2.2576	45.713610
 314	3.1400e-001	2.2453	45.718685
 315	3.1500e-001	2.2334	45.683160
 316	3.1600e-001	2.2215	45.657785
 317	3.1700e-001	2.2092	45.662860
 318	3.1800e-001	2.1981	45.652710
 319	3.1900e-001	2.1844	45.673010
 320	3.2000e-001	2.1734	45.622259
 321	3.2100e-001	2.1616	45.561358
 322	3.2200e-001	2.1486	45.525833
 323	3.2300e-001	2.1378	45.500458
 324	3.2400e-001	2.1265	45.541058
 325	3.2500e-001	2.1136	45.520758
 326	3.2600e-001	2.1013	45.409107
 327	3.2700e-001	2.0895	45.525833
 328	3.2800e-001	2.0773	45.409107
 329	3.2900e-001	2.0644	45.393881
 330	3.3000e-001	2.0535	45.287305
 331	3.3100e-001	2.0410	45.358356
 332	3.3200e-001	2.0288	45.332981
 333	3.3300e-001	2.0173	45.322831
 334	3.3400e-001	2.0057	45.312680
 335	3.3500e-001	1.9937	45.221329
 336	3.3600e-001	1.9821	45.236555
 337	3.3700e-001	1.9699	45.211179
 338	3.3800e-001	1.9578	45.338056
 339	3.3900e-001	1.9451	45.175654
 340	3.4000e-001	1.9337	45.206104
 341	3.4100e-001	1.9203	45.272080
 342	3.4200e-001	1.9089	45.175654
 343	3.4300e-001	1.8966	45.084303
 344	3.4400e-001	1.8839	45.124903
 345	3.4500e-001	1.8723	45.074153
 346	3.4600e-001	1.8609	45.048777
 347	3.4700e-001	1.8501	45.079228
 348	3.4800e-001	1.8357	45.069078
 349	3.4900e-001	1.8243	44.921901
 350	3.5000e-001	1.8136	44.921901
 351	3.5100e-001	1.8027	44.871150
 352	3.5200e-001	1.7901	44.916826
 353	3.5300e-001	1.7768	44.866075
 354	3.5400e-001	1.7664	44.861000
 355	3.5500e-001	1.7533	44.850850
 356	3.5600e-001	1.7402	44.810249
 357	3.5700e-001	1.7294	44.896525
 358	3.5800e-001	1.7172	44.789949
 359	3.5900e-001	1.7051	44.657998
 360	3.6000e-001	1.6934	44.795024
 361	3.6100e-001	1.6801	44.688448
 362	3.6200e-001	1.6700	44.652923
 363	3.6300e-001	1.6557	44.774724
 364	3.6400e-001	1.6442	44.759499
 365	3.6500e-001	1.6328	44.485446
 366	3.6600e-001	1.6209	44.652923
 367	3.6700e-001	1.6079	44.592022
 368	3.6800e-001	1.5967	44.526046
 369	3.6900e-001	1.5858	44.465145
 370	3.7000e-001	1.5717	44.566646
 371	3.7100e-001	1.5614	44.404245
 372	3.7200e-001	1.5491	44.434695
 373	3.7300e-001	1.5385	44.399169
 374	3.7400e-001	1.5257	44.424545
 375	3.7500e-001	1.5128	44.373794
 376	3.7600e-001	1.5015	44.444845
 377	3.7700e-001	1.4890	44.353494
 378	3.7800e-001	1.4768	44.282443
 379	3.7900e-001	1.4647	44.338269
 380	3.8000e-001	1.4532	44.272293
 381	3.8100e-001	1.4408	44.180942
 382	3.8200e-001	1.4285	44.165717
 383	3.8300e-001	1.4168	44.196167
 384	3.8400e-001	1.4045	44.125116
 385	3.8500e-001	1.3927	44.099741
 386	3.8600e-001	1.3823	44.216467
 387	3.8700e-001	1.3681	44.191092
 388	3.8800e-001	1.3571	44.099741
 389	3.8900e-001	1.3432	44.003315
 390	3.9000e-001	1.3333	43.988090
 391	3.9100e-001	1.3214	43.983014
 392	3.9200e-001	1.3080	43.891663
 393	3.9300e-001	1.2968	43.891663
 394	3.9400e-001	1.2840	43.917039
 395	3.9500e-001	1.2733	43.800312
 396	3.9600e-001	1.2603	43.866288
 397	3.9700e-001	1.2491	43.876438
 398	3.9800e-001	1.2388	43.896738
 399	3.9900e-001	1.2260	43.840913
 400	4.0000e-001	1.2136	43.724186
 401	4.0100e-001	1.2019	43.678511
 402	4.0200e-001	1.1893	43.688661
 403	4.0300e-001	1.1771	43.617610
 404	4.0400e-001	1.1643	43.663286
 405	4.0500e-001	1.1532	43.622685
 406	4.0600e-001	1.1403	43.485659
 407	4.0700e-001	1.1299	43.465358
 408	4.0800e-001	1.1167	43.516109
 409	4.0900e-001	1.1041	43.434908
 410	4.1000e-001	1.0931	43.455208
 411	4.1100e-001	1.0806	43.358782
 412	4.1200e-001	1.0690	43.460283
 413	4.1300e-001	1.0577	43.282656
 414	4.1400e-001	1.0450	43.358782
 415	4.1500e-001	1.0326	43.348632
 416	4.1600e-001	1.0215	43.186230
 417	4.1700e-001	1.0084	43.216680
 418	4.1800e-001	0.9974	43.262356
 419	4.1900e-001	0.9856	43.094879
 420	4.2000e-001	0.9739	43.044128
 421	4.2100e-001	0.9602	43.115179
 422	4.2200e-001	0.9492	43.074579
 423	4.2300e-001	0.9371	42.968002
 424	4.2400e-001	0.9253	43.028903
 425	4.2500e-001	0.9129	42.983228
 426	4.2600e-001	0.9026	42.866501
 427	4.2700e-001	0.8880	42.815751
 428	4.2800e-001	0.8786	42.861426
 429	4.2900e-001	0.8646	42.739625
 430	4.3000e-001	0.8537	42.693949
 431	4.3100e-001	0.8418	42.699024
 432	4.3200e-001	0.8298	42.643198
 433	4.3300e-001	0.8166	42.572148
 434	4.3400e-001	0.8049	42.521397
 435	4.3500e-001	0.7925	42.480796
 436	4.3600e-001	0.7818	42.389445
 437	4.3700e-001	0.7702	42.358995
 438	4.3800e-001	0.7573	42.221968
 439	4.3900e-001	0.7449	42.252419
 440	4.4000e-001	0.7336	42.303169
 441	4.4100e-001	0.7204	42.130617
 442	4.4200e-001	0.7092	42.135692
 443	4.4300e-001	0.6962	42.003741
 444	4.4400e-001	0.6853	41.968215
 445	4.4500e-001	0.6723	41.937765
 446	4.4600e-001	0.6604	41.795663
 447	4.4700e-001	0.6483	41.694162
 448	4.4800e-001	0.6364	41.623111
 449	4.4900e-001	0.6231	41.602811
 450	4.5000e-001	0.6124	41.384583
 451	4.5100e-001	0.6012	41.440409
 452	4.5200e-001	0.5892	41.318608
 453	4.5300e-001	0.5778	41.272932
 454	4.5400e-001	0.5649	41.262782
 455	4.5500e-001	0.5534	41.085155
 456	4.5600e-001	0.5411	40.968428
 457	4.5700e-001	0.5298	40.861852
 458	4.5800e-001	0.5172	40.785726
 459	4.5900e-001	0.5045	40.587799
 460	4.6000e-001	0.4928	40.552273
 461	4.6100e-001	0.4792	40.369571
 462	4.6200e-001	0.4691	40.323896
 463	4.6300e-001	0.4555	40.136118
 464	4.6400e-001	0.4447	40.019392
 465	4.6500e-001	0.4322	39.943266
 466	4.6600e-001	0.4223	39.796089
 467	4.6700e-001	0.4089	39.664138
 468	4.6800e-001	0.3976	39.506811
 469	4.6900e-001	0.3843	39.435760
 470	4.7000e-001	0.3722	39.227683
 471	4.7100e-001	0.3601	39.095731
 472	4.7200e-001	0.3496	38.948554
 473	4.7300e-001	0.3346	38.781077
 474	4.7400e-001	0.3257	38.781077
 475	4.7500e-001	0.3140	38.461348
 476	4.7600e-001	0.3019	38.156845
 477	4.7700e-001	0.2888	38.035043
 478	4.7800e-001	0.2775	37.953842
 479	4.7900e-001	0.2645	37.766065
 480	4.8000e-001	0.2534	37.410811
 481	4.8100e-001	0.2409	37.309310
 482	4.8200e-001	0.2284	37.086007
 483	4.8300e-001	0.2183	36.837329
 484	4.8400e-001	0.2047	36.725678
 485	4.8500e-001	0.1938	36.456699
 486	4.8600e-001	0.1818	36.167421
 487	4.8700e-001	0.1691	35.918743
 488	4.8800e-001	0.1570	35.867992
 489	4.8900e-001	0.1447	35.517813
 490	4.9000e-001	0.1331	35.193009
 491	4.9100e-001	0.1205	35.121958
 492	4.9200e-001	0.1096	34.670278
 493	4.9300e-001	0.0965	34.609377
 494	4.9400e-001	0.0850	34.279498
 495	4.9500e-001	0.0723	33.919169
 496	4.9600e-001	0.0599	33.614665
 497	4.9700e-001	0.0488	33.431963
 498	4.9800e-001	0.0379	33.218811
 499	4.9900e-001	0.0251	32.878781
 500	5.0000e-001	0.0129	32.477852
 501	5.0100e-001	0.0008	32.295149
 502	5.0200e-001	-0.0104	31.944970
 503	5.0300e-001	-0.0217	31.518665
 504	5.0400e-001	-0.0333	31.269987
 505	5.0500e-001	-0.0458	30.955333
 506	5.0600e-001	-0.0579	30.559479
 507	5.0700e-001	-0.0693	30.265125
 508	5.0800e-001	-0.0822	29.767769
 509	5.0900e-001	-0.0949	29.356689
 510	5.1000e-001	-0.1054	28.899934
 511	5.1100e-001	-0.1179	28.564980
 512	5.1200e-001	-0.1297	28.301077
 513	5.1300e-001	-0.1412	27.768195
 514	5.1400e-001	-0.1541	27.418016
 515	5.1500e-001	-0.1670	26.971411
 516	5.1600e-001	-0.1775	26.519730
 517	5.1700e-001	-0.1899	26.052825
 518	5.1800e-001	-0.2023	25.514868
 519	5.1900e-001	-0.2133	25.047963
 520	5.2000e-001	-0.2247	24.479556
 521	5.2100e-001	-0.2382	24.022800
 522	5.2200e-001	-0.2499	23.576195
 523	5.2300e-001	-0.2615	23.028088
 524	5.2400e-001	-0.2733	22.388631
 525	5.2500e-001	-0.2859	21.926800
 526	5.2600e-001	-0.2988	21.348243
 527	5.2700e-001	-0.3100	20.693560
 528	5.2800e-001	-0.3231	20.165754
 529	5.2900e-001	-0.3336	19.637948
 530	5.3000e-001	-0.3452	19.039091
 531	5.3100e-001	-0.3566	18.389483
 532	5.3200e-001	-0.3695	17.821076
 533	5.3300e-001	-0.3805	17.156243
 534	5.3400e-001	-0.3931	16.613212
 535	5.3500e-001	-0.4063	15.933153
 536	5.3600e-001	-0.4176	15.456098
 537	5.3700e-001	-0.4287	14.740514
 538	5.3800e-001	-0.4417	14.111207
 539	5.3900e-001	-0.4536	13.613851
 540	5.4000e-001	-0.4660	12.974393
 541	5.4100e-001	-0.4778	12.197909
 542	5.4200e-001	-0.4884	11.670102
 543	5.4300e-001	-0.5011	11.147371
 544	5.4400e-001	-0.5154	10.558664
 545	5.4500e-001	-0.5257	9.812630
 546	5.4600e-001	-0.5373	9.827855
 547	5.4700e-001	-0.5506	8.660591
 548	5.4800e-001	-0.5623	8.061734
 549	5.4900e-001	-0.5739	7.594828
 550	5.5000e-001	-0.5842	6.950296
 551	5.5100e-001	-0.5979	6.320988
 552	5.5200e-001	-0.6096	5.798257
 553	5.5300e-001	-0.6216	5.361802
 554	5.5400e-001	-0.6345	4.722344
 555	5.5500e-001	-0.6463	4.148862
 556	5.5600e-001	-0.6582	3.692107
 557	5.5700e-001	-0.6702	3.128775
 558	5.5800e-001	-0.6828	2.600969
 559	5.5900e-001	-0.6947	2.123913
 560	5.6000e-001	-0.7059	1.591032
 561	5.6100e-001	-0.7173	1.103826
 562	5.6200e-001	-0.7308	0.718121
 563	5.6300e-001	-0.7433	0.215690
 564	5.6400e-001	-0.7555	0.200465
 565	5.6500e-001	-0.7664	-0.779022
 566	5.6600e-001	-0.7785	-1.200252
 567	5.6700e-001	-0.7903	-1.646857
 568	5.6800e-001	-0.8030	-2.134063
 569	5.6900e-001	-0.8138	-2.453792
 570	5.7000e-001	-0.8256	-2.890247
 571	5.7100e-001	-0.8380	-3.362228
 572	5.7200e-001	-0.8506	-3.783458
 573	5.7300e-001	-0.8629	-4.148862
 574	5.7400e-001	-0.8727	-4.620843
 575	5.7500e-001	-0.8869	-5.072523
 576	5.7600e-001	-0.8992	-5.361802
 577	5.7700e-001	-0.9096	-5.793182
 578	5.7800e-001	-0.9222	-6.031710
 579	5.7900e-001	-0.9351	-6.458015
 580	5.8000e-001	-0.9460	-6.894470
 581	5.8100e-001	-0.9581	-7.229424
 582	5.8200e-001	-0.9709	-7.853657
 583	5.8300e-001	-0.9836	-7.945008
 584	5.8400e-001	-0.9941	-8.264737
 585	5.8500e-001	-1.0065	-8.589540
 586	5.8600e-001	-1.0184	-8.995545
 587	5.8700e-001	-1.0305	-9.310199
 588	5.8800e-001	-1.0423	-9.629928
 589	5.8900e-001	-1.0556	-9.985182
 590	5.9000e-001	-1.0651	-10.330286
 591	5.9100e-001	-1.0783	-10.614490
 592	5.9200e-001	-1.0920	-10.979894
 593	5.9300e-001	-1.1010	-11.421424
 594	5.9400e-001	-1.1150	-11.578751
 595	5.9500e-001	-1.1259	-11.944156
 596	5.9600e-001	-1.1383	-12.238509
 597	5.9700e-001	-1.1510	-12.517637
 598	5.9800e-001	-1.1614	-12.847516
 599	5.9900e-001	-1.1736	-13.131720
 600	6.0000e-001	-1.1877	-13.649376
 601	6.0100e-001	-1.1997	-13.867604
 602	6.0200e-001	-1.2103	-14.090906
 603	6.0300e-001	-1.2227	-14.486761
 604	6.0400e-001	-1.2328	-14.831865
 605	6.0500e-001	-1.2464	-15.080543
 606	6.0600e-001	-1.2586	-15.456098
 607	6.0700e-001	-1.2687	-15.577899
 608	6.0800e-001	-1.2827	-15.948379
 609	6.0900e-001	-1.2945	-16.293483
 610	6.1000e-001	-1.3055	-16.587836
 611	6.1100e-001	-1.3169	-16.907565
 612	6.1200e-001	-1.3309	-17.151168
 613	6.1300e-001	-1.3406	-17.562248
 614	6.1400e-001	-1.3538	-17.699275
 615	6.1500e-001	-1.3666	-18.069754
 616	6.1600e-001	-1.3784	-18.425008
 617	6.1700e-001	-1.3911	-18.780263
 618	6.1800e-001	-1.4033	-18.765037
 619	6.1900e-001	-1.4143	-19.318219
 620	6.2000e-001	-1.4249	-19.561822
 621	6.2100e-001	-1.4378	-19.937376
 622	6.2200e-001	-1.4501	-20.221580
 623	6.2300e-001	-1.4625	-20.495633
 624	6.2400e-001	-1.4734	-20.881338
 625	6.2500e-001	-1.4868	-21.165541
 626	6.2600e-001	-1.4976	-21.409144
 627	6.2700e-001	-1.5122	-21.977551
 628	6.2800e-001	-1.5213	-22.170403
 629	6.2900e-001	-1.5349	-22.474907
 630	6.3000e-001	-1.5469	-22.880912
 631	6.3100e-001	-1.5580	-23.261541
 632	6.3200e-001	-1.5707	-23.672621
 633	6.3300e-001	-1.5831	-23.961900
 634	6.3400e-001	-1.5942	-24.601357
 635	6.3500e-001	-1.6068	-25.047963
 636	6.3600e-001	-1.6190	-24.890636
 637	6.3700e-001	-1.6301	-25.915798
 638	6.3800e-001	-1.6412	-26.448679
 639	6.3900e-001	-1.6533	-26.890210
 640	6.4000e-001	-1.6662	-27.473842
 641	6.4100e-001	-1.6780	-28.189425
 642	6.4200e-001	-1.6901	-28.656331
 643	6.4300e-001	-1.7019	-29.224738
 644	6.4400e-001	-1.7118	-29.930171
 645	6.4500e-001	-1.7265	-30.584854
 646	6.4600e-001	-1.7373	-31.381639
 647	6.4700e-001	-1.7506	-32.010946
 648	6.4800e-001	-1.7611	-32.731605
 649	6.4900e-001	-1.7743	-33.467488
 650	6.5000e-001	-1.7854	-34.122171
 651	6.5100e-001	-1.7973	-34.832680
 652	6.5200e-001	-1.8095	-35.487363
 653	6.5300e-001	-1.8228	-36.076070
 654	6.5400e-001	-1.8352	-36.654627
 655	6.5500e-001	-1.8464	-37.481862
 656	6.5600e-001	-1.8573	-37.938617
 657	6.5700e-001	-1.8710	-38.359847
 658	6.5800e-001	-1.8821	-38.801377
 659	6.5900e-001	-1.8945	-39.354559
 660	6.6000e-001	-1.9058	-39.638762
 661	6.6100e-001	-1.9176	-39.912816
 662	6.6200e-001	-1.9296	-40.354346
 663	6.6300e-001	-1.9428	-40.547198
 664	6.6400e-001	-1.9550	-40.775576
 665	6.6500e-001	-1.9672	-41.059779
 666	6.6600e-001	-1.9789	-41.288157
 667	6.6700e-001	-1.9916	-41.486085
 668	6.6800e-001	-2.0031	-41.612961
 669	6.6900e-001	-2.0151	-41.861639
 670	6.7000e-001	-2.0278	-42.013891
 671	6.7100e-001	-2.0380	-42.140767
 672	6.7200e-001	-2.0518	-42.343770
 673	6.7300e-001	-2.0632	-42.404671
 674	6.7400e-001	-2.0756	-42.541697
 675	6.7500e-001	-2.0863	-42.617823
 676	6.7600e-001	-2.0983	-42.851276
 677	6.7700e-001	-2.1104	-42.927402
 678	6.7800e-001	-2.1227	-43.033978
 679	6.7900e-001	-2.1346	-43.084729
 680	6.8000e-001	-2.1478	-43.242056
 681	6.8100e-001	-2.1579	-43.384157
 682	6.8200e-001	-2.1703	-43.460283
 683	6.8300e-001	-2.1830	-43.571935
 684	6.8400e-001	-2.1947	-43.678511
 685	6.8500e-001	-2.2080	-43.764787
 686	6.8600e-001	-2.2189	-43.901814
 687	6.8700e-001	-2.2308	-43.988090
 688	6.8800e-001	-2.2430	-44.064215
 689	6.8900e-001	-2.2549	-44.104816
 690	6.9000e-001	-2.2681	-44.145416
 691	6.9100e-001	-2.2792	-44.282443
 692	6.9200e-001	-2.2900	-44.328119
 693	6.9300e-001	-2.3025	-44.546346
 694	6.9400e-001	-2.3150	-44.434695
 695	6.9500e-001	-2.3274	-44.566646
 696	6.9600e-001	-2.3398	-44.652923
 697	6.9700e-001	-2.3508	-44.663073
 698	6.9800e-001	-2.3631	-44.723973
 699	6.9900e-001	-2.3746	-44.779799
 700	7.0000e-001	-2.3869	-45.069078
 701	7.0100e-001	-2.4006	-44.957426
 702	7.0200e-001	-2.4112	-44.921901
 703	7.0300e-001	-2.4235	-45.094453
 704	7.0400e-001	-2.4336	-45.124903
 705	7.0500e-001	-2.4464	-45.114753
 706	7.0600e-001	-2.4596	-45.261930
 707	7.0700e-001	-2.4718	-45.353281
 708	7.0800e-001	-2.4844	-45.393881
 709	7.0900e-001	-2.4955	-45.398956
 710	7.1000e-001	-2.5065	-45.535983
 711	7.1100e-001	-2.5188	-45.459857
 712	7.1200e-001	-2.5314	-45.485232
 713	7.1300e-001	-2.5437	-45.647634
 714	7.1400e-001	-2.5546	-45.561358
 715	7.1500e-001	-2.5674	-45.662860
 716	7.1600e-001	-2.5797	-45.647634
 717	7.1700e-001	-2.5911	-45.779586
 718	7.1800e-001	-2.6028	-45.759286
 719	7.1900e-001	-2.6142	-45.876012
 720	7.2000e-001	-2.6275	-45.947063
 721	7.2100e-001	-2.6388	-45.987664
 722	7.2200e-001	-2.6511	-46.018114
 723	7.2300e-001	-2.6626	-46.018114
 724	7.2400e-001	-2.6749	-45.992739
 725	7.2500e-001	-2.6873	-46.160216
 726	7.2600e-001	-2.6988	-46.210966
 727	7.2700e-001	-2.7119	-46.180516
 728	7.2800e-001	-2.7242	-46.226191
 729	7.2900e-001	-2.7361	-46.190666
 730	7.3000e-001	-2.7470	-46.292167
 731	7.3100e-001	-2.7568	-46.282017
 732	7.3200e-001	-2.7704	-46.403819
 733	7.3300e-001	-2.7834	-46.332768
 734	7.3400e-001	-2.7956	-46.413969
 735	7.3500e-001	-2.8087	-46.444419
 736	7.3600e-001	-2.8199	-46.525620
 737	7.3700e-001	-2.8317	-46.485019
 738	7.3800e-001	-2.8430	-46.525620
 739	7.3900e-001	-2.8557	-46.616971
 740	7.4000e-001	-2.8669	-46.601746
 741	7.4100e-001	-2.8786	-46.698172
 742	7.4200e-001	-2.8914	-46.743848
 743	7.4300e-001	-2.9036	-46.718472
 744	7.4400e-001	-2.9150	-46.880874
 745	7.4500e-001	-2.9277	-46.840274
 746	7.4600e-001	-2.9381	-46.987450
 747	7.4700e-001	-2.9506	-46.845349
 748	7.4800e-001	-2.9636	-46.987450
 749	7.4900e-001	-2.9759	-46.911325
 750	7.5000e-001	-2.9870	-46.997601
 751	7.5100e-001	-3.0003	-47.053426
 752	7.5200e-001	-2.9898	-46.977300
 753	7.5300e-001	-2.9783	-46.977300
 754	7.5400e-001	-2.9655	-46.967150
 755	7.5500e-001	-2.9547	-46.997601
 756	7.5600e-001	-2.9411	-46.885949
 757	7.5700e-001	-2.9297	-46.931625
 758	7.5800e-001	-2.9173	-46.926550
 759	7.5900e-001	-2.9045	-47.007751
 760	7.6000e-001	-2.8940	-46.911325
 761	7.6100e-001	-2.8820	-46.921475
 762	7.6200e-001	-2.8703	-46.977300
 763	7.6300e-001	-2.8579	-46.764148
 764	7.6400e-001	-2.8461	-46.753998
 765	7.6500e-001	-2.8339	-46.855499
 766	7.6600e-001	-2.8222	-46.825049
 767	7.6700e-001	-2.8094	-46.814898
 768	7.6800e-001	-2.7971	-46.764148
 769	7.6900e-001	-2.7864	-46.774298
 770	7.7000e-001	-2.7746	-46.657572
 771	7.7100e-001	-2.7623	-46.677872
 772	7.7200e-001	-2.7493	-46.809823
 773	7.7300e-001	-2.7374	-46.759073
 774	7.7400e-001	-2.7256	-46.611896
 775	7.7500e-001	-2.7131	-46.601746
 776	7.7600e-001	-2.7010	-46.611896
 777	7.7700e-001	-2.6904	-46.627121
 778	7.7800e-001	-2.6769	-46.581446
 779	7.7900e-001	-2.6658	-46.520545
 780	7.8000e-001	-2.6536	-46.672797
 781	7.8100e-001	-2.6421	-46.550995
 782	7.8200e-001	-2.6292	-46.556070
 783	7.8300e-001	-2.6183	-46.495170
 784	7.8400e-001	-2.6047	-46.540845
 785	7.8500e-001	-2.5932	-46.444419
 786	7.8600e-001	-2.5829	-46.368293
 787	7.8700e-001	-2.5687	-46.363218
 788	7.8800e-001	-2.5562	-46.429194
 789	7.8900e-001	-2.5469	-46.347993
 790	7.9000e-001	-2.5335	-46.363218
 791	7.9100e-001	-2.5208	-46.373368
 792	7.9200e-001	-2.5076	-46.282017
 793	7.9300e-001	-2.4987	-46.322618
 794	7.9400e-001	-2.4847	-46.251567
 795	7.9500e-001	-2.4737	-46.155141
 796	7.9600e-001	-2.4628	-46.241417
 797	7.9700e-001	-2.4492	-46.195741
 798	7.9800e-001	-2.4372	-46.271867
 799	7.9900e-001	-2.4252	-46.175441
 800	8.0000e-001	-2.4137	-46.160216
 801	8.0100e-001	-2.4010	-46.104390
 802	8.0200e-001	-2.3901	-46.099315
 803	8.0300e-001	-2.3779	-46.134840
 804	8.0400e-001	-2.3650	-45.962288
 805	8.0500e-001	-2.3568	-46.028264
 806	8.0600e-001	-2.3424	-46.048564
 807	8.0700e-001	-2.3289	-45.972438
 808	8.0800e-001	-2.3177	-45.967363
 809	8.0900e-001	-2.3055	-45.941988
 810	8.1000e-001	-2.2929	-45.881087
 811	8.1100e-001	-2.2813	-45.820187
 812	8.1200e-001	-2.2691	-45.825262
 813	8.1300e-001	-2.2590	-45.789736
 814	8.1400e-001	-2.2459	-45.693310
 815	8.1500e-001	-2.2339	-45.637484
 816	8.1600e-001	-2.2221	-45.921688
 817	8.1700e-001	-2.2085	-45.749136
 818	8.1800e-001	-2.1976	-45.728835
 819	8.1900e-001	-2.1861	-45.723760
 820	8.2000e-001	-2.1733	-45.535983
 821	8.2100e-001	-2.1612	-45.617184
 822	8.2200e-001	-2.1485	-45.566433
 823	8.2300e-001	-2.1371	-45.546133
 824	8.2400e-001	-2.1259	-45.480157
 825	8.2500e-001	-2.1144	-45.607034
 826	8.2600e-001	-2.1018	-45.470007
 827	8.2700e-001	-2.0902	-45.404032
 828	8.2800e-001	-2.0772	-45.505533
 829	8.2900e-001	-2.0651	-45.373581
 830	8.3000e-001	-2.0535	-45.429407
 831	8.3100e-001	-2.0411	-45.317755
 832	8.3200e-001	-2.0295	-45.343131
 833	8.3300e-001	-2.0168	-45.195954
 834	8.3400e-001	-2.0057	-45.368506
 835	8.3500e-001	-1.9930	-45.327906
 836	8.3600e-001	-1.9808	-45.272080
 837	8.3700e-001	-1.9691	-45.114753
 838	8.3800e-001	-1.9587	-45.185804
 839	8.3900e-001	-1.9453	-45.180729
 840	8.4000e-001	-1.9338	-45.074153
 841	8.4100e-001	-1.9212	-45.094453
 842	8.4200e-001	-1.9102	-45.135053
 843	8.4300e-001	-1.8964	-44.972651
 844	8.4400e-001	-1.8859	-45.003102
 845	8.4500e-001	-1.8742	-45.048777
 846	8.4600e-001	-1.8623	-44.926976
 847	8.4700e-001	-1.8488	-44.982801
 848	8.4800e-001	-1.8385	-44.845775
 849	8.4900e-001	-1.8249	-44.855925
 850	8.5000e-001	-1.8145	-44.800099
 851	8.5100e-001	-1.8016	-44.795024
 852	8.5200e-001	-1.7886	-44.916826
 853	8.5300e-001	-1.7765	-44.759499
 854	8.5400e-001	-1.7659	-44.698598
 855	8.5500e-001	-1.7526	-44.561571
 856	8.5600e-001	-1.7402	-44.688448
 857	8.5700e-001	-1.7296	-44.637697
 858	8.5800e-001	-1.7167	-44.460070
 859	8.5900e-001	-1.7060	-44.505746
 860	8.6000e-001	-1.6933	-44.546346
 861	8.6100e-001	-1.6806	-44.490521
 862	8.6200e-001	-1.6683	-44.490521
 863	8.6300e-001	-1.6558	-44.454995
 864	8.6400e-001	-1.6447	-44.454995
 865	8.6500e-001	-1.6344	-44.378869
 866	8.6600e-001	-1.6206	-44.277368
 867	8.6700e-001	-1.6077	-44.353494
 868	8.6800e-001	-1.5984	-44.231692
 869	8.6900e-001	-1.5841	-44.226617
 870	8.7000e-001	-1.5719	-44.257068
 871	8.7100e-001	-1.5604	-44.241843
 872	8.7200e-001	-1.5490	-43.993165
 873	8.7300e-001	-1.5367	-44.038840
 874	8.7400e-001	-1.5262	-44.033765
 875	8.7500e-001	-1.5141	-43.891663
 876	8.7600e-001	-1.5028	-43.911964
 877	8.7700e-001	-1.4896	-43.861213
 878	8.7800e-001	-1.4773	-43.851063
 879	8.7900e-001	-1.4648	-43.840913
 880	8.8000e-001	-1.4523	-43.764787
 881	8.8100e-001	-1.4419	-43.688661
 882	8.8200e-001	-1.4288	-43.556709
 883	8.8300e-001	-1.4172	-43.607460
 884	8.8400e-001	-1.4053	-43.546559
 885	8.8500e-001	-1.3933	-43.465358
 886	8.8600e-001	-1.3817	-43.511034
 887	8.8700e-001	-1.3677	-43.404458
 888	8.8800e-001	-1.3570	-43.465358
 889	8.8900e-001	-1.3453	-43.328332
 890	8.9000e-001	-1.3338	-43.308031
 891	8.9100e-001	-1.3200	-43.216680
 892	8.9200e-001	-1.3097	-43.033978
 893	8.9300e-001	-1.2987	-43.064428
 894	8.9400e-001	-1.2857	-43.033978
 895	8.9500e-001	-1.2725	-42.962927
 896	8.9600e-001	-1.2620	-42.957852
 897	8.9700e-001	-1.2495	-42.856351
 898	8.9800e-001	-1.2371	-42.841126
 899	8.9900e-001	-1.2260	-42.709174
 900	9.0000e-001	-1.2132	-42.612748
 901	9.0100e-001	-1.2021	-42.663499
 902	9.0200e-001	-1.1901	-42.577223
 903	9.0300e-001	-1.1783	-42.526472
 904	9.0400e-001	-1.1642	-42.338695
 905	9.0500e-001	-1.1529	-42.369145
 906	9.0600e-001	-1.1425	-42.399596
 907	9.0700e-001	-1.1301	-42.186443
 908	9.0800e-001	-1.1189	-42.176293
 909	9.0900e-001	-1.1053	-42.064642
 910	9.1000e-001	-1.0938	-41.983441
 911	9.1100e-001	-1.0805	-41.795663
 912	9.1200e-001	-1.0686	-41.826114
 913	9.1300e-001	-1.0577	-41.714462
 914	9.1400e-001	-1.0454	-41.557135
 915	9.1500e-001	-1.0336	-41.612961
 916	9.1600e-001	-1.0198	-41.374433
 917	9.1700e-001	-1.0099	-41.323683
 918	9.1800e-001	-0.9970	-41.288157
 919	9.1900e-001	-0.9853	-41.206956
 920	9.2000e-001	-0.9729	-40.978578
 921	9.2100e-001	-0.9625	-40.963353
 922	9.2200e-001	-0.9501	-40.846627
 923	9.2300e-001	-0.9372	-40.638549
 924	9.2400e-001	-0.9252	-40.734976
 925	9.2500e-001	-0.9130	-40.618249
 926	9.2600e-001	-0.9001	-40.344196
 927	9.2700e-001	-0.8900	-40.232545
 928	9.2800e-001	-0.8775	-40.212244
 929	9.2900e-001	-0.8657	-40.039692
 930	9.3000e-001	-0.8549	-39.872215
 931	9.3100e-001	-0.8419	-39.902666
 932	9.3200e-001	-0.8294	-39.770714
 933	9.3300e-001	-0.8185	-39.501736
 934	9.3400e-001	-0.8057	-39.456060
 935	9.3500e-001	-0.7930	-39.253058
 936	9.3600e-001	-0.7811	-39.156632
 937	9.3700e-001	-0.7693	-39.014530
 938	9.3800e-001	-0.7576	-38.902879
 939	9.3900e-001	-0.7453	-38.623750
 940	9.4000e-001	-0.7333	-38.542549
 941	9.4100e-001	-0.7216	-38.425823
 942	9.4200e-001	-0.7102	-38.395373
 943	9.4300e-001	-0.6969	-38.080719
 944	9.4400e-001	-0.6850	-37.796515
 945	9.4500e-001	-0.6728	-37.776215
 946	9.4600e-001	-0.6620	-37.583363
 947	9.4700e-001	-0.6502	-37.420961
 948	9.4800e-001	-0.6368	-37.283934
 949	9.4900e-001	-0.6242	-37.040331
 950	9.5000e-001	-0.6129	-36.806879
 951	9.5100e-001	-0.6014	-36.669852
 952	9.5200e-001	-0.5891	-36.522675
 953	9.5300e-001	-0.5770	-36.299372
 954	9.5400e-001	-0.5662	-36.111595
 955	9.5500e-001	-0.5532	-35.898443
 956	9.5600e-001	-0.5417	-35.730966
 957	9.5700e-001	-0.5305	-35.548263
 958	9.5800e-001	-0.5173	-35.243760
 959	9.5900e-001	-0.5054	-35.167634
 960	9.6000e-001	-0.4940	-35.040757
 961	9.6100e-001	-0.4807	-34.655053
 962	9.6200e-001	-0.4685	-34.386075
 963	9.6300e-001	-0.4572	-34.375924
 964	9.6400e-001	-0.4449	-34.010520
 965	9.6500e-001	-0.4329	-33.797367
 966	9.6600e-001	-0.4215	-33.655266
 967	9.6700e-001	-0.4095	-33.442113
 968	9.6800e-001	-0.3973	-33.025958
 969	9.6900e-001	-0.3863	-32.934607
 970	9.7000e-001	-0.3729	-32.680854
 971	9.7100e-001	-0.3616	-32.411876
 972	9.7200e-001	-0.3488	-32.127672
 973	9.7300e-001	-0.3373	-32.041396
 974	9.7400e-001	-0.3241	-31.721668
 975	9.7500e-001	-0.3133	-31.386714
 976	9.7600e-001	-0.3012	-31.239537
 977	9.7700e-001	-0.2893	-30.940108
 978	9.7800e-001	-0.2790	-30.792931
 979	9.7900e-001	-0.2652	-30.452902
 980	9.8000e-001	-0.2525	-30.270200
 981	9.8100e-001	-0.2396	-29.935246
 982	9.8200e-001	-0.2302	-29.722094
 983	9.8300e-001	-0.2164	-29.681493
 984	9.8400e-001	-0.2067	-29.265338
 985	9.8500e-001	-0.1958	-28.940534
 986	9.8600e-001	-0.1816	-28.803508
 987	9.8700e-001	-0.1685	-28.564980
 988	9.8800e-001	-0.1573	-28.321377
 989	9.8900e-001	-0.1456	-27.930597
 990	9.9000e-001	-0.1331	-27.773270
 991	9.9100e-001	-0.1225	-27.473842
 992	9.9200e-001	-0.1090	-27.245464
 993	9.9300e-001	-0.0988	-27.047537
 994	9.9400e-001	-0.0846	-26.763333
 995	9.9500e-001	-0.0723	-26.550181
 996	9.9600e-001	-0.0626	-26.276127
 997	9.9700e-001	-0.0507	-26.007149
 998	9.9800e-001	-0.0358	-25.738171
 999	9.9900e-001	-0.0256	-25.484418
1000	1.0000e+000	-0.0116	-25.286490
1001	1.0010e+000	-0.0012	-24.997212
1002	1.0020e+000	0.0108	-24.667333
1003	1.0030e+000	0.0225	-24.428805
1004	1.0040e+000	0.0340	-24.291779
1005	1.0050e+000	0.0456	-23.987275
1006	1.0060e+000	0.0581	-23.632021
1007	1.0070e+000	0.0700	-23.632021
1008	1.0080e+000	0.0816	-23.322442
1009	1.0090e+000	0.0926	-22.941812
1010	1.0100e+000	0.1057	-22.617008
1011	1.0110e+000	0.1183	-22.561183
1012	1.0120e+000	0.1312	-22.282054
1013	1.0130e+000	0.1408	-21.886200
1014	1.0140e+000	0.1530	-21.662897
1015	1.0150e+000	0.1662	-21.541096
1016	1.0160e+000	0.1792	-21.216292
1017	1.0170e+000	0.1901	-21.013289
1018	1.0180e+000	0.2023	-20.810287
1019	1.0190e+000	0.2138	-20.383982
1020	1.0200e+000	0.2264	-20.216505
1021	1.0210e+000	0.2378	-20.033803
1022	1.0220e+000	0.2496	-19.678548
1023	1.0230e+000	0.2625	-19.505996
1024	1.0240e+000	0.2738	-19.221793
1025	1.0250e+000	0.2858	-18.962965
1026	1.0260e+000	0.2984	-18.688911
1027	1.0270e+000	0.3103	-18.450384
1028	1.0280e+000	0.3227	-18.232156
1029	1.0290e+000	0.3346	-17.907352
1030	1.0300e+000	0.3455	-17.638374
1031	1.0310e+000	0.3580	-17.374471
1032	1.0320e+000	0.3692	-17.054742
1033	1.0330e+000	0.3807	-16.866965
1034	1.0340e+000	0.3945	-16.516785
1035	1.0350e+000	0.4066	-16.288408
1036	1.0360e+000	0.4182	-15.999129
1037	1.0370e+000	0.4303	-15.704776
1038	1.0380e+000	0.4421	-15.405347
1039	1.0390e+000	0.4539	-15.187119
1040	1.0400e+000	0.4659	-14.816640
1041	1.0410e+000	0.4772	-14.557812
1042	1.0420e+000	0.4891	-14.380185
1043	1.0430e+000	0.5025	-14.035081
1044	1.0440e+000	0.5155	-13.695052
1045	1.0450e+000	0.5260	-13.547875
1046	1.0460e+000	0.5399	-13.294122
1047	1.0470e+000	0.5493	-12.888117
1048	1.0480e+000	0.5611	-12.639439
1049	1.0490e+000	0.5733	-12.279110
1050	1.0500e+000	0.5868	-12.065957
1051	1.0510e+000	0.5979	-11.680252
1052	1.0520e+000	0.6107	-11.553376
1053	1.0530e+000	0.6232	-11.279323
1054	1.0540e+000	0.6345	-10.842867
1055	1.0550e+000	0.6462	-10.660165
1056	1.0560e+000	0.6598	-10.426712
1057	1.0570e+000	0.6690	-10.086683
1058	1.0580e+000	0.6824	-9.695904
1059	1.0590e+000	0.6939	-9.569027
1060	1.0600e+000	0.7071	-9.198548
1061	1.0610e+000	0.7182	-8.883894
1062	1.0620e+000	0.7306	-8.721492
1063	1.0630e+000	0.7422	-8.371313
1064	1.0640e+000	0.7539	-8.051584
1065	1.0650e+000	0.7673	-7.873957
1066	1.0660e+000	0.7793	-7.579603
1067	1.0670e+000	0.7891	-7.320775
1068	1.0680e+000	0.8027	-6.935071
1069	1.0690e+000	0.8144	-6.721918
1070	1.0700e+000	0.8265	-6.447865
1071	1.0710e+000	0.8379	-6.204262
1072	1.0720e+000	0.8502	-5.975884
1073	1.0730e+000	0.8625	-5.585104
1074	1.0740e+000	0.8760	-5.311051
1075	1.0750e+000	0.8875	-5.097899
1076	1.0760e+000	0.8976	-4.752794
1077	1.0770e+000	0.9099	-4.534567
1078	1.0780e+000	0.9220	-4.199613
1079	1.0790e+000	0.9338	-3.940785
1080	1.0800e+000	0.9473	-3.661656
1081	1.0810e+000	0.9586	-3.367303
1082	1.0820e+000	0.9705	-3.001898
1083	1.0830e+000	0.9799	-2.732920
1084	1.0840e+000	0.9941	-2.509618
1085	1.0850e+000	1.0062	-2.174664
1086	1.0860e+000	1.0188	-1.794034
1087	1.0870e+000	1.0298	-1.748358
1088	1.0880e+000	1.0426	-1.256078
1089	1.0890e+000	1.0537	-0.941424
1090	1.0900e+000	1.0660	-0.743496
1091	1.0910e+000	1.0779	-0.570944
1092	1.0920e+000	1.0892	-0.114189
1093	1.0930e+000	1.1021	0.109114
1094	1.0940e+000	1.1150	0.484668
1095	1.0950e+000	1.1259	0.773947
1096	1.0960e+000	1.1374	1.093676
1097	1.0970e+000	1.1487	1.352504
1098	1.0980e+000	1.1626	1.743283
1099	1.0990e+000	1.1742	2.007187
1100	1.1000e+000	1.1856	2.352291
1101	1.1010e+000	1.1985	2.651719
1102	1.1020e+000	1.2100	3.103400
1103	1.1030e+000	1.2227	3.372378
1104	1.1040e+000	1.2344	3.697182
1105	1.1050e+000	1.2454	4.067661
1106	1.1060e+000	1.2585	4.392465
1107	1.1070e+000	1.2708	4.742644
1108	1.1080e+000	1.2821	5.163874
1109	1.1090e+000	1.2942	5.605405
1110	1.1100e+000	1.3063	5.889608
1111	1.1110e+000	1.3190	6.412339
1112	1.1120e+000	1.3306	6.828494
1113	1.1130e+000	1.3403	7.153298
1114	1.1140e+000	1.3530	7.569453
1115	1.1150e+000	1.3663	8.056659
1116	1.1160e+000	1.3771	8.543865
1117	1.1170e+000	1.3886	9.097046
1118	1.1180e+000	1.4017	9.614703
1119	1.1190e+000	1.4139	10.147584
1120	1.1200e+000	1.4248	10.680465
1121	1.1210e+000	1.4370	11.314848
1122	1.1220e+000	1.4489	11.913705
1123	1.1230e+000	1.4613	12.553163
1124	1.1240e+000	1.4723	13.253521
1125	1.1250e+000	1.4842	13.908204
1126	1.1260e+000	1.4984	14.633938
1127	1.1270e+000	1.5102	15.476398
1128	1.1280e+000	1.5204	16.151381
1129	1.1290e+000	1.5331	16.907565
1130	1.1300e+000	1.5452	17.881977
1131	1.1310e+000	1.5552	18.765037
1132	1.1320e+000	1.5701	19.561822
1133	1.1330e+000	1.5804	20.652960
1134	1.1340e+000	1.5936	21.566471
1135	1.1350e+000	1.6041	22.454607
1136	1.1360e+000	1.6169	23.632021
1137	1.1370e+000	1.6286	24.636883
1138	1.1380e+000	1.6395	25.672195
1139	1.1390e+000	1.6537	26.839459
1140	1.1400e+000	1.6658	27.950897
1141	1.1410e+000	1.6772	28.935459
1142	1.1420e+000	1.6885	30.117948
1143	1.1430e+000	1.7006	31.127885
1144	1.1440e+000	1.7120	32.264699
1145	1.1450e+000	1.7242	33.234036
1146	1.1460e+000	1.7370	34.304874
1147	1.1470e+000	1.7484	35.294510
1148	1.1480e+000	1.7605	36.233397
1149	1.1490e+000	1.7730	37.096157
1150	1.1500e+000	1.7872	37.892942
1151	1.1510e+000	1.7979	38.512099
1152	1.1520e+000	1.8095	39.278433
1153	1.1530e+000	1.8213	39.821465
1154	1.1540e+000	1.8330	40.257920
1155	1.1550e+000	1.8455	40.704525
1156	1.1560e+000	1.8593	41.171431
1157	1.1570e+000	1.8703	41.389658
1158	1.1580e+000	1.8819	41.765213
1159	1.1590e+000	1.8941	42.176293
1160	1.1600e+000	1.9057	42.308244
1161	1.1610e+000	1.9186	42.541697
1162	1.1620e+000	1.9303	42.724399
1163	1.1630e+000	1.9432	42.871576
1164	1.1640e+000	1.9539	43.003528
1165	1.1650e+000	1.9663	43.155780
1166	1.1660e+000	1.9783	43.328332
1167	1.1670e+000	1.9927	43.445058
1168	1.1680e+000	2.0027	43.495809
1169	1.1690e+000	2.0154	43.744487
1170	1.1700e+000	2.0264	43.759712
1171	1.1710e+000	2.0389	43.830763
1172	1.1720e+000	2.0512	43.927189
1173	1.1730e+000	2.0631	43.932264
1174	1.1740e+000	2.0741	44.069291
1175	1.1750e+000	2.0865	44.145416
1176	1.1760e+000	2.0990	44.246918
1177	1.1770e+000	2.1109	44.251993
1178	1.1780e+000	2.1225	44.297668
1179	1.1790e+000	2.1345	44.328119
1180	1.1800e+000	2.1464	44.292593
1181	1.1810e+000	2.1594	44.526046
1182	1.1820e+000	2.1708	44.566646
1183	1.1830e+000	2.1829	44.597097
1184	1.1840e+000	2.1942	44.734123
1185	1.1850e+000	2.2073	44.663073
1186	1.1860e+000	2.2202	44.627547
1187	1.1870e+000	2.2308	44.815324
1188	1.1880e+000	2.2427	44.820400
1189	1.1890e+000	2.2553	45.033552
1190	1.1900e+000	2.2668	44.916826
1191	1.1910e+000	2.2775	45.013252
1192	1.1920e+000	2.2904	44.977726
1193	1.1930e+000	2.3022	45.008177
1194	1.1940e+000	2.3154	45.124903
1195	1.1950e+000	2.3280	45.160429
1196	1.1960e+000	2.3386	45.104603
1197	1.1970e+000	2.3512	45.231479
1198	1.1980e+000	2.3628	45.190879
1199	1.1990e+000	2.3745	45.231479
1200	1.2000e+000	2.3867	45.363431
1201	1.2010e+000	2.3996	45.317755
1202	1.2020e+000	2.4121	45.292380
1203	1.2030e+000	2.4229	45.327906
1204	1.2040e+000	2.4361	45.505533
1205	1.2050e+000	2.4467	45.470007
1206	1.2060e+000	2.4591	45.439557
1207	1.2070e+000	2.4712	45.596884
1208	1.2080e+000	2.4829	45.505533
1209	1.2090e+000	2.4957	45.627334
1210	1.2100e+000	2.5072	45.576584
1211	1.2110e+000	2.5194	45.678085
1212	1.2120e+000	2.5327	45.607034
1213	1.2130e+000	2.5445	45.754211
1214	1.2140e+000	2.5552	45.738986
1215	1.2150e+000	2.5669	45.825262
1216	1.2160e+000	2.5790	45.840487
1217	1.2170e+000	2.5909	45.906463
1218	1.2180e+000	2.6035	45.896312
1219	1.2190e+000	2.6154	46.013039
1220	1.2200e+000	2.6273	45.921688
1221	1.2210e+000	2.6377	45.987664
1222	1.2220e+000	2.6505	46.028264
1223	1.2230e+000	2.6626	46.089165
1224	1.2240e+000	2.6753	46.048564
1225	1.2250e+000	2.6868	46.109465
1226	1.2260e+000	2.6991	46.104390
1227	1.2270e+000	2.7109	46.134840
1228	1.2280e+000	2.7238	46.084090
1229	1.2290e+000	2.7348	46.150065
1230	1.2300e+000	2.7466	46.200816
1231	1.2310e+000	2.7592	46.282017
1232	1.2320e+000	2.7706	46.342918
1233	1.2330e+000	2.7833	46.342918
1234	1.2340e+000	2.7964	46.327693
1235	1.2350e+000	2.8063	46.434269
1236	1.2360e+000	2.8185	46.464719
1237	1.2370e+000	2.8310	46.408894
1238	1.2380e+000	2.8431	46.449494
1239	1.2390e+000	2.8546	46.591596
1240	1.2400e+000	2.8663	46.490095
1241	1.2410e+000	2.8770	46.576371
1242	1.2420e+000	2.8909	46.708322
1243	1.2430e+000	2.9041	46.672797
1244	1.2440e+000	2.9151	46.688022
1245	1.2450e+000	2.9276	46.774298
1246	1.2460e+000	2.9386	46.723547
1247	1.2470e+000	2.9517	46.677872
1248	1.2480e+000	2.9633	46.703247
1249	1.2490e+000	2.9749	46.769223
1250	1.2500e+000	2.9877	46.931625
1251	1.2510e+000	3.0013	46.764148
1252	1.2520e+000	2.9900	46.946850
1253	1.2530e+000	2.9775	46.825049
1254	1.2540e+000	2.9653	46.753998
1255	1.2550e+000	2.9533	46.825049
1256	1.2560e+000	2.9426	46.708322
1257	1.2570e+000	2.9289	46.885949
1258	1.2580e+000	2.9179	46.830124
1259	1.2590e+000	2.9066	46.804748
1260	1.2600e+000	2.8943	46.774298
1261	1.2610e+000	2.8824	46.769223
1262	1.2620e+000	2.8689	46.794598
1263	1.2630e+000	2.8583	46.753998
1264	1.2640e+000	2.8459	46.774298
1265	1.2650e+000	2.8336	46.688022
1266	1.2660e+000	2.8223	46.667722
1267	1.2670e+000	2.8111	46.642346
1268	1.2680e+000	2.7975	46.667722
1269	1.2690e+000	2.7854	46.667722
1270	1.2700e+000	2.7731	46.632196
1271	1.2710e+000	2.7622	46.632196
1272	1.2720e+000	2.7503	46.611896
1273	1.2730e+000	2.7370	46.606821
1274	1.2740e+000	2.7250	46.566220
1275	1.2750e+000	2.7139	46.540845
1276	1.2760e+000	2.7023	46.495170
1277	1.2770e+000	2.6893	46.505320
1278	1.2780e+000	2.6780	46.550995
1279	1.2790e+000	2.6655	46.474869
1280	1.2800e+000	2.6548	46.535770
1281	1.2810e+000	2.6407	46.535770
1282	1.2820e+000	2.6294	46.292167
1283	1.2830e+000	2.6176	46.439344
1284	1.2840e+000	2.6050	46.413969
1285	1.2850e+000	2.5946	46.378443
1286	1.2860e+000	2.5813	46.337843
1287	1.2870e+000	2.5684	46.368293
1288	1.2880e+000	2.5580	46.388593
1289	1.2890e+000	2.5443	46.297242
1290	1.2900e+000	2.5345	46.353068
1291	1.2910e+000	2.5208	46.256642
1292	1.2920e+000	2.5085	46.185591
1293	1.2930e+000	2.4975	46.221116
1294	1.2940e+000	2.4854	46.287092
1295	1.2950e+000	2.4734	46.302317
1296	1.2960e+000	2.4610	46.216041
1297	1.2970e+000	2.4483	46.139915
1298	1.2980e+000	2.4375	46.134840
1299	1.2990e+000	2.4252	46.104390
1300	1.3000e+000	2.4128	46.099315
1301	1.3010e+000	2.4015	46.226191
1302	1.3020e+000	2.3904	46.068864
1303	1.3030e+000	2.3782	46.023189
1304	1.3040e+000	2.3663	45.992739
1305	1.3050e+000	2.3532	46.073940
1306	1.3060e+000	2.3418	45.997814
1307	1.3070e+000	2.3296	45.967363
1308	1.3080e+000	2.3170	45.941988
1309	1.3090e+000	2.3062	45.830337
1310	1.3100e+000	2.2941	45.906463
1311	1.3110e+000	2.2807	45.941988
1312	1.3120e+000	2.2702	45.952138
1313	1.3130e+000	2.2567	45.825262
1314	1.3140e+000	2.2445	45.799886
1315	1.3150e+000	2.2330	45.876012
1316	1.3160e+000	2.2227	45.891237
1317	1.3170e+000	2.2094	45.662860
1318	1.3180e+000	2.1963	45.835412
1319	1.3190e+000	2.1854	45.779586
1320	1.3200e+000	2.1734	45.769436
1321	1.3210e+000	2.1611	45.683160
1322	1.3220e+000	2.1501	45.830337
1323	1.3230e+000	2.1372	45.718685
1324	1.3240e+000	2.1252	45.642559
1325	1.3250e+000	2.1122	45.627334
1326	1.3260e+000	2.1024	45.581659
1327	1.3270e+000	2.0892	45.535983
1328	1.3280e+000	2.0779	45.591809
1329	1.3290e+000	2.0646	45.647634
1330	1.3300e+000	2.0532	45.393881
1331	1.3310e+000	2.0404	45.490308
1332	1.3320e+000	2.0296	45.520758
1333	1.3330e+000	2.0172	45.454782
1334	1.3340e+000	2.0080	45.424332
1335	1.3350e+000	1.9939	45.338056
1336	1.3360e+000	1.9818	45.414182
1337	1.3370e+000	1.9686	45.307605
1338	1.3380e+000	1.9571	45.404032
1339	1.3390e+000	1.9454	45.424332
1340	1.3400e+000	1.9324	45.363431
1341	1.3410e+000	1.9209	45.343131
1342	1.3420e+000	1.9085	45.236555
1343	1.3430e+000	1.8969	45.231479
1344	1.3440e+000	1.8850	45.241630
1345	1.3450e+000	1.8739	45.302530
1346	1.3460e+000	1.8596	45.261930
1347	1.3470e+000	1.8503	45.256855
1348	1.3480e+000	1.8383	45.140128
1349	1.3490e+000	1.8248	45.099528
1350	1.3500e+000	1.8135	45.145203
1351	1.3510e+000	1.8008	45.104603
1352	1.3520e+000	1.7897	45.119828
1353	1.3530e+000	1.7767	45.160429
1354	1.3540e+000	1.7652	45.018327
1355	1.3550e+000	1.7529	45.043702
1356	1.3560e+000	1.7415	44.972651
1357	1.3570e+000	1.7287	44.866075
1358	1.3580e+000	1.7171	44.972651
1359	1.3590e+000	1.7059	44.855925
1360	1.3600e+000	1.6917	44.911751
1361	1.3610e+000	1.6805	44.901601
1362	1.3620e+000	1.6677	44.774724
1363	1.3630e+000	1.6577	44.866075
1364	1.3640e+000	1.6439	44.881300
1365	1.3650e+000	1.6328	44.668148
1366	1.3660e+000	1.6221	44.729048
1367	1.3670e+000	1.6090	44.749349
1368	1.3680e+000	1.5976	44.779799
1369	1.3690e+000	1.5832	44.723973
1370	1.3700e+000	1.5729	44.795024
1371	1.3710e+000	1.5604	44.637697
1372	1.3720e+000	1.5494	44.703673
1373	1.3730e+000	1.5373	44.637697
1374	1.3740e+000	1.5256	44.597097
1375	1.3750e+000	1.5132	44.581872
1376	1.3760e+000	1.5013	44.581872
1377	1.3770e+000	1.4873	44.490521
1378	1.3780e+000	1.4780	44.485446
1379	1.3790e+000	1.4648	44.505746
1380	1.3800e+000	1.4527	44.444845
1381	1.3810e+000	1.4413	44.465145
1382	1.3820e+000	1.4290	44.404245
1383	1.3830e+000	1.4173	44.358569
1384	1.3840e+000	1.4040	44.323044
1385	1.3850e+000	1.3911	44.226617
1386	1.3860e+000	1.3818	44.389019
1387	1.3870e+000	1.3698	44.236768
1388	1.3880e+000	1.3563	44.165717
1389	1.3890e+000	1.3456	44.277368
1390	1.3900e+000	1.3335	44.160642
1391	1.3910e+000	1.3211	44.180942
1392	1.3920e+000	1.3094	44.165717
1393	1.3930e+000	1.2965	44.120041
1394	1.3940e+000	1.2846	44.003315
1395	1.3950e+000	1.2728	44.140341
1396	1.3960e+000	1.2614	44.038840
1397	1.3970e+000	1.2504	43.901814
1398	1.3980e+000	1.2376	43.967789
1399	1.3990e+000	1.2268	44.043915
1400	1.4000e+000	1.2135	43.917039
1401	1.4010e+000	1.2022	43.861213
1402	1.4020e+000	1.1880	43.851063
1403	1.4030e+000	1.1775	43.840913
1404	1.4040e+000	1.1649	43.780012
1405	1.4050e+000	1.1536	43.856138
1406	1.4060e+000	1.1400	43.688661
1407	1.4070e+000	1.1301	43.729261
1408	1.4080e+000	1.1156	43.678511
1409	1.4090e+000	1.1050	43.785087
1410	1.4100e+000	1.0936	43.577010
1411	1.4110e+000	1.0803	43.541484
1412	1.4120e+000	1.0687	43.607460
1413	1.4130e+000	1.0562	43.495809
1414	1.4140e+000	1.0457	43.470433
1415	1.4150e+000	1.0332	43.424758
1416	1.4160e+000	1.0226	43.409533
1417	1.4170e+000	1.0089	43.343557
1418	1.4180e+000	0.9984	43.348632
1419	1.4190e+000	0.9855	43.313106
1420	1.4200e+000	0.9728	43.363857
1421	1.4210e+000	0.9609	43.282656
1422	1.4220e+000	0.9486	43.201455
1423	1.4230e+000	0.9369	43.196380
1424	1.4240e+000	0.9251	43.186230
1425	1.4250e+000	0.9138	43.049203
1426	1.4260e+000	0.9012	43.008603
1427	1.4270e+000	0.8880	43.074579
1428	1.4280e+000	0.8776	43.039053
1429	1.4290e+000	0.8649	42.907102
1430	1.4300e+000	0.8534	42.922327
1431	1.4310e+000	0.8404	42.871576
1432	1.4320e+000	0.8283	42.754850
1433	1.4330e+000	0.8166	42.795450
1434	1.4340e+000	0.8054	42.663499
1435	1.4350e+000	0.7925	42.587373
1436	1.4360e+000	0.7825	42.567073
1437	1.4370e+000	0.7693	42.556922
1438	1.4380e+000	0.7568	42.556922
1439	1.4390e+000	0.7439	42.450346
1440	1.4400e+000	0.7339	42.394520
1441	1.4410e+000	0.7207	42.409746
1442	1.4420e+000	0.7095	42.150918
1443	1.4430e+000	0.6975	42.211818
1444	1.4440e+000	0.6849	42.135692
1445	1.4450e+000	0.6733	42.013891
1446	1.4460e+000	0.6625	41.902240
1447	1.4470e+000	0.6477	41.846414
1448	1.4480e+000	0.6383	41.846414
1449	1.4490e+000	0.6250	41.734763
1450	1.4500e+000	0.6139	41.658637
1451	1.4510e+000	0.6010	41.552060
1452	1.4520e+000	0.5906	41.338908
1453	1.4530e+000	0.5771	41.440409
1454	1.4540e+000	0.5648	41.323683
1455	1.4550e+000	0.5541	41.257707
1456	1.4560e+000	0.5418	41.161281
1457	1.4570e+000	0.5277	41.014104
1458	1.4580e+000	0.5177	40.897378
1459	1.4590e+000	0.5054	40.765426
1460	1.4600e+000	0.4925	40.557348
1461	1.4610e+000	0.4816	40.669000
1462	1.4620e+000	0.4706	40.496448
1463	1.4630e+000	0.4578	40.313746
1464	1.4640e+000	0.4445	40.227469
1465	1.4650e+000	0.4329	40.080293
1466	1.4660e+000	0.4211	39.892515
1467	1.4670e+000	0.4079	39.704738
1468	1.4680e+000	0.3965	39.653988
1469	1.4690e+000	0.3845	39.638762
1470	1.4700e+000	0.3730	39.329184
1471	1.4710e+000	0.3618	39.197232
1472	1.4720e+000	0.3485	39.110956
1473	1.4730e+000	0.3379	38.923179
1474	1.4740e+000	0.3254	38.715101
1475	1.4750e+000	0.3120	38.603450
1476	1.4760e+000	0.2996	38.405523
1477	1.4770e+000	0.2892	38.258346
1478	1.4780e+000	0.2763	38.045193
1479	1.4790e+000	0.2661	37.847266
1480	1.4800e+000	0.2539	37.664564
1481	1.4810e+000	0.2398	37.431111
1482	1.4820e+000	0.2296	37.258559
1483	1.4830e+000	0.2171	36.999731
1484	1.4840e+000	0.2051	36.781503
1485	1.4850e+000	0.1931	36.664777
1486	1.4860e+000	0.1814	36.334898
1487	1.4870e+000	0.1711	36.213096
1488	1.4880e+000	0.1568	35.928893
1489	1.4890e+000	0.1443	35.629464
1490	1.4900e+000	0.1334	35.380786
1491	1.4910e+000	0.1217	35.213309
1492	1.4920e+000	0.1087	34.924031
1493	1.4930e+000	0.0971	34.746404
1494	1.4940e+000	0.0850	34.330249
1495	1.4950e+000	0.0719	34.157697
1496	1.4960e+000	0.0613	33.944544
1497	1.4970e+000	0.0467	33.589290
1498	1.4980e+000	0.0366	33.193435
1499	1.4990e+000	0.0261	33.036108
1500	1.5000e+000	0.0143	32.767130
1501	1.5010e+000	0.0037	32.477852
1502	1.5020e+000	-0.0098	32.158123
1503	1.5030e+000	-0.0224	31.706442
1504	1.5040e+000	-0.0336	31.472990
1505	1.5050e+000	-0.0452	30.965484
1506	1.5060e+000	-0.0573	30.752331
1507	1.5070e+000	-0.0684	30.341251
1508	1.5080e+000	-0.0816	30.031672
1509	1.5090e+000	-0.0942	29.559692
1510	1.5100e+000	-0.1059	29.250113
1511	1.5110e+000	-0.1193	28.833958
1512	1.5120e+000	-0.1310	28.382278
1513	1.5130e+000	-0.1411	27.920447
1514	1.5140e+000	-0.1540	27.448466
1515	1.5150e+000	-0.1669	27.042462
1516	1.5160e+000	-0.1772	26.611081
1517	1.5170e+000	-0.1897	26.200001
1518	1.5180e+000	-0.2020	25.748321
1519	1.5190e+000	-0.2141	25.179914
1520	1.5200e+000	-0.2261	24.748534
1521	1.5210e+000	-0.2390	24.164902
1522	1.5220e+000	-0.2486	23.682771
1523	1.5230e+000	-0.2614	23.149890
1524	1.5240e+000	-0.2738	22.571333
1525	1.5250e+000	-0.2854	22.134878
1526	1.5260e+000	-0.2974	21.510645
1527	1.5270e+000	-0.3106	20.927013
1528	1.5280e+000	-0.3230	20.470258
1529	1.5290e+000	-0.3329	19.901851
1530	1.5300e+000	-0.3452	19.247168
1531	1.5310e+000	-0.3575	18.562035
1532	1.5320e+000	-0.3682	18.100204
1533	1.5330e+000	-0.3816	17.399846
1534	1.5340e+000	-0.3926	16.811139
1535	1.5350e+000	-0.4057	16.151381
1536	1.5360e+000	-0.4182	15.562674
1537	1.5370e+000	-0.4314	15.034868
1538	1.5380e+000	-0.4408	14.446161
1539	1.5390e+000	-0.4550	13.730577
1540	1.5400e+000	-0.4677	13.075894
1541	1.5410e+000	-0.4784	12.532863
1542	1.5420e+000	-0.4897	11.857880
1543	1.5430e+000	-0.5018	11.314848
1544	1.5440e+000	-0.5144	10.761666
1545	1.5450e+000	-0.5265	9.980107
1546	1.5460e+000	-0.5377	9.477676
1547	1.5470e+000	-0.5494	8.843293
1548	1.5480e+000	-0.5621	8.229211
1549	1.5490e+000	-0.5738	7.757230
1550	1.5500e+000	-0.5856	7.138073
1551	1.5510e+000	-0.5981	6.559516
1552	1.5520e+000	-0.6104	5.930209
1553	1.5530e+000	-0.6217	5.473453
1554	1.5540e+000	-0.6354	4.945647
1555	1.5550e+000	-0.6463	4.377240
1556	1.5560e+000	-0.6584	3.849434
1557	1.5570e+000	-0.6695	3.331777
1558	1.5580e+000	-0.6821	2.768446
1559	1.5590e+000	-0.6942	2.291390
1560	1.5600e+000	-0.7079	1.829559
1561	1.5610e+000	-0.7186	1.352504
1562	1.5620e+000	-0.7298	0.860223
1563	1.5630e+000	-0.7417	0.296891
1564	1.5640e+000	-0.7541	-0.104039
1565	1.5650e+000	-0.7660	-0.525269
1566	1.5660e+000	-0.7801	-0.946499
1567	1.5670e+000	-0.7895	-1.423555
1568	1.5680e+000	-0.8014	-1.844785
1569	1.5690e+000	-0.8145	-2.296465
1570	1.5700e+000	-0.8247	-2.743070
1571	1.5710e+000	-0.8377	-3.108475
1572	1.5720e+000	-0.8501	-3.539855
1573	1.5730e+000	-0.8617	-3.910334
1574	1.5740e+000	-0.8742	-4.336639
1575	1.5750e+000	-0.8874	-4.788320
1576	1.5760e+000	-0.8981	-5.189250
1577	1.5770e+000	-0.9107	-5.448078
1578	1.5780e+000	-0.9222	-5.894683
1579	1.5790e+000	-0.9348	-6.270238
1580	1.5800e+000	-0.9469	-6.676242
1581	1.5810e+000	-0.9587	-6.929996
1582	1.5820e+000	-0.9701	-7.401976
1583	1.5830e+000	-0.9818	-7.716630
1584	1.5840e+000	-0.9943	-8.036359
1585	1.5850e+000	-1.0063	-8.411913
1586	1.5860e+000	-1.0190	-8.822993
1587	1.5870e+000	-1.0303	-9.178247
1588	1.5880e+000	-1.0420	-9.416775
1589	1.5890e+000	-1.0532	-9.772030
1590	1.5900e+000	-1.0658	-10.203410
1591	1.5910e+000	-1.0782	-10.401337
1592	1.5920e+000	-1.0902	-10.781967
1593	1.5930e+000	-1.1029	-11.096620
1594	1.5940e+000	-1.1147	-11.401124
1595	1.5950e+000	-1.1267	-11.670102
1596	1.5960e+000	-1.1398	-11.999981
1597	1.5970e+000	-1.1496	-12.340010
1598	1.5980e+000	-1.1617	-12.710490
1599	1.5990e+000	-1.1744	-12.964243
1600	1.6000e+000	-1.1857	-13.380398
1601	1.6010e+000	-1.1977	-13.598625
1602	1.6020e+000	-1.2106	-13.872679
1603	1.6030e+000	-1.2221	-14.233008
1604	1.6040e+000	-1.2333	-14.527362
1605	1.6050e+000	-1.2473	-14.892766
1606	1.6060e+000	-1.2599	-15.202345
1607	1.6070e+000	-1.2702	-15.456098
1608	1.6080e+000	-1.2823	-15.557599
1609	1.6090e+000	-1.2945	-16.075255
1610	1.6100e+000	-1.3067	-16.339158
1611	1.6110e+000	-1.3171	-16.669037
1612	1.6120e+000	-1.3308	-16.861890
1613	1.6130e+000	-1.3425	-17.298345
1614	1.6140e+000	-1.3537	-17.526723
1615	1.6150e+000	-1.3666	-17.841376
1616	1.6160e+000	-1.3791	-18.100204
1617	1.6170e+000	-1.3907	-18.455459
1618	1.6180e+000	-1.4017	-18.820863
1619	1.6190e+000	-1.4127	-19.105066
1620	1.6200e+000	-1.4256	-19.348669
1621	1.6210e+000	-1.4378	-19.729299
1622	1.6220e+000	-1.4513	-19.947527
1623	1.6230e+000	-1.4628	-20.272330
1624	1.6240e+000	-1.4742	-20.536234
1625	1.6250e+000	-1.4876	-20.977764
1626	1.6260e+000	-1.4976	-21.424369
1627	1.6270e+000	-1.5092	-21.622297
1628	1.6280e+000	-1.5208	-21.982626
1629	1.6290e+000	-1.5339	-22.261754
1630	1.6300e+000	-1.5468	-22.672834
1631	1.6310e+000	-1.5575	-23.094064
1632	1.6320e+000	-1.5696	-23.368117
1633	1.6330e+000	-1.5824	-23.921299
1634	1.6340e+000	-1.5942	-24.327304
1635	1.6350e+000	-1.6068	-24.748534
1636	1.6360e+000	-1.6169	-25.200214
1637	1.6370e+000	-1.6312	-25.717871
1638	1.6380e+000	-1.6408	-26.245677
1639	1.6390e+000	-1.6534	-26.671982
1640	1.6400e+000	-1.6665	-27.326665
1641	1.6410e+000	-1.6770	-27.793571
1642	1.6420e+000	-1.6901	-28.453328
1643	1.6430e+000	-1.7028	-29.113086
1644	1.6440e+000	-1.7121	-29.529241
1645	1.6450e+000	-1.7261	-30.483353
1646	1.6460e+000	-1.7392	-31.204011
1647	1.6470e+000	-1.7505	-31.823169
1648	1.6480e+000	-1.7614	-32.579353
1649	1.6490e+000	-1.7741	-33.472564
1650	1.6500e+000	-1.7857	-33.929319
1651	1.6510e+000	-1.7984	-34.695653
1652	1.6520e+000	-1.8102	-35.446762
1653	1.6530e+000	-1.8222	-36.015169
1654	1.6540e+000	-1.8333	-36.624176
1655	1.6550e+000	-1.8451	-37.192583
1656	1.6560e+000	-1.8583	-37.806665
1657	1.6570e+000	-1.8711	-38.293871
1658	1.6580e+000	-1.8815	-38.735402
1659	1.6590e+000	-1.8930	-39.176932
1660	1.6600e+000	-1.9062	-39.501736
1661	1.6610e+000	-1.9179	-39.862065
1662	1.6620e+000	-1.9307	-40.151344
1663	1.6630e+000	-1.9430	-40.542123
1664	1.6640e+000	-1.9536	-40.714675
1665	1.6650e+000	-1.9666	-40.922753
1666	1.6660e+000	-1.9782	-41.151131
1667	1.6670e+000	-1.9909	-41.399809
1668	1.6680e+000	-2.0036	-41.481010
1669	1.6690e+000	-2.0151	-41.546985
1670	1.6700e+000	-2.0274	-41.841339
1671	1.6710e+000	-2.0395	-41.973290
1672	1.6720e+000	-2.0510	-42.110317
1673	1.6730e+000	-2.0639	-42.211818
1674	1.6740e+000	-2.0747	-42.475721
1675	1.6750e+000	-2.0879	-42.582298
1676	1.6760e+000	-2.0987	-42.744700
1677	1.6770e+000	-2.1083	-42.785300
1678	1.6780e+000	-2.1235	-42.881726
1679	1.6790e+000	-2.1348	-43.023828
1680	1.6800e+000	-2.1468	-43.262356
1681	1.6810e+000	-2.1584	-43.252206
1682	1.6820e+000	-2.1701	-43.297881
1683	1.6830e+000	-2.1835	-43.353707
1684	1.6840e+000	-2.1932	-43.546559
1685	1.6850e+000	-2.2077	-43.653136
1686	1.6860e+000	-2.2204	-43.602385
1687	1.6870e+000	-2.2313	-43.820613
1688	1.6880e+000	-2.2424	-43.851063
1689	1.6890e+000	-2.2552	-43.856138
1690	1.6900e+000	-2.2675	-44.084516
1691	1.6910e+000	-2.2772	-44.114966
1692	1.6920e+000	-2.2917	-44.135266
1693	1.6930e+000	-2.3032	-44.277368
1694	1.6940e+000	-2.3151	-44.475295
1695	1.6950e+000	-2.3266	-44.353494
1696	1.6960e+000	-2.3392	-44.460070
1697	1.6970e+000	-2.3518	-44.612322
1698	1.6980e+000	-2.3628	-44.592022
1699	1.6990e+000	-2.3759	-44.708748
1700	1.7000e+000	-2.3869	-44.795024
1701	1.7010e+000	-2.3994	-44.800099
1702	1.7020e+000	-2.4116	-44.906676
1703	1.7030e+000	-2.4232	-45.028477
1704	1.7040e+000	-2.4348	-44.881300
1705	1.7050e+000	-2.4469	-44.982801
1706	1.7060e+000	-2.4586	-45.124903
1707	1.7070e+000	-2.4704	-45.124903
1708	1.7080e+000	-2.4844	-45.165504
1709	1.7090e+000	-2.4957	-45.393881
1710	1.7100e+000	-2.5064	-45.388806
1711	1.7110e+000	-2.5193	-45.353281
1712	1.7120e+000	-2.5308	-45.343131
1713	1.7130e+000	-2.5432	-45.327906
1714	1.7140e+000	-2.5543	-45.459857
1715	1.7150e+000	-2.5655	-45.541058
1716	1.7160e+000	-2.5782	-45.561358
1717	1.7170e+000	-2.5916	-45.459857
1718	1.7180e+000	-2.6023	-45.622259
1719	1.7190e+000	-2.6151	-45.688235
1720	1.7200e+000	-2.6268	-45.713610
1721	1.7210e+000	-2.6395	-45.703460
1722	1.7220e+000	-2.6511	-45.820187
1723	1.7230e+000	-2.6642	-45.784661
1724	1.7240e+000	-2.6734	-45.784661
1725	1.7250e+000	-2.6877	-45.891237
1726	1.7260e+000	-2.6986	-45.962288
1727	1.7270e+000	-2.7110	-46.038414
1728	1.7280e+000	-2.7229	-46.028264
1729	1.7290e+000	-2.7345	-46.028264
1730	1.7300e+000	-2.7470	-46.053639
1731	1.7310e+000	-2.7586	-46.170366
1732	1.7320e+000	-2.7692	-46.124690
1733	1.7330e+000	-2.7830	-46.256642
1734	1.7340e+000	-2.7954	-46.332768
1735	1.7350e+000	-2.8069	-46.292167
1736	1.7360e+000	-2.8194	-46.307392
1737	1.7370e+000	-2.8313	-46.368293
1738	1.7380e+000	-2.8431	-46.459644
1739	1.7390e+000	-2.8548	-46.454569
1740	1.7400e+000	-2.8678	-46.398743
1741	1.7410e+000	-2.8775	-46.520545
1742	1.7420e+000	-2.8907	-46.464719
1743	1.7430e+000	-2.9035	-46.601746
1744	1.7440e+000	-2.9138	-46.632196
1745	1.7450e+000	-2.9272	-46.622046
1746	1.7460e+000	-2.9398	-46.606821
1747	1.7470e+000	-2.9511	-46.657572
1748	1.7480e+000	-2.9638	-46.743848
1749	1.7490e+000	-2.9758	-46.764148
1750	1.7500e+000	-2.9866	-46.845349
1751	1.7510e+000	-2.9987	-46.835199
1752	1.7520e+000	-2.9885	-46.764148
1753	1.7530e+000	-2.9788	-46.764148
1754	1.7540e+000	-2.9643	-46.946850
1755	1.7550e+000	-2.9542	-46.753998
1756	1.7560e+000	-2.9411	-46.759073
1757	1.7570e+000	-2.9287	-46.799673
1758	1.7580e+000	-2.9187	-46.860574
1759	1.7590e+000	-2.9051	-46.728622
1760	1.7600e+000	-2.8935	-46.789523
1761	1.7610e+000	-2.8812	-46.743848
1762	1.7620e+000	-2.8694	-46.728622
1763	1.7630e+000	-2.8571	-46.698172
1764	1.7640e+000	-2.8454	-46.616971
1765	1.7650e+000	-2.8339	-46.708322
1766	1.7660e+000	-2.8218	-46.748923
1767	1.7670e+000	-2.8114	-46.688022
1768	1.7680e+000	-2.7972	-46.611896
1769	1.7690e+000	-2.7869	-46.698172
1770	1.7700e+000	-2.7739	-46.479944
1771	1.7710e+000	-2.7623	-46.545920
1772	1.7720e+000	-2.7489	-46.596671
1773	1.7730e+000	-2.7384	-46.490095
1774	1.7740e+000	-2.7265	-46.525620
1775	1.7750e+000	-2.7142	-46.408894
1776	1.7760e+000	-2.7026	-46.383518
1777	1.7770e+000	-2.6899	-46.474869
1778	1.7780e+000	-2.6777	-46.393668
1779	1.7790e+000	-2.6659	-46.429194
1780	1.7800e+000	-2.6543	-46.424119
1781	1.7810e+000	-2.6411	-46.429194
1782	1.7820e+000	-2.6289	-46.429194
1783	1.7830e+000	-2.6178	-46.251567
1784	1.7840e+000	-2.6057	-46.251567
1785	1.7850e+000	-2.5924	-46.353068
1786	1.7860e+000	-2.5816	-46.266792
1787	1.7870e+000	-2.5697	-46.322618
1788	1.7880e+000	-2.5597	-46.221116
1789	1.7890e+000	-2.5451	-46.287092
1790	1.7900e+000	-2.5333	-46.205891
1791	1.7910e+000	-2.5208	-46.089165
1792	1.7920e+000	-2.5098	-46.129765
1793	1.7930e+000	-2.4983	-46.134840
1794	1.7940e+000	-2.4872	-46.134840
1795	1.7950e+000	-2.4733	-46.028264
1796	1.7960e+000	-2.4602	-45.941988
1797	1.7970e+000	-2.4500	-46.033339
1798	1.7980e+000	-2.4371	-46.033339
1799	1.7990e+000	-2.4256	-46.053639
1800	1.8000e+000	-2.4147	-45.987664
1801	1.8010e+000	-2.4009	-45.967363
1802	1.8020e+000	-2.3912	-45.881087
1803	1.8030e+000	-2.3774	-45.876012
1804	1.8040e+000	-2.3651	-45.926763
1805	1.8050e+000	-2.3542	-45.703460
1806	1.8060e+000	-2.3391	-45.652710
1807	1.8070e+000	-2.3288	-45.825262
1808	1.8080e+000	-2.3180	-45.723760
1809	1.8090e+000	-2.3045	-45.744061
1810	1.8100e+000	-2.2932	-45.693310
1811	1.8110e+000	-2.2827	-45.683160
1812	1.8120e+000	-2.2697	-45.627334
1813	1.8130e+000	-2.2574	-45.632409
1814	1.8140e+000	-2.2449	-45.612109
1815	1.8150e+000	-2.2328	-45.622259
1816	1.8160e+000	-2.2208	-45.632409
1817	1.8170e+000	-2.2099	-45.566433
1818	1.8180e+000	-2.1967	-45.525833
1819	1.8190e+000	-2.1854	-45.566433
1820	1.8200e+000	-2.1738	-45.429407
1821	1.8210e+000	-2.1614	-45.495383
1822	1.8220e+000	-2.1490	-45.449707
1823	1.8230e+000	-2.1377	-45.378656
1824	1.8240e+000	-2.1276	-45.424332
1825	1.8250e+000	-2.1133	-45.343131
1826	1.8260e+000	-2.1024	-45.302530
1827	1.8270e+000	-2.0896	-45.155354
1828	1.8280e+000	-2.0777	-45.332981
1829	1.8290e+000	-2.0641	-45.216254
1830	1.8300e+000	-2.0530	-45.272080
1831	1.8310e+000	-2.0421	-45.282230
1832	1.8320e+000	-2.0284	-45.251780
1833	1.8330e+000	-2.0175	-45.089378
1834	1.8340e+000	-2.0055	-45.124903
1835	1.8350e+000	-1.9935	-45.267005
1836	1.8360e+000	-1.9809	-45.064002
1837	1.8370e+000	-1.9691	-44.957426
1838	1.8380e+000	-1.9582	-45.033552
1839	1.8390e+000	-1.9454	-45.038627
1840	1.8400e+000	-1.9333	-44.962501
1841	1.8410e+000	-1.9212	-44.896525
1842	1.8420e+000	-1.9073	-45.261930
1843	1.8430e+000	-1.8956	-44.795024
1844	1.8440e+000	-1.8850	-44.916826
1845	1.8450e+000	-1.8729	-44.789949
1846	1.8460e+000	-1.8624	-44.729048
1847	1.8470e+000	-1.8496	-44.734123
1848	1.8480e+000	-1.8374	-44.820400
1849	1.8490e+000	-1.8246	-44.673223
1850	1.8500e+000	-1.8135	-44.683373
1851	1.8510e+000	-1.8013	-44.642772
1852	1.8520e+000	-1.7884	-44.632622
1853	1.8530e+000	-1.7760	-44.470220
1854	1.8540e+000	-1.7646	-44.541271
1855	1.8550e+000	-1.7530	-44.526046
1856	1.8560e+000	-1.7403	-44.475295
1857	1.8570e+000	-1.7284	-44.399169
1858	1.8580e+000	-1.7166	-44.429620
1859	1.8590e+000	-1.7047	-44.490521
1860	1.8600e+000	-1.6904	-44.130191
1861	1.8610e+000	-1.6811	-44.302743
1862	1.8620e+000	-1.6693	-44.302743
1863	1.8630e+000	-1.6563	-44.338269
1864	1.8640e+000	-1.6447	-44.251993
1865	1.8650e+000	-1.6335	-44.125116
1866	1.8660e+000	-1.6206	-44.186017
1867	1.8670e+000	-1.6084	-44.216467
1868	1.8680e+000	-1.5989	-44.033765
1869	1.8690e+000	-1.5842	-44.069291
1870	1.8700e+000	-1.5721	-44.089591
1871	1.8710e+000	-1.5609	-43.835838
1872	1.8720e+000	-1.5479	-43.876438
1873	1.8730e+000	-1.5367	-43.851063
1874	1.8740e+000	-1.5245	-43.876438
1875	1.8750e+000	-1.5122	-43.780012
1876	1.8760e+000	-1.5012	-43.749562
1877	1.8770e+000	-1.4893	-43.840913
1878	1.8780e+000	-1.4820	-43.551634
1879	1.8790e+000	-1.4662	-43.607460
1880	1.8800e+000	-1.4521	-43.668361
1881	1.8810e+000	-1.4420	-43.521184
1882	1.8820e+000	-1.4288	-43.587160
1883	1.8830e+000	-1.4173	-43.460283
1884	1.8840e+000	-1.4045	-43.389232
1885	1.8850e+000	-1.3937	-43.363857
1886	1.8860e+000	-1.3808	-43.333407
1887	1.8870e+000	-1.3695	-43.297881
1888	1.8880e+000	-1.3554	-43.181155
1889	1.8890e+000	-1.3448	-43.186230
1890	1.8900e+000	-1.3327	-43.105029
1891	1.8910e+000	-1.3209	-43.079654
1892	1.8920e+000	-1.3074	-42.968002
1893	1.8930e+000	-1.2972	-42.942627
1894	1.8940e+000	-1.2838	-42.927402
1895	1.8950e+000	-1.2728	-42.937552
1896	1.8960e+000	-1.2589	-42.820826
1897	1.8970e+000	-1.2496	-42.780225
1898	1.8980e+000	-1.2361	-42.648274
1899	1.8990e+000	-1.2263	-42.622898
1900	1.9000e+000	-1.2126	-42.541697
1901	1.9010e+000	-1.2002	-42.460496
1902	1.9020e+000	-1.1878	-42.445271
1903	1.9030e+000	-1.1776	-42.237194
1904	1.9040e+000	-1.1644	-42.333620
1905	1.9050e+000	-1.1536	-42.191518
1906	1.9060e+000	-1.1401	-42.084942
1907	1.9070e+000	-1.1292	-42.008816
1908	1.9080e+000	-1.1172	-42.054491
1909	1.9090e+000	-1.1046	-41.841339
1910	1.9100e+000	-1.0937	-41.800738
1911	1.9110e+000	-1.0820	-41.775363
1912	1.9120e+000	-1.0686	-41.668787
1913	1.9130e+000	-1.0570	-41.415034
1914	1.9140e+000	-1.0462	-41.333833
1915	1.9150e+000	-1.0329	-41.343983
1916	1.9160e+000	-1.0210	-41.257707
1917	1.9170e+000	-1.0099	-41.156206
1918	1.9180e+000	-0.9976	-41.115605
1919	1.9190e+000	-0.9862	-41.039479
1920	1.9200e+000	-0.9740	-40.897378
1921	1.9210e+000	-0.9616	-40.836477
1922	1.9220e+000	-0.9496	-40.724825
1923	1.9230e+000	-0.9370	-40.597949
1924	1.9240e+000	-0.9247	-40.501523
1925	1.9250e+000	-0.9138	-40.425397
1926	1.9260e+000	-0.9010	-40.242695
1927	1.9270e+000	-0.8900	-40.191944
1928	1.9280e+000	-0.8777	-40.009242
1929	1.9290e+000	-0.8664	-39.912816
1930	1.9300e+000	-0.8529	-39.775789
1931	1.9310e+000	-0.8422	-39.613387
1932	1.9320e+000	-0.8309	-39.552486
1933	1.9330e+000	-0.8167	-39.420535
1934	1.9340e+000	-0.8051	-39.192157
1935	1.9350e+000	-0.7930	-39.100806
1936	1.9360e+000	-0.7791	-38.989155
1937	1.9370e+000	-0.7700	-38.852128
1938	1.9380e+000	-0.7582	-38.603450
1939	1.9390e+000	-0.7460	-38.461348
1940	1.9400e+000	-0.7334	-38.451198
1941	1.9410e+000	-0.7224	-38.166995
1942	1.9420e+000	-0.7073	-38.227896
1943	1.9430e+000	-0.6966	-37.958917
1944	1.9440e+000	-0.6858	-37.766065
1945	1.9450e+000	-0.6723	-37.492012
1946	1.9460e+000	-0.6615	-37.563063
1947	1.9470e+000	-0.6497	-37.278859
1948	1.9480e+000	-0.6366	-37.091082
1949	1.9490e+000	-0.6254	-36.908380
1950	1.9500e+000	-0.6129	-36.832254
1951	1.9510e+000	-0.6014	-36.461774
1952	1.9520e+000	-0.5894	-36.334898
1953	1.9530e+000	-0.5773	-36.218171
1954	1.9540e+000	-0.5652	-35.969493
1955	1.9550e+000	-0.5540	-35.766491
1956	1.9560e+000	-0.5418	-35.548263
1957	1.9570e+000	-0.5288	-35.345261
1958	1.9580e+000	-0.5161	-35.203159
1959	1.9590e+000	-0.5047	-34.883430
1960	1.9600e+000	-0.4942	-34.766704
1961	1.9610e+000	-0.4819	-34.523101
1962	1.9620e+000	-0.4685	-34.213522
1963	1.9630e+000	-0.4569	-34.081571
1964	1.9640e+000	-0.4442	-33.914094
1965	1.9650e+000	-0.4337	-33.680641
1966	1.9660e+000	-0.4221	-33.513164
1967	1.9670e+000	-0.4102	-33.178210
1968	1.9680e+000	-0.3966	-33.076709
1969	1.9690e+000	-0.3856	-32.726530
1970	1.9700e+000	-0.3732	-32.574278
1971	1.9710e+000	-0.3596	-32.305300
1972	1.9720e+000	-0.3492	-32.046471
1973	1.9730e+000	-0.3358	-31.757193
1974	1.9740e+000	-0.3257	-31.670917
1975	1.9750e+000	-0.3127	-31.432389
1976	1.9760e+000	-0.3019	-31.107585
1977	1.9770e+000	-0.2882	-30.792931
1978	1.9780e+000	-0.2781	-30.645755
1979	1.9790e+000	-0.2655	-30.371701
1980	1.9800e+000	-0.2537	-30.041822
1981	1.9810e+000	-0.2411	-29.889571
1982	1.9820e+000	-0.2279	-29.656118
1983	1.9830e+000	-0.2180	-29.392215
1984	1.9840e+000	-0.2052	-29.179062
1985	1.9850e+000	-0.1933	-28.884709
1986	1.9860e+000	-0.1826	-28.651256
1987	1.9870e+000	-0.1693	-28.316302
1988	1.9880e+000	-0.1572	-28.174200
1989	1.9890e+000	-0.1458	-27.849396
1990	1.9900e+000	-0.1330	-27.534742
1991	1.9910e+000	-0.1220	-27.418016
1992	1.9920e+000	-0.1094	-27.154113
1993	1.9930e+000	-0.0980	-26.966336
1994	1.9940e+000	-0.0850	-26.580631
1995	1.9950e+000	-0.0725	-26.342103
1996	1.9960e+000	-0.0605	-26.139101
1997	1.9970e+000	-0.0496	-25.834597
1998	1.9980e+000	-0.0357	-25.606219
1999	1.9990e+000	-0.0248	-25.367691
2000	2.0000e+000	-0.0133	-25.098713
2001	2.0010e+000	-0.0005	-24.773909

Center data before PMax,±Pr and ±Vc Calc.

PMax (µC/cm2):	4.68e+001
Pr (µC/cm2):	3.24e+001
-Pr (µC/cm2):	-2.48e+001
Vc:	1.10e+000
-Vc:	-7.51e-001
C (Max-Eff) (nF):	1.22e+000
Vert. (±Pr) Shift (µC/cm2):	3.81e+000
Horiz. Shift (±Vc):	1.72e-001
Offset (µC/cm2):	2.13e+001

A (Loop Area - µC/cm2·Volts):	1.47e+002



Hysteresis Version: 5.12.0 - Radiant Technologies, Inc., 1999 - 11/30/16

