»»»»»»»»»»»»»»»»»»»»»»»»»»»»»»»»»»»» Hysteresis ««««««««««««««««««««««««««««««««««««
»»»  Executed Version:	5.16.2
»»»  Vision Version:	5.16.10 (R)
»»»  Vision Compiled:	4/26/18
»»»  Driver Version:	5.16.6
»»»  Windows Version:	Windows 8
»»»  Processor Information:	x86 (AMD or Intel) - 8 Processors
»»»  Tester Name:	PPM21016-863
»»»  Tester S/N:	PPM21016-863
»»»  Internal Amp Type:	 RTI ML200V    
»»»  Internal Amp S/N:	 iAB2-0000     
»»»  Execution Count:	1
»»»»»»»»»»»»»»»»»»»»»»»»»»»»»»»»»»»»»»»»»»««««««««««««««««««««««««««««««««««««««««««

Stored:	6/5/2018 - 7:3:39
Configured:	06/05/18 05:57:41 AM
Executed:	06/05/18 07:02:29 AM

»»»»»»»»»»»»»»»»»»»»»»»»»»»»»»»»»»» Sample Info ««««««««««««««««««««««««««««««««««««
Sample Name:	Internal Reference Cap.
Lot Name:	N/A
Wafer Name:	N/A
Die Row/Column:	0/0
Capacitor Number:	0
Sample Area (cm2):	6.20e-005
Sample Thickness (µm):	1.00e-001

Mux Loop Adjustment:	Disabled

Amplifier:	Internal

»»»»»»»»»»»»»»»»»»»»»»»»»»»»»»»»»»» Tester Info «««««««««««««««««««««««««««««««««««
Tester Name:	PPM21016-863
Tester Serial Number:	PPM21016-863
Return Signal Amp. Level:	1.79 [Index: 2]

»»»»»»»»»»»»»»»»»»»»»»»»»»»»»»»» Hysteresis Info ««««««««««««««««««««««««««««««««««
Task Name:	Hyst-1
Volts:	3.00
Field:	300.00 (kV/cm)
Hysteresis Period (ms):	8.00e+000
Preset:	Enabled
Preset Delay (ms):	1.00e+003
Profile:	Double Bipolar

»»»»»»»»»»»»»»»»»»»»»»»»»»»»»»»»»»»»»» Data «««««««««««««««««««««««««««««««««««««««
Points:	2001

Valid Data

Point	Time (ms)	Field (kV/cm)	Measured Polarization
   1	4.0000e-003	-20.385742	-11.848586
   2	8.0000e-003	-19.004822	-11.780054
   3	1.2000e-002	-17.967224	-11.665604
   4	1.6000e-002	-16.853333	-11.538134
   5	2.0000e-002	-15.640259	-11.359949
   6	2.4000e-002	-14.320374	-11.144072
   7	2.8000e-002	-13.122559	-10.876110
   8	3.2000e-002	-11.947632	-10.538245
   9	3.6000e-002	-10.955811	-10.219568
  10	4.0000e-002	-9.666443	-9.843325
  11	4.4000e-002	-8.171082	-9.409514
  12	4.8000e-002	-7.072449	-8.955829
  13	5.2000e-002	-6.004333	-8.505570
  14	5.6000e-002	-4.646301	-7.955939
  15	6.0000e-002	-3.471375	-7.400141
  16	6.4000e-002	-2.067566	-6.816929
  17	6.8000e-002	-1.197815	-6.205619
  18	7.2000e-002	-0.022888	-5.584714
  19	7.6000e-002	1.182556	-4.925432
  20	8.0000e-002	2.319336	-4.247645
  21	8.4000e-002	3.959656	-3.534222
  22	8.8000e-002	4.859924	-2.739930
  23	9.2000e-002	5.996704	-2.000464
  24	9.6000e-002	7.591248	-1.195892
  25	1.0000e-001	8.331299	-0.396118
  26	1.0400e-001	9.826660	0.462594
  27	1.0800e-001	11.070251	1.333643
  28	1.1200e-001	12.039185	2.287615
  29	1.1600e-001	13.336182	3.154552
  30	1.2000e-001	14.396667	4.103727
  31	1.2400e-001	15.869141	5.096763
  32	1.2800e-001	16.921997	6.060330
  33	1.3200e-001	18.142700	7.083521
  34	1.3600e-001	19.187927	8.119732
  35	1.4000e-001	20.347595	9.216252
  36	1.4400e-001	21.369934	10.275080
  37	1.4800e-001	22.850037	11.332536
  38	1.5200e-001	23.986816	12.465379
  39	1.5600e-001	25.192261	13.585885
  40	1.6000e-001	26.435852	14.702965
  41	1.6400e-001	27.893066	15.826899
  42	1.6800e-001	28.854370	16.937811
  43	1.7200e-001	30.067444	18.109031
  44	1.7600e-001	31.303406	19.216517
  45	1.8000e-001	32.501221	20.328114
  46	1.8400e-001	33.531189	21.399277
  47	1.8800e-001	34.858704	22.485518
  48	1.9200e-001	35.911560	23.508023
  49	1.9600e-001	37.261963	24.521618
  50	2.0000e-001	38.421631	25.422821
  51	2.0400e-001	39.680481	26.240414
  52	2.0800e-001	40.985107	27.034706
  53	2.1200e-001	42.030334	27.708380
  54	2.1600e-001	43.067932	28.345733
  55	2.2000e-001	44.433594	28.909755
  56	2.2400e-001	45.333862	29.354531
  57	2.2800e-001	46.951294	29.812328
  58	2.3200e-001	48.065186	30.196111
  59	2.3600e-001	49.018860	30.555906
  60	2.4000e-001	50.498962	30.849225
  61	2.4400e-001	51.513672	31.164475
  62	2.4800e-001	52.894592	31.376240
  63	2.5200e-001	54.023743	31.574299
  64	2.5600e-001	55.305481	31.818275
  65	2.6000e-001	56.365967	32.021131
  66	2.6400e-001	57.815552	32.194519
  67	2.6800e-001	58.868408	32.347346
  68	2.7200e-001	60.035706	32.465222
  69	2.7600e-001	61.439514	32.674932
  70	2.8000e-001	62.484741	32.801717
  71	2.8400e-001	63.888550	32.925075
  72	2.8800e-001	64.964294	33.086812
  73	2.9200e-001	66.040039	33.171107
  74	2.9600e-001	67.459106	33.274591
  75	3.0000e-001	68.572998	33.405488
  76	3.0400e-001	69.938660	33.506231
  77	3.0800e-001	71.067810	33.590526
  78	3.1200e-001	72.097778	33.671394
  79	3.1600e-001	73.600769	33.747465
  80	3.2000e-001	74.630737	33.835187
  81	3.2400e-001	75.790405	33.920853
  82	3.2800e-001	77.056885	34.002406
  83	3.3200e-001	78.323364	34.069568
  84	3.3600e-001	79.223633	34.161402
  85	3.4000e-001	80.482483	34.257347
  86	3.4400e-001	81.542969	34.268312
  87	3.4800e-001	82.832336	34.348496
  88	3.5200e-001	84.190369	34.400580
  89	3.5600e-001	85.350037	34.462945
  90	3.6000e-001	86.357117	34.517771
  91	3.6400e-001	87.745667	34.594527
  92	3.6800e-001	88.935852	34.638388
  93	3.7200e-001	89.973450	34.687731
  94	3.7600e-001	91.377258	34.758320
  95	3.8000e-001	92.384338	34.801495
  96	3.8400e-001	93.536377	34.850839
  97	3.8800e-001	94.963074	34.908406
  98	3.9200e-001	95.870972	34.955694
  99	3.9600e-001	97.251892	35.017373
 100	4.0000e-001	98.609924	35.024911
 101	4.0400e-001	99.815369	35.103039
 102	4.0800e-001	100.906372	35.153753
 103	4.1200e-001	102.195740	35.172256
 104	4.1600e-001	103.553772	35.243530
 105	4.2000e-001	104.782104	35.276426
 106	4.2400e-001	105.880737	35.318231
 107	4.2800e-001	106.987000	35.344958
 108	4.3200e-001	107.955933	35.390190
 109	4.3600e-001	109.436035	35.438162
 110	4.4000e-001	110.816956	35.453240
 111	4.4400e-001	111.984253	35.538905
 112	4.4800e-001	113.059998	35.558780
 113	4.5200e-001	114.097595	35.596473
 114	4.5600e-001	115.409851	35.619774
 115	4.6000e-001	116.737366	35.671858
 116	4.6400e-001	117.332458	35.699271
 117	4.6800e-001	118.911743	35.735594
 118	4.7200e-001	120.262146	35.779454
 119	4.7600e-001	121.299744	35.816462
 120	4.8000e-001	122.344971	35.863749
 121	4.8400e-001	123.619080	35.882253
 122	4.8800e-001	124.923706	35.926799
 123	4.9200e-001	126.266479	35.967919
 124	4.9600e-001	127.151489	35.952842
 125	5.0000e-001	128.448486	36.046731
 126	5.0400e-001	129.508972	36.063179
 127	5.0800e-001	130.889893	36.096760
 128	5.1200e-001	132.331848	36.127600
 129	5.1600e-001	133.354187	36.155698
 130	5.2000e-001	134.567261	36.172146
 131	5.2400e-001	135.818481	36.235196
 132	5.2800e-001	136.528015	36.257811
 133	5.3200e-001	138.206482	36.292763
 134	5.3600e-001	139.396667	36.330456
 135	5.4000e-001	140.617371	36.346904
 136	5.4400e-001	141.700745	36.392135
 137	5.4800e-001	143.104553	36.424345
 138	5.5200e-001	144.203186	36.449702
 139	5.5600e-001	145.309448	36.507270
 140	5.6000e-001	146.553040	36.515494
 141	5.6400e-001	147.666931	36.522347
 142	5.6800e-001	149.009705	36.577173
 143	5.7200e-001	150.085449	36.603215
 144	5.7600e-001	151.390076	36.631999
 145	5.8000e-001	152.397156	36.679972
 146	5.8400e-001	153.579712	36.684084
 147	5.8800e-001	154.891968	36.721776
 148	5.9200e-001	156.082153	36.751931
 149	5.9600e-001	157.463074	36.771120
 150	6.0000e-001	158.584595	36.780029
 151	6.0400e-001	159.835815	36.838282
 152	6.0800e-001	160.942078	36.858156
 153	6.1200e-001	162.338257	36.882828
 154	6.1600e-001	163.124084	36.917094
 155	6.2000e-001	164.451599	36.948619
 156	6.2400e-001	165.893555	36.955472
 157	6.2800e-001	166.816711	36.995221
 158	6.3200e-001	168.075562	37.006872
 159	6.3600e-001	169.288635	37.056900
 160	6.4000e-001	170.631409	37.093908
 161	6.4400e-001	171.569824	37.111041
 162	6.4800e-001	173.210144	37.140510
 163	6.5200e-001	174.125671	37.161070
 164	6.5600e-001	175.369263	37.183686
 165	6.6000e-001	176.483154	37.206301
 166	6.6400e-001	177.696228	37.258386
 167	6.6800e-001	179.008484	37.268666
 168	6.7200e-001	180.503845	37.278260
 169	6.7600e-001	181.304932	37.343366
 170	6.8000e-001	182.357788	37.336513
 171	6.8400e-001	183.784485	37.374891
 172	6.8800e-001	184.867859	37.410528
 173	6.9200e-001	185.874939	37.430403
 174	6.9600e-001	187.461853	37.468781
 175	7.0000e-001	188.766479	37.498935
 176	7.0400e-001	189.628601	37.502362
 177	7.0800e-001	190.872192	37.528404
 178	7.1200e-001	192.428589	37.563356
 179	7.1600e-001	193.313599	37.579118
 180	7.2000e-001	194.541931	37.622979
 181	7.2400e-001	195.556641	37.634630
 182	7.2800e-001	196.914673	37.649707
 183	7.3200e-001	198.440552	37.651763
 184	7.3600e-001	199.501038	37.701106
 185	7.4000e-001	200.492859	37.732631
 186	7.4400e-001	201.835632	37.755247
 187	7.4800e-001	202.850342	37.775807
 188	7.5200e-001	204.162598	37.797052
 189	7.5600e-001	205.528259	37.841598
 190	7.6000e-001	206.420898	37.831318
 191	7.6400e-001	207.740784	37.861472
 192	7.6800e-001	209.075928	37.908074
 193	7.7200e-001	210.182190	37.921095
 194	7.7600e-001	211.395264	37.958103
 195	7.8000e-001	212.623596	37.978663
 196	7.8400e-001	213.508606	38.011558
 197	7.8800e-001	214.759827	38.023209
 198	7.9200e-001	216.148376	38.020468
 199	7.9600e-001	217.361450	38.130805
 200	8.0000e-001	218.696594	38.102021
 201	8.0400e-001	219.757080	38.134232
 202	8.0800e-001	221.054077	38.162330
 203	8.1200e-001	222.114563	38.189058
 204	8.1600e-001	223.472595	38.181519
 205	8.2000e-001	224.578857	38.197281
 206	8.2400e-001	225.837708	38.257590
 207	8.2800e-001	227.210999	38.277465
 208	8.3200e-001	228.034973	38.311045
 209	8.3600e-001	229.293823	38.308304
 210	8.4000e-001	230.735779	38.343941
 211	8.4400e-001	231.796265	38.359704
 212	8.4800e-001	232.772827	38.387117
 213	8.5200e-001	234.344482	38.391228
 214	8.5600e-001	235.282898	38.461817
 215	8.6000e-001	236.457825	38.468670
 216	8.6400e-001	237.815857	38.481006
 217	8.6800e-001	238.868713	38.521440
 218	8.7200e-001	239.952087	38.525552
 219	8.7600e-001	241.355896	38.552965
 220	8.8000e-001	242.729187	38.565301
 221	8.8400e-001	243.698120	38.605050
 222	8.8800e-001	245.201111	38.583120
 223	8.9200e-001	246.070862	38.647540
 224	8.9600e-001	247.245789	38.664673
 225	9.0000e-001	248.435974	38.679065
 226	9.0400e-001	250.068665	38.727723
 227	9.0800e-001	250.740051	38.728408
 228	9.1200e-001	252.311707	38.748968
 229	9.1600e-001	253.318787	38.790088
 230	9.2000e-001	254.356384	38.816815
 231	9.2400e-001	255.851746	38.829837
 232	9.2800e-001	256.881714	38.829151
 233	9.3200e-001	258.232117	38.875068
 234	9.3600e-001	259.391785	38.892201
 235	9.4000e-001	260.581970	38.949083
 236	9.4400e-001	261.756897	38.929209
 237	9.4800e-001	263.114929	38.966216
 238	9.5200e-001	264.091492	38.972384
 239	9.5600e-001	265.396118	38.990203
 240	9.6000e-001	266.510010	39.029266
 241	9.6400e-001	267.875671	39.058735
 242	9.6800e-001	269.096375	39.103281
 243	9.7200e-001	270.317078	39.091631
 244	9.7600e-001	271.507263	39.114246
 245	9.8000e-001	272.750854	39.121100
 246	9.8400e-001	273.773193	39.157422
 247	9.8800e-001	274.658203	39.186206
 248	9.9200e-001	276.100159	39.205395
 249	9.9600e-001	277.145386	39.235549
 250	1.0000e+000	278.465271	39.240346
 251	1.0040e+000	279.663086	39.269130
 252	1.0080e+000	278.350830	39.262962
 253	1.0120e+000	277.244568	39.215675
 254	1.0160e+000	276.008606	39.219787
 255	1.0200e+000	274.673462	39.183464
 256	1.0240e+000	273.933411	39.191688
 257	1.0280e+000	272.483826	39.151254
 258	1.0320e+000	271.347046	39.126582
 259	1.0360e+000	270.095825	39.123841
 260	1.0400e+000	269.012451	39.097113
 261	1.0440e+000	267.654419	39.074498
 262	1.0480e+000	266.426086	39.053253
 263	1.0520e+000	265.312195	39.045714
 264	1.0560e+000	263.908386	39.008021
 265	1.0600e+000	262.695313	38.997741
 266	1.0640e+000	261.802673	38.978552
 267	1.0680e+000	260.437012	38.965531
 268	1.0720e+000	259.300232	38.954566
 269	1.0760e+000	258.354187	38.951824
 270	1.0800e+000	256.889343	38.912076
 271	1.0840e+000	255.882263	38.884663
 272	1.0880e+000	254.524231	38.833949
 273	1.0920e+000	253.166199	38.866159
 274	1.0960e+000	252.174377	38.825039
 275	1.1000e+000	250.900269	38.804480
 276	1.1040e+000	249.748230	38.765416
 277	1.1080e+000	248.573303	38.746227
 278	1.1120e+000	247.192383	38.724982
 279	1.1160e+000	246.162415	38.716758
 280	1.1200e+000	245.040894	38.677694
 281	1.1240e+000	243.888855	38.660561
 282	1.1280e+000	242.607117	38.656449
 283	1.1320e+000	241.165161	38.620127
 284	1.1360e+000	239.959717	38.602994
 285	1.1400e+000	238.693237	38.592029
 286	1.1440e+000	237.922668	38.574896
 287	1.1480e+000	236.938477	38.543371
 288	1.1520e+000	235.298157	38.513216
 289	1.1560e+000	234.169006	38.492657
 290	1.1600e+000	233.154297	38.487174
 291	1.1640e+000	231.513977	38.460446
 292	1.1680e+000	230.400085	38.430977
 293	1.1720e+000	229.293823	38.415215
 294	1.1760e+000	228.019714	38.349424
 295	1.1800e+000	227.203369	38.322011
 296	1.1840e+000	226.158142	38.375466
 297	1.1880e+000	224.548340	38.324067
 298	1.1920e+000	223.434448	38.307619
 299	1.1960e+000	222.129822	38.300080
 300	1.2000e+000	220.726013	38.270611
 301	1.2040e+000	220.100403	38.264443
 302	1.2080e+000	218.734741	38.226065
 303	1.2120e+000	217.185974	38.202764
 304	1.2160e+000	216.400146	38.173295
 305	1.2200e+000	215.011597	38.160959
 306	1.2240e+000	213.760376	38.142455
 307	1.2280e+000	212.432861	38.110245
 308	1.2320e+000	211.257935	38.088315
 309	1.2360e+000	210.128784	38.068440
 310	1.2400e+000	208.847046	38.038286
 311	1.2440e+000	207.893372	38.017726
 312	1.2480e+000	206.695557	38.005390
 313	1.2520e+000	205.558777	37.976607
 314	1.2560e+000	204.338074	37.971124
 315	1.2600e+000	202.766418	37.927263
 316	1.2640e+000	201.782227	37.914242
 317	1.2680e+000	200.668335	37.892312
 318	1.2720e+000	199.478149	37.862157
 319	1.2760e+000	198.020935	37.907389
 320	1.2800e+000	196.769714	37.793625
 321	1.2840e+000	195.732117	37.801164
 322	1.2880e+000	194.824219	37.771009
 323	1.2920e+000	193.260193	37.751135
 324	1.2960e+000	192.085266	37.743596
 325	1.3000e+000	191.116333	37.748394
 326	1.3040e+000	189.918518	37.683973
 327	1.3080e+000	188.629150	37.670952
 328	1.3120e+000	187.400818	37.632574
 329	1.3160e+000	186.279297	37.631203
 330	1.3200e+000	184.875488	37.603790
 331	1.3240e+000	183.738708	37.616811
 332	1.3280e+000	182.617188	37.519495
 333	1.3320e+000	181.312561	37.531145
 334	1.3360e+000	180.168152	37.515383
 335	1.3400e+000	178.863525	37.493453
 336	1.3440e+000	177.749634	37.439997
 337	1.3480e+000	176.628113	37.439997
 338	1.3520e+000	174.888611	37.396822
 339	1.3560e+000	174.057007	37.413270
 340	1.3600e+000	173.042297	37.379003
 341	1.3640e+000	171.630859	37.344737
 342	1.3680e+000	170.532227	37.313897
 343	1.3720e+000	169.120789	37.283058
 344	1.3760e+000	168.144226	37.263869
 345	1.3800e+000	166.954041	37.236456
 346	1.3840e+000	165.580750	37.221378
 347	1.3880e+000	164.779663	37.191224
 348	1.3920e+000	163.330078	37.161755
 349	1.3960e+000	162.132263	37.157643
 350	1.4000e+000	161.033630	37.111726
 351	1.4040e+000	159.973145	37.093908
 352	1.4080e+000	158.653259	37.056900
 353	1.4120e+000	157.455444	37.069922
 354	1.4160e+000	156.394958	37.035655
 355	1.4200e+000	155.250549	37.003445
 356	1.4240e+000	153.686523	36.978773
 357	1.4280e+000	152.976990	36.955472
 358	1.4320e+000	151.351929	36.919835
 359	1.4360e+000	149.986267	36.905444
 360	1.4400e+000	149.055481	36.878031
 361	1.4440e+000	147.636414	36.841023
 362	1.4480e+000	146.530151	36.817037
 363	1.4520e+000	145.584106	36.795792
 364	1.4560e+000	144.287109	36.776602
 365	1.4600e+000	142.845154	36.739595
 366	1.4640e+000	141.853333	36.727259
 367	1.4680e+000	140.518188	36.704643
 368	1.4720e+000	139.007568	36.667636
 369	1.4760e+000	138.175964	36.623090
 370	1.4800e+000	136.718750	36.621034
 371	1.4840e+000	135.780334	36.592935
 372	1.4880e+000	134.727478	36.557298
 373	1.4920e+000	133.384705	36.496990
 374	1.4960e+000	131.889343	36.511382
 375	1.5000e+000	131.126404	36.485339
 376	1.5040e+000	129.684448	36.502472
 377	1.5080e+000	128.379822	36.419548
 378	1.5120e+000	127.365112	36.395562
 379	1.5160e+000	126.029968	36.368149
 380	1.5200e+000	125.038147	36.339365
 381	1.5240e+000	123.634338	36.327715
 382	1.5280e+000	122.810364	36.306469
 383	1.5320e+000	121.269226	36.294134
 384	1.5360e+000	120.307922	36.217377
 385	1.5400e+000	118.896484	36.219433
 386	1.5440e+000	117.851257	36.183796
 387	1.5480e+000	116.744995	36.141991
 388	1.5520e+000	115.287781	36.121432
 389	1.5560e+000	114.097595	36.100187
 390	1.5600e+000	113.075256	36.041934
 391	1.5640e+000	111.663818	36.026857
 392	1.5680e+000	110.763550	36.027542
 393	1.5720e+000	109.222412	35.978884
 394	1.5760e+000	108.222961	35.965863
 395	1.5800e+000	107.055664	35.935023
 396	1.5840e+000	105.720520	35.937079
 397	1.5880e+000	104.515076	35.884994
 398	1.5920e+000	103.355408	35.827427
 399	1.5960e+000	102.134705	35.798644
 400	1.6000e+000	101.066589	35.791105
 401	1.6040e+000	99.487305	35.754783
 402	1.6080e+000	98.678589	35.724628
 403	1.6120e+000	97.351074	35.677341
 404	1.6160e+000	96.122742	35.678712
 405	1.6200e+000	94.924927	35.628683
 406	1.6240e+000	93.475342	35.595787
 407	1.6280e+000	92.483521	35.575913
 408	1.6320e+000	91.346741	35.534108
 409	1.6360e+000	89.927673	35.517660
 410	1.6400e+000	88.935852	35.463520
 411	1.6440e+000	87.318420	35.440218
 412	1.6480e+000	86.776733	35.420344
 413	1.6520e+000	85.189819	35.379225
 414	1.6560e+000	84.144592	35.354553
 415	1.6600e+000	82.832336	35.343588
 416	1.6640e+000	81.939697	35.299041
 417	1.6680e+000	80.558777	35.246957
 418	1.6720e+000	79.437256	35.201725
 419	1.6760e+000	78.308105	35.190760
 420	1.6800e+000	76.988220	35.144158
 421	1.6840e+000	75.569153	35.124284
 422	1.6880e+000	74.684143	35.090703
 423	1.6920e+000	73.280334	35.045471
 424	1.6960e+000	72.158813	35.020114
 425	1.7000e+000	71.220398	34.978995
 426	1.7040e+000	69.572449	34.937875
 427	1.7080e+000	68.580627	34.923483
 428	1.7120e+000	67.230225	34.856321
 429	1.7160e+000	65.856934	34.860433
 430	1.7200e+000	64.987183	34.806293
 431	1.7240e+000	63.796997	34.772026
 432	1.7280e+000	62.355042	34.708977
 433	1.7320e+000	61.355591	34.689102
 434	1.7360e+000	59.974670	34.707606
 435	1.7400e+000	58.769226	34.594527
 436	1.7440e+000	57.579041	34.563688
 437	1.7480e+000	56.549072	34.526680
 438	1.7520e+000	55.221558	34.468427
 439	1.7560e+000	54.138184	34.460889
 440	1.7600e+000	53.115845	34.395783
 441	1.7640e+000	51.643372	34.367685
 442	1.7680e+000	50.323486	34.320397
 443	1.7720e+000	49.308777	34.275851
 444	1.7760e+000	47.981262	34.229934
 445	1.7800e+000	46.638489	34.177850
 446	1.7840e+000	45.997620	34.164143
 447	1.7880e+000	44.555664	34.065456
 448	1.7920e+000	43.350220	34.059288
 449	1.7960e+000	42.121887	34.004462
 450	1.8000e+000	40.916443	33.939356
 451	1.8040e+000	39.863586	33.922909
 452	1.8080e+000	38.688660	33.840670
 453	1.8120e+000	37.322998	33.790641
 454	1.8160e+000	36.331177	33.752948
 455	1.8200e+000	35.041809	33.732388
 456	1.8240e+000	33.920288	33.630960
 457	1.8280e+000	32.432556	33.593267
 458	1.8320e+000	31.265259	33.519937
 459	1.8360e+000	29.899597	33.466482
 460	1.8400e+000	28.778076	33.382872
 461	1.8440e+000	27.854919	33.334900
 462	1.8480e+000	26.229858	33.284186
 463	1.8520e+000	25.321960	33.188925
 464	1.8560e+000	24.032593	33.127931
 465	1.8600e+000	22.949219	33.047748
 466	1.8640e+000	21.659851	32.983328
 467	1.8680e+000	20.729065	32.885326
 468	1.8720e+000	19.393921	32.818850
 469	1.8760e+000	18.013000	32.788696
 470	1.8800e+000	16.899109	32.653001
 471	1.8840e+000	15.708923	32.560482
 472	1.8880e+000	14.572144	32.450830
 473	1.8920e+000	13.160706	32.348717
 474	1.8960e+000	11.787415	32.232212
 475	1.9000e+000	10.833740	32.136951
 476	1.9040e+000	9.727478	31.997830
 477	1.9080e+000	8.636475	31.889549
 478	1.9120e+000	7.446289	31.738777
 479	1.9160e+000	6.126404	31.585265
 480	1.9200e+000	4.829407	31.427640
 481	1.9240e+000	3.578186	31.239861
 482	1.9280e+000	2.662659	31.054138
 483	1.9320e+000	1.281738	30.837575
 484	1.9360e+000	0.236511	30.644999
 485	1.9400e+000	-1.106262	30.401023
 486	1.9440e+000	-1.907349	30.119354
 487	1.9480e+000	-3.547668	29.835630
 488	1.9520e+000	-4.562378	29.499820
 489	1.9560e+000	-5.950928	29.057100
 490	1.9600e+000	-6.950378	28.764466
 491	1.9640e+000	-8.049011	28.323802
 492	1.9680e+000	-9.490967	27.830368
 493	1.9720e+000	-10.612488	27.281423
 494	1.9760e+000	-11.878967	26.675595
 495	1.9800e+000	-13.084412	26.010830
 496	1.9840e+000	-13.961792	25.291239
 497	1.9880e+000	-15.693665	24.490779
 498	1.9920e+000	-16.670227	23.622472
 499	1.9960e+000	-17.944336	22.641086
 500	2.0000e+000	-19.180298	21.587742
 501	2.0040e+000	-20.309448	20.452843
 502	2.0080e+000	-21.492004	19.230223
 503	2.0120e+000	-22.628784	17.930847
 504	2.0160e+000	-23.857117	16.627358
 505	2.0200e+000	-24.909973	15.203253
 506	2.0240e+000	-26.168823	13.688684
 507	2.0280e+000	-27.191162	12.173430
 508	2.0320e+000	-28.564453	10.628707
 509	2.0360e+000	-29.502869	9.049718
 510	2.0400e+000	-30.914307	7.528297
 511	2.0440e+000	-32.264709	6.038400
 512	2.0480e+000	-33.096313	4.571119
 513	2.0520e+000	-34.515381	3.144272
 514	2.0560e+000	-35.858154	1.788013
 515	2.0600e+000	-36.819458	0.481098
 516	2.0640e+000	-38.055420	-0.704514
 517	2.0680e+000	-39.474487	-1.841469
 518	2.0720e+000	-40.573120	-2.896869
 519	2.0760e+000	-41.793823	-3.877570
 520	2.0800e+000	-42.869568	-4.839766
 521	2.0840e+000	-44.525146	-5.743025
 522	2.0880e+000	-45.272827	-6.584604
 523	2.0920e+000	-46.539307	-7.359021
 524	2.0960e+000	-47.813416	-8.111508
 525	2.1000e+000	-48.675537	-8.823561
 526	2.1040e+000	-50.354004	-9.526705
 527	2.1080e+000	-51.429749	-10.172281
 528	2.1120e+000	-52.558899	-10.834990
 529	2.1160e+000	-53.909302	-11.455895
 530	2.1200e+000	-54.962158	-12.042533
 531	2.1240e+000	-56.541443	-12.573660
 532	2.1280e+000	-57.487488	-13.136997
 533	2.1320e+000	-58.738708	-13.677719
 534	2.1360e+000	-59.455872	-14.170468
 535	2.1400e+000	-61.073303	-14.688574
 536	2.1440e+000	-62.591553	-15.178581
 537	2.1480e+000	-63.545227	-15.617189
 538	2.1520e+000	-64.926147	-16.065392
 539	2.1560e+000	-65.826416	-16.491664
 540	2.1600e+000	-66.825867	-16.893950
 541	2.1640e+000	-68.229675	-17.316110
 542	2.1680e+000	-69.366455	-17.699892
 543	2.1720e+000	-70.632935	-18.082989
 544	2.1760e+000	-71.830750	-18.444841
 545	2.1800e+000	-72.975159	-18.790244
 546	2.1840e+000	-74.134827	-19.132222
 547	2.1880e+000	-75.515747	-19.456380
 548	2.1920e+000	-76.606750	-19.794246
 549	2.1960e+000	-77.613831	-20.108125
 550	2.2000e+000	-79.208374	-20.425430
 551	2.2040e+000	-80.505371	-20.712581
 552	2.2080e+000	-81.382751	-21.015495
 553	2.2120e+000	-82.717896	-21.286199
 554	2.2160e+000	-83.892822	-21.552105
 555	2.2200e+000	-84.938049	-21.816640
 556	2.2240e+000	-86.135864	-22.101050
 557	2.2280e+000	-87.409973	-22.353935
 558	2.2320e+000	-88.562012	-22.624639
 559	2.2360e+000	-89.782715	-22.840516
 560	2.2400e+000	-91.018677	-23.080380
 561	2.2440e+000	-92.124939	-23.306537
 562	2.2480e+000	-93.276978	-23.561478
 563	2.2520e+000	-94.596863	-23.771873
 564	2.2560e+000	-95.832825	-24.016534
 565	2.2600e+000	-96.961975	-24.223502
 566	2.2640e+000	-98.297119	-24.439379
 567	2.2680e+000	-99.449158	-24.657313
 568	2.2720e+000	-100.425720	-24.870449
 569	2.2760e+000	-101.905823	-25.089068
 570	2.2800e+000	-102.897644	-25.240525
 571	2.2840e+000	-104.545593	-25.496836
 572	2.2880e+000	-105.606079	-25.671594
 573	2.2920e+000	-106.613159	-25.849093
 574	2.2960e+000	-108.222961	-26.030704
 575	2.3000e+000	-108.901978	-26.213001
 576	2.3040e+000	-109.878540	-26.377479
 577	2.3080e+000	-111.480713	-26.590615
 578	2.3120e+000	-112.373352	-26.755093
 579	2.3160e+000	-113.815308	-26.937390
 580	2.3200e+000	-114.875793	-27.090217
 581	2.3240e+000	-116.073608	-27.241674
 582	2.3280e+000	-117.355347	-27.446586
 583	2.3320e+000	-118.774414	-27.602155
 584	2.3360e+000	-119.659424	-27.765948
 585	2.3400e+000	-121.147156	-27.916034
 586	2.3440e+000	-122.238159	-28.077085
 587	2.3480e+000	-123.275757	-28.225801
 588	2.3520e+000	-124.397278	-28.358069
 589	2.3560e+000	-125.801086	-28.512952
 590	2.3600e+000	-126.968384	-28.654129
 591	2.3640e+000	-128.295898	-28.819978
 592	2.3680e+000	-129.447937	-28.939224
 593	2.3720e+000	-130.470276	-29.094108
 594	2.3760e+000	-131.813049	-29.219522
 595	2.3800e+000	-132.934570	-29.328489
 596	2.3840e+000	-134.132385	-29.479946
 597	2.3880e+000	-135.444641	-29.623179
 598	2.3920e+000	-136.405945	-29.768468
 599	2.3960e+000	-137.634277	-29.855504
 600	2.4000e+000	-138.999939	-29.990513
 601	2.4040e+000	-140.083313	-30.134431
 602	2.4080e+000	-141.265869	-30.259160
 603	2.4120e+000	-142.578125	-30.367442
 604	2.4160e+000	-143.844604	-30.486688
 605	2.4200e+000	-144.966125	-30.615530
 606	2.4240e+000	-146.270752	-30.716958
 607	2.4280e+000	-147.155762	-30.827980
 608	2.4320e+000	-148.567200	-30.960248
 609	2.4360e+000	-150.138855	-31.058250
 610	2.4400e+000	-150.848389	-31.176126
 611	2.4440e+000	-152.313232	-31.280980
 612	2.4480e+000	-153.404236	-31.386520
 613	2.4520e+000	-154.548645	-31.511935
 614	2.4560e+000	-155.662537	-31.598971
 615	2.4600e+000	-157.043457	-31.699714
 616	2.4640e+000	-158.218384	-31.794289
 617	2.4680e+000	-159.324646	-31.916277
 618	2.4720e+000	-160.575867	-32.020446
 619	2.4760e+000	-161.895752	-32.102000
 620	2.4800e+000	-162.872314	-32.178756
 621	2.4840e+000	-164.398193	-32.292520
 622	2.4880e+000	-165.573120	-32.382983
 623	2.4920e+000	-166.450500	-32.474131
 624	2.4960e+000	-167.831421	-32.574189
 625	2.5000e+000	-168.991089	-32.677673
 626	2.5040e+000	-170.166016	-32.766080
 627	2.5080e+000	-171.386719	-32.858599
 628	2.5120e+000	-172.508240	-32.934670
 629	2.5160e+000	-173.660278	-33.005944
 630	2.5200e+000	-174.797058	-33.083385
 631	2.5240e+000	-176.498413	-33.187555
 632	2.5280e+000	-177.337646	-33.249919
 633	2.5320e+000	-178.558350	-33.342438
 634	2.5360e+000	-179.588318	-33.431531
 635	2.5400e+000	-181.190491	-33.488412
 636	2.5440e+000	-182.029724	-33.585729
 637	2.5480e+000	-183.273315	-33.646723
 638	2.5520e+000	-184.616089	-33.728962
 639	2.5560e+000	-185.676575	-33.823536
 640	2.5600e+000	-187.110901	-33.868083
 641	2.5640e+000	-188.156128	-33.958546
 642	2.5680e+000	-189.353943	-34.028449
 643	2.5720e+000	-190.704346	-34.103149
 644	2.5760e+000	-191.658020	-34.164828
 645	2.5800e+000	-192.962646	-34.225137
 646	2.5840e+000	-194.236755	-34.315600
 647	2.5880e+000	-195.533752	-34.380020
 648	2.5920e+000	-196.487427	-34.442385
 649	2.5960e+000	-197.669983	-34.501323
 650	2.6000e+000	-198.944092	-34.541072
 651	2.6040e+000	-200.172424	-34.626052
 652	2.6080e+000	-201.293945	-34.676766
 653	2.6120e+000	-202.644348	-34.759005
 654	2.6160e+000	-203.834534	-34.811090
 655	2.6200e+000	-204.917908	-34.871399
 656	2.6240e+000	-206.039429	-34.949526
 657	2.6280e+000	-207.138062	-34.983792
 658	2.6320e+000	-208.587646	-35.009834
 659	2.6360e+000	-209.915161	-35.147585
 660	2.6400e+000	-210.845947	-35.164718
 661	2.6440e+000	-212.059021	-35.216117
 662	2.6480e+000	-213.424683	-35.261349
 663	2.6520e+000	-214.622498	-35.333993
 664	2.6560e+000	-215.553284	-35.367574
 665	2.6600e+000	-216.835022	-35.431995
 666	2.6640e+000	-218.101501	-35.482023
 667	2.6680e+000	-219.146729	-35.547129
 668	2.6720e+000	-220.298767	-35.601955
 669	2.6760e+000	-221.954346	-35.643075
 670	2.6800e+000	-222.717285	-35.671173
 671	2.6840e+000	-224.128723	-35.736964
 672	2.6880e+000	-225.402832	-35.780825
 673	2.6920e+000	-226.364136	-35.844560
 674	2.6960e+000	-227.684021	-35.878827
 675	2.7000e+000	-229.118347	-35.919261
 676	2.7040e+000	-230.056763	-35.978199
 677	2.7080e+000	-231.430054	-35.987108
 678	2.7120e+000	-232.536316	-36.061808
 679	2.7160e+000	-233.680725	-36.102243
 680	2.7200e+000	-234.909058	-36.161866
 681	2.7240e+000	-236.083984	-36.192020
 682	2.7280e+000	-237.251282	-36.246161
 683	2.7320e+000	-238.533020	-36.288651
 684	2.7360e+000	-239.532471	-36.324288
 685	2.7400e+000	-240.829468	-36.363351
 686	2.7440e+000	-242.279053	-36.379114
 687	2.7480e+000	-243.362427	-36.443534
 688	2.7520e+000	-244.438171	-36.521662
 689	2.7560e+000	-245.605469	-36.528515
 690	2.7600e+000	-246.742249	-36.575802
 691	2.7640e+000	-247.985840	-36.625146
 692	2.7680e+000	-249.252319	-36.635425
 693	2.7720e+000	-250.511169	-36.712182
 694	2.7760e+000	-251.464844	-36.701902
 695	2.7800e+000	-252.685547	-36.771805
 696	2.7840e+000	-254.028320	-36.812239
 697	2.7880e+000	-255.577087	-36.858156
 698	2.7920e+000	-256.706238	-36.898590
 699	2.7960e+000	-257.659912	-36.925318
 700	2.8000e+000	-259.033203	-36.939710
 701	2.8040e+000	-260.070801	-37.034970
 702	2.8080e+000	-261.260986	-37.056215
 703	2.8120e+000	-262.649536	-37.124748
 704	2.8160e+000	-263.633728	-37.128174
 705	2.8200e+000	-265.014648	-37.165867
 706	2.8240e+000	-265.975952	-37.198077
 707	2.8280e+000	-267.547607	-37.235770
 708	2.8320e+000	-268.775940	-37.270722
 709	2.8360e+000	-269.805908	-37.273463
 710	2.8400e+000	-270.843506	-37.350220
 711	2.8440e+000	-271.881104	-37.364611
 712	2.8480e+000	-273.376465	-37.414640
 713	2.8520e+000	-274.467468	-37.441368
 714	2.8560e+000	-275.802612	-37.482487
 715	2.8600e+000	-276.634216	-37.510586
 716	2.8640e+000	-278.106689	-37.550335
 717	2.8680e+000	-279.281616	-37.580489
 718	2.8720e+000	-280.448914	-37.617496
 719	2.8760e+000	-281.646729	-37.661357
 720	2.8800e+000	-283.020020	-37.705218
 721	2.8840e+000	-283.897400	-37.743596
 722	2.8880e+000	-285.102844	-37.769639
 723	2.8920e+000	-286.590576	-37.825150
 724	2.8960e+000	-287.666321	-37.808017
 725	2.9000e+000	-288.787842	-37.875179
 726	2.9040e+000	-290.000916	-37.899165
 727	2.9080e+000	-291.351318	-37.929319
 728	2.9120e+000	-292.549133	-37.960159
 729	2.9160e+000	-293.922424	-38.017041
 730	2.9200e+000	-294.868469	-38.038971
 731	2.9240e+000	-296.112061	-38.095168
 732	2.9280e+000	-297.210693	-38.097224
 733	2.9320e+000	-298.851013	-38.138344
 734	2.9360e+000	-299.827576	-38.180148
 735	2.9400e+000	-301.025391	-38.226065
 736	2.9440e+000	-301.902771	-38.253478
 737	2.9480e+000	-303.344727	-38.285003
 738	2.9520e+000	-304.496765	-38.322011
 739	2.9560e+000	-305.694580	-38.349424
 740	2.9600e+000	-307.128906	-38.395340
 741	2.9640e+000	-308.265686	-38.415215
 742	2.9680e+000	-309.150696	-38.454278
 743	2.9720e+000	-310.501099	-38.484433
 744	2.9760e+000	-311.614990	-38.507734
 745	2.9800e+000	-313.285828	-38.557077
 746	2.9840e+000	-314.239502	-38.611218
 747	2.9880e+000	-315.032959	-38.633148
 748	2.9920e+000	-316.520691	-38.644113
 749	2.9960e+000	-317.520142	-38.674268
 750	3.0000e+000	-318.778992	-38.744856
 751	3.0040e+000	-319.984436	-38.771584
 752	3.0080e+000	-318.771362	-38.751709
 753	3.0120e+000	-317.825317	-38.723611
 754	3.0160e+000	-316.307068	-38.727038
 755	3.0200e+000	-315.093994	-38.710590
 756	3.0240e+000	-314.254761	-38.661247
 757	3.0280e+000	-312.736511	-38.674268
 758	3.0320e+000	-311.584473	-38.672897
 759	3.0360e+000	-310.310364	-38.657820
 760	3.0400e+000	-309.402466	-38.625610
 761	3.0440e+000	-308.227539	-38.613274
 762	3.0480e+000	-306.884766	-38.596826
 763	3.0520e+000	-305.618286	-38.584490
 764	3.0560e+000	-304.710388	-38.573525
 765	3.0600e+000	-302.978516	-38.560504
 766	3.0640e+000	-301.948547	-38.542685
 767	3.0680e+000	-301.086426	-38.487859
 768	3.0720e+000	-299.873352	-38.510475
 769	3.0760e+000	-298.439026	-38.478265
 770	3.0800e+000	-297.073364	-38.482377
 771	3.0840e+000	-296.066284	-38.416586
 772	3.0880e+000	-294.982910	-38.400823
 773	3.0920e+000	-293.777466	-38.416586
 774	3.0960e+000	-292.449951	-38.376837
 775	3.1000e+000	-291.175842	-38.370669
 776	3.1040e+000	-290.252686	-38.299395
 777	3.1080e+000	-288.932800	-38.328179
 778	3.1120e+000	-287.597656	-38.295283
 779	3.1160e+000	-286.666870	-38.269241
 780	3.1200e+000	-285.438538	-38.269926
 781	3.1240e+000	-284.172058	-38.231548
 782	3.1280e+000	-283.111572	-38.215785
 783	3.1320e+000	-281.463623	-38.174666
 784	3.1360e+000	-280.448914	-38.183575
 785	3.1400e+000	-279.365540	-38.152050
 786	3.1440e+000	-278.289795	-38.136288
 787	3.1480e+000	-277.114868	-38.058846
 788	3.1520e+000	-275.741577	-38.085573
 789	3.1560e+000	-274.627686	-38.062958
 790	3.1600e+000	-273.185730	-38.031433
 791	3.1640e+000	-272.377014	-38.021153
 792	3.1680e+000	-270.812988	-37.999908
 793	3.1720e+000	-269.851685	-37.962900
 794	3.1760e+000	-268.577576	-37.952620
 795	3.1800e+000	-267.517090	-37.909445
 796	3.1840e+000	-266.098022	-37.910130
 797	3.1880e+000	-264.938354	-37.870381
 798	3.1920e+000	-263.854980	-37.851192
 799	3.1960e+000	-262.680054	-37.827891
 800	3.2000e+000	-261.199951	-37.805275
 801	3.2040e+000	-260.078430	-37.770324
 802	3.2080e+000	-258.689880	-37.736743
 803	3.2120e+000	-257.713318	-37.743596
 804	3.2160e+000	-256.896973	-37.713442
 805	3.2200e+000	-255.645752	-37.688085
 806	3.2240e+000	-253.700256	-37.657245
 807	3.2280e+000	-253.166199	-37.638741
 808	3.2320e+000	-251.625061	-37.599678
 809	3.2360e+000	-250.381470	-37.589398
 810	3.2400e+000	-249.237061	-37.544852
 811	3.2440e+000	-248.161316	-37.525663
 812	3.2480e+000	-246.749878	-37.459872
 813	3.2520e+000	-245.483398	-37.459186
 814	3.2560e+000	-244.323730	-37.468781
 815	3.2600e+000	-243.354797	-37.438627
 816	3.2640e+000	-242.095947	-37.399563
 817	3.2680e+000	-241.157532	-37.378318
 818	3.2720e+000	-239.685059	-37.372150
 819	3.2760e+000	-238.365173	-37.315268
 820	3.2800e+000	-237.342834	-37.291967
 821	3.2840e+000	-236.045837	-37.263183
 822	3.2880e+000	-235.038757	-37.235770
 823	3.2920e+000	-233.703613	-37.226861
 824	3.2960e+000	-232.666016	-37.201504
 825	3.3000e+000	-231.208801	-37.185056
 826	3.3040e+000	-230.239868	-37.132286
 827	3.3080e+000	-228.904724	-37.102132
 828	3.3120e+000	-227.752686	-37.074034
 829	3.3160e+000	-226.608276	-37.026746
 830	3.3200e+000	-225.341797	-37.017837
 831	3.3240e+000	-224.121094	-36.996592
 832	3.3280e+000	-223.159790	-36.960270
 833	3.3320e+000	-221.542358	-36.923947
 834	3.3360e+000	-220.603943	-36.898590
 835	3.3400e+000	-219.406128	-36.881457
 836	3.3440e+000	-218.261719	-36.807442
 837	3.3480e+000	-216.903687	-36.813610
 838	3.3520e+000	-215.591431	-36.784826
 839	3.3560e+000	-214.424133	-36.771120
 840	3.3600e+000	-213.317871	-36.746448
 841	3.3640e+000	-211.837769	-36.685454
 842	3.3680e+000	-210.906982	-36.669006
 843	3.3720e+000	-209.671021	-36.627887
 844	3.3760e+000	-208.358765	-36.582655
 845	3.3800e+000	-207.382202	-36.564837
 846	3.3840e+000	-206.275940	-36.548389
 847	3.3880e+000	-204.841614	-36.512067
 848	3.3920e+000	-203.697205	-36.467521
 849	3.3960e+000	-202.484131	-36.394191
 850	3.4000e+000	-201.263428	-36.409268
 851	3.4040e+000	-199.943542	-36.372261
 852	3.4080e+000	-198.814392	-36.321547
 853	3.4120e+000	-197.776794	-36.305099
 854	3.4160e+000	-196.594238	-36.270833
 855	3.4200e+000	-195.274353	-36.276315
 856	3.4240e+000	-194.122314	-36.160495
 857	3.4280e+000	-193.000793	-36.161866
 858	3.4320e+000	-191.802979	-36.115264
 859	3.4360e+000	-190.505981	-36.081683
 860	3.4400e+000	-189.247131	-36.046731
 861	3.4440e+000	-188.232422	-36.011780
 862	3.4480e+000	-186.805725	-35.970660
 863	3.4520e+000	-185.546875	-35.920631
 864	3.4560e+000	-184.280396	-35.902813
 865	3.4600e+000	-183.410645	-35.868547
 866	3.4640e+000	-182.022095	-35.819203
 867	3.4680e+000	-180.892944	-35.779454
 868	3.4720e+000	-179.840088	-35.739706
 869	3.4760e+000	-178.482056	-35.708866
 870	3.4800e+000	-177.291870	-35.658152
 871	3.4840e+000	-176.322937	-35.636907
 872	3.4880e+000	-174.942017	-35.566318
 873	3.4920e+000	-173.645020	-35.515604
 874	3.4960e+000	-172.668457	-35.479282
 875	3.5000e+000	-171.310425	-35.452554
 876	3.5040e+000	-170.021057	-35.399099
 877	3.5080e+000	-169.006348	-35.365518
 878	3.5120e+000	-167.861938	-35.322343
 879	3.5160e+000	-166.488647	-35.252439
 880	3.5200e+000	-165.481567	-35.249698
 881	3.5240e+000	-164.253235	-35.183222
 882	3.5280e+000	-162.750244	-35.118801
 883	3.5320e+000	-161.743164	-35.079052
 884	3.5360e+000	-160.270691	-35.038618
 885	3.5400e+000	-159.690857	-34.978309
 886	3.5440e+000	-158.378601	-34.928966
 887	3.5480e+000	-157.142639	-34.882364
 888	3.5520e+000	-155.700684	-34.837132
 889	3.5560e+000	-154.617310	-34.775453
 890	3.5600e+000	-153.457642	-34.715830
 891	3.5640e+000	-152.168274	-34.645927
 892	3.5680e+000	-150.970459	-34.620570
 893	3.5720e+000	-149.932861	-34.547240
 894	3.5760e+000	-148.460388	-34.499952
 895	3.5800e+000	-147.201538	-34.439644
 896	3.5840e+000	-146.316528	-34.372482
 897	3.5880e+000	-144.981384	-34.323139
 898	3.5920e+000	-143.707275	-34.251179
 899	3.5960e+000	-142.448425	-34.186073
 900	3.6000e+000	-141.311646	-34.136045
 901	3.6040e+000	-140.167236	-34.056547
 902	3.6080e+000	-138.809204	-34.010630
 903	3.6120e+000	-137.832642	-33.921538
 904	3.6160e+000	-136.489868	-33.867397
 905	3.6200e+000	-135.551453	-33.789956
 906	3.6240e+000	-134.033203	-33.711143
 907	3.6280e+000	-133.056641	-33.651520
 908	3.6320e+000	-131.614685	-33.578875
 909	3.6360e+000	-130.538940	-33.509658
 910	3.6400e+000	-129.447937	-33.439754
 911	3.6440e+000	-127.990723	-33.360257
 912	3.6480e+000	-126.876831	-33.275276
 913	3.6520e+000	-126.029968	-33.184813
 914	3.6560e+000	-124.649048	-33.124505
 915	3.6600e+000	-123.390198	-33.051175
 916	3.6640e+000	-122.215271	-32.953174
 917	3.6680e+000	-120.971680	-32.872305
 918	3.6720e+000	-119.911194	-32.783213
 919	3.6760e+000	-118.431091	-32.678358
 920	3.6800e+000	-117.553711	-32.613252
 921	3.6840e+000	-116.203308	-32.502230
 922	3.6880e+000	-115.203857	-32.452201
 923	3.6920e+000	-113.861084	-32.380927
 924	3.6960e+000	-112.770081	-32.244547
 925	3.7000e+000	-111.503601	-32.148602
 926	3.7040e+000	-110.237122	-32.057454
 927	3.7080e+000	-109.214783	-31.949858
 928	3.7120e+000	-108.062744	-31.853227
 929	3.7160e+000	-105.895996	-31.775785
 930	3.7200e+000	-105.377197	-31.639405
 931	3.7240e+000	-104.133606	-31.558537
 932	3.7280e+000	-103.240967	-31.467389
 933	3.7320e+000	-101.898193	-31.333065
 934	3.7360e+000	-100.601196	-31.226840
 935	3.7400e+000	-99.281311	-31.097313
 936	3.7440e+000	-98.419189	-30.982178
 937	3.7480e+000	-97.091675	-30.877324
 938	3.7520e+000	-95.817566	-30.779322
 939	3.7560e+000	-94.505310	-30.645684
 940	3.7600e+000	-93.276978	-30.520955
 941	3.7640e+000	-92.239380	-30.407876
 942	3.7680e+000	-90.995789	-30.283832
 943	3.7720e+000	-89.744568	-30.159103
 944	3.7760e+000	-88.462830	-30.032318
 945	3.7800e+000	-87.333679	-29.913757
 946	3.7840e+000	-86.059570	-29.771209
 947	3.7880e+000	-84.983826	-29.640997
 948	3.7920e+000	-83.747864	-29.505988
 949	3.7960e+000	-82.519531	-29.374406
 950	3.8000e+000	-81.336975	-29.248306
 951	3.8040e+000	-80.429077	-29.084513
 952	3.8080e+000	-79.086304	-28.937168
 953	3.8120e+000	-77.796936	-28.794621
 954	3.8160e+000	-76.522827	-28.628087
 955	3.8200e+000	-75.447083	-28.473889
 956	3.8240e+000	-73.966980	-28.334768
 957	3.8280e+000	-73.242188	-28.167548
 958	3.8320e+000	-72.029114	-28.008553
 959	3.8360e+000	-70.823669	-27.846131
 960	3.8400e+000	-69.503784	-27.711122
 961	3.8440e+000	-68.237305	-27.494559
 962	3.8480e+000	-66.932678	-27.328710
 963	3.8520e+000	-65.902710	-27.147784
 964	3.8560e+000	-64.468384	-26.971656
 965	3.8600e+000	-63.392639	-26.778394
 966	3.8640e+000	-62.484741	-26.586503
 967	3.8680e+000	-60.997009	-26.403521
 968	3.8720e+000	-59.532166	-26.210260
 969	3.8760e+000	-58.799744	-25.993697
 970	3.8800e+000	-57.334900	-25.801121
 971	3.8840e+000	-56.251526	-25.581131
 972	3.8880e+000	-54.969788	-25.362512
 973	3.8920e+000	-53.794861	-25.133614
 974	3.8960e+000	-52.345276	-24.905401
 975	3.9000e+000	-51.574707	-24.683355
 976	3.9040e+000	-50.239563	-24.441435
 977	3.9080e+000	-49.194336	-24.242006
 978	3.9120e+000	-48.164368	-23.950743
 979	3.9160e+000	-46.684265	-23.693746
 980	3.9200e+000	-45.364380	-23.451826
 981	3.9240e+000	-44.410706	-23.185234
 982	3.9280e+000	-43.037415	-22.893286
 983	3.9320e+000	-42.045593	-22.632177
 984	3.9360e+000	-40.519714	-22.345711
 985	3.9400e+000	-39.787292	-22.056504
 986	3.9440e+000	-38.459778	-21.761129
 987	3.9480e+000	-37.055969	-21.439711
 988	3.9520e+000	-36.018372	-21.127203
 989	3.9560e+000	-34.690857	-20.775631
 990	3.9600e+000	-33.576965	-20.473403
 991	3.9640e+000	-32.287598	-20.120461
 992	3.9680e+000	-31.173706	-19.771630
 993	3.9720e+000	-29.922485	-19.419373
 994	3.9760e+000	-28.388977	-19.054780
 995	3.9800e+000	-27.420044	-18.679907
 996	3.9840e+000	-25.428772	-18.248152
 997	3.9880e+000	-24.879456	-17.886301
 998	3.9920e+000	-23.971558	-17.507316
 999	3.9960e+000	-22.583008	-17.098862
1000	4.0000e+000	-21.484375	-16.695206
1001	4.0040e+000	-20.462036	-16.261395
1002	4.0080e+000	-18.997192	-15.846088
1003	4.0120e+000	-17.951965	-15.389661
1004	4.0160e+000	-16.548157	-14.942144
1005	4.0200e+000	-15.449524	-14.457619
1006	4.0240e+000	-14.152527	-13.994339
1007	4.0280e+000	-13.175964	-13.496108
1008	4.0320e+000	-12.069702	-12.989653
1009	4.0360e+000	-10.902405	-12.448246
1010	4.0400e+000	-9.338379	-11.895874
1011	4.0440e+000	-8.132935	-11.355152
1012	4.0480e+000	-6.790161	-10.805521
1013	4.0520e+000	-5.943298	-10.188729
1014	4.0560e+000	-4.531860	-9.602090
1015	4.0600e+000	-3.562927	-8.988039
1016	4.0640e+000	-2.235413	-8.333554
1017	4.0680e+000	-1.258850	-7.643431
1018	4.0720e+000	0.366211	-6.948511
1019	4.0760e+000	1.289368	-6.231661
1020	4.0800e+000	2.548218	-5.491510
1021	4.0840e+000	3.631592	-4.746562
1022	4.0880e+000	4.943848	-3.935822
1023	4.0920e+000	5.943298	-3.122341
1024	4.0960e+000	6.980896	-2.267741
1025	4.1000e+000	8.445740	-1.392581
1026	4.1040e+000	9.597778	-0.520847
1027	4.1080e+000	10.894775	0.385838
1028	4.1120e+000	12.214661	1.348035
1029	4.1160e+000	13.099670	2.289671
1030	4.1200e+000	14.389038	3.297099
1031	4.1240e+000	15.769958	4.324402
1032	4.1280e+000	17.120361	5.346907
1033	4.1320e+000	18.264771	6.418755
1034	4.1360e+000	19.104004	7.482380
1035	4.1400e+000	20.179749	8.562452
1036	4.1440e+000	22.056580	9.692553
1037	4.1480e+000	22.544861	10.817857
1038	4.1520e+000	23.864746	11.961665
1039	4.1560e+000	25.230408	13.126032
1040	4.1600e+000	26.260376	14.298624
1041	4.1640e+000	27.626038	15.424613
1042	4.1680e+000	29.258728	16.647918
1043	4.1720e+000	29.762268	17.783502
1044	4.1760e+000	31.280518	18.930051
1045	4.1800e+000	32.585144	20.086194
1046	4.1840e+000	33.493042	21.219037
1047	4.1880e+000	34.866333	22.321725
1048	4.1920e+000	35.972595	23.289404
1049	4.1960e+000	37.254333	24.326986
1050	4.2000e+000	38.497925	25.238469
1051	4.2040e+000	39.634705	26.086216
1052	4.2080e+000	40.779114	26.876396
1053	4.2120e+000	41.961670	27.552126
1054	4.2160e+000	43.434143	28.183996
1055	4.2200e+000	44.685364	28.741851
1056	4.2240e+000	45.738220	29.225005
1057	4.2280e+000	46.897888	29.646480
1058	4.2320e+000	48.095703	30.019982
1059	4.2360e+000	49.438477	30.355791
1060	4.2400e+000	50.338745	30.663502
1061	4.2440e+000	51.811218	30.933520
1062	4.2480e+000	53.001404	31.209706
1063	4.2520e+000	53.886414	31.424899
1064	4.2560e+000	55.175781	31.624328
1065	4.2600e+000	56.465149	31.820331
1066	4.2640e+000	57.884216	31.989606
1067	4.2680e+000	59.005737	32.152714
1068	4.2720e+000	60.234070	32.304171
1069	4.2760e+000	60.806274	32.508398
1070	4.2800e+000	62.408447	32.608455
1071	4.2840e+000	63.850403	32.732499
1072	4.2880e+000	65.399170	32.909998
1073	4.2920e+000	66.207886	32.923705
1074	4.2960e+000	67.283630	33.055972
1075	4.3000e+000	68.161011	33.185499
1076	4.3040e+000	69.625854	33.247863
1077	4.3080e+000	71.022034	33.368481
1078	4.3120e+000	71.937561	33.452090
1079	4.3160e+000	73.326111	33.563798
1080	4.3200e+000	74.493408	33.631645
1081	4.3240e+000	75.721741	33.697437
1082	4.3280e+000	76.934814	33.787214
1083	4.3320e+000	78.239441	33.837243
1084	4.3360e+000	79.399109	33.925650
1085	4.3400e+000	80.718994	33.985959
1086	4.3440e+000	81.939697	34.067512
1087	4.3480e+000	82.672119	34.095611
1088	4.3520e+000	84.114075	34.180591
1089	4.3560e+000	85.655212	34.233361
1090	4.3600e+000	86.616516	34.332733
1091	4.3640e+000	87.951660	34.372482
1092	4.3680e+000	89.096069	34.432105
1093	4.3720e+000	89.981079	34.495155
1094	4.3760e+000	91.636658	34.541757
1095	4.3800e+000	92.514038	34.577394
1096	4.3840e+000	93.750000	34.638388
1097	4.3880e+000	95.016479	34.691158
1098	4.3920e+000	95.962524	34.726795
1099	4.3960e+000	96.969604	34.776824
1100	4.4000e+000	98.670959	34.830279
1101	4.4040e+000	99.876404	34.872769
1102	4.4080e+000	101.264954	34.923483
1103	4.4120e+000	102.409363	34.952952
1104	4.4160e+000	103.347778	35.020114
1105	4.4200e+000	104.423523	35.048212
1106	4.4240e+000	105.598450	35.086591
1107	4.4280e+000	106.925964	35.144843
1108	4.4320e+000	107.940674	35.177054
1109	4.4360e+000	108.810425	35.231880
1110	4.4400e+000	110.626221	35.264090
1111	4.4440e+000	112.030029	35.307265
1112	4.4480e+000	112.777710	35.332622
1113	4.4520e+000	114.212036	35.409379
1114	4.4560e+000	115.303040	35.436792
1115	4.4600e+000	116.325378	35.458722
1116	4.4640e+000	117.782593	35.532052
1117	4.4680e+000	119.056702	35.547815
1118	4.4720e+000	119.972229	35.586878
1119	4.4760e+000	121.383667	35.624571
1120	4.4800e+000	122.802734	35.645816
1121	4.4840e+000	123.458862	35.671858
1122	4.4880e+000	125.007629	35.717775
1123	4.4920e+000	126.411438	35.760265
1124	4.4960e+000	126.953125	35.776713
1125	4.5000e+000	128.379822	35.829483
1126	4.5040e+000	129.692078	35.855525
1127	4.5080e+000	130.912781	35.898016
1128	4.5120e+000	132.087708	35.913093
1129	4.5160e+000	133.239746	35.965863
1130	4.5200e+000	134.529114	35.998073
1131	4.5240e+000	135.856628	36.039878
1132	4.5280e+000	136.848450	36.062494
1133	4.5320e+000	138.130188	36.094704
1134	4.5360e+000	139.274597	36.121432
1135	4.5400e+000	140.228271	36.153642
1136	4.5440e+000	141.952515	36.201615
1137	4.5480e+000	142.883301	36.235196
1138	4.5520e+000	143.920898	36.239308
1139	4.5560e+000	145.195007	36.268091
1140	4.5600e+000	146.514893	36.332512
1141	4.5640e+000	147.552490	36.357869
1142	4.5680e+000	149.459839	36.365407
1143	4.5720e+000	149.749756	36.391450
1144	4.5760e+000	151.268005	36.429828
1145	4.5800e+000	152.473450	36.462038
1146	4.5840e+000	153.717041	36.498360
1147	4.5880e+000	155.067444	36.529885
1148	4.5920e+000	156.311035	36.561410
1149	4.5960e+000	157.379150	36.588823
1150	4.6000e+000	158.729553	36.628572
1151	4.6040e+000	159.614563	36.637481
1152	4.6080e+000	160.949707	36.687510
1153	4.6120e+000	162.025452	36.704643
1154	4.6160e+000	163.337708	36.721776
1155	4.6200e+000	164.443970	36.768379
1156	4.6240e+000	165.802002	36.786882
1157	4.6280e+000	166.831970	36.796477
1158	4.6320e+000	168.334961	36.839652
1159	4.6360e+000	169.235229	36.889681
1160	4.6400e+000	170.356750	36.891737
1161	4.6440e+000	171.646118	36.933542
1162	4.6480e+000	172.843933	36.949990
1163	4.6520e+000	174.110413	36.963011
1164	4.6560e+000	175.003052	36.990424
1165	4.6600e+000	176.536560	37.056215
1166	4.6640e+000	177.795410	37.039082
1167	4.6680e+000	179.199219	37.119265
1168	4.6720e+000	180.511475	37.155587
1169	4.6760e+000	181.358337	37.145307
1170	4.6800e+000	182.533264	37.172720
1171	4.6840e+000	183.410645	37.225490
1172	4.6880e+000	184.982300	37.239197
1173	4.6920e+000	186.180115	37.239197
1174	4.6960e+000	186.943054	37.265925
1175	4.7000e+000	188.476563	37.307044
1176	4.7040e+000	189.941406	37.322807
1177	4.7080e+000	190.681458	37.350220
1178	4.7120e+000	192.199707	37.368038
1179	4.7160e+000	193.321228	37.411214
1180	4.7200e+000	194.503784	37.431773
1181	4.7240e+000	195.999146	37.460557
1182	4.7280e+000	196.998596	37.485229
1183	4.7320e+000	198.165894	37.496879
1184	4.7360e+000	199.394226	37.530460
1185	4.7400e+000	200.592041	37.577748
1186	4.7440e+000	201.583862	37.581174
1187	4.7480e+000	203.063965	37.599678
1188	4.7520e+000	204.307556	37.633259
1189	4.7560e+000	205.513000	37.653819
1190	4.7600e+000	206.695557	37.651763
1191	4.7640e+000	207.633972	37.689456
1192	4.7680e+000	208.923340	37.768953
1193	4.7720e+000	210.021973	37.751135
1194	4.7760e+000	211.463928	37.773065
1195	4.7800e+000	212.577820	37.782660
1196	4.7840e+000	213.714600	37.827206
1197	4.7880e+000	214.775085	37.864213
1198	4.7920e+000	216.209412	37.873123
1199	4.7960e+000	217.170715	37.914242
1200	4.8000e+000	218.612671	37.919039
1201	4.8040e+000	219.749451	37.945767
1202	4.8080e+000	220.809937	37.965642
1203	4.8120e+000	222.198486	38.000593
1204	4.8160e+000	223.335266	37.992369
1205	4.8200e+000	224.433899	38.023209
1206	4.8240e+000	225.715637	38.034859
1207	4.8280e+000	226.982117	38.104077
1208	4.8320e+000	228.073120	38.108189
1209	4.8360e+000	229.469299	38.146567
1210	4.8400e+000	230.690002	38.149309
1211	4.8440e+000	232.200623	38.222638
1212	4.8480e+000	232.719421	38.196596
1213	4.8520e+000	234.359741	38.235660
1214	4.8560e+000	235.084534	38.269241
1215	4.8600e+000	236.755371	38.232233
1216	4.8640e+000	237.701416	38.295968
1217	4.8680e+000	239.013672	38.328179
1218	4.8720e+000	239.921570	38.354906
1219	4.8760e+000	241.638184	38.376837
1220	4.8800e+000	242.324829	38.386431
1221	4.8840e+000	243.690491	38.420012
1222	4.8880e+000	244.743347	38.479635
1223	4.8920e+000	246.154785	38.463873
1224	4.8960e+000	247.085571	38.491971
1225	4.9000e+000	248.313904	38.555021
1226	4.9040e+000	249.610901	38.528294
1227	4.9080e+000	250.907898	38.550909
1228	4.9120e+000	252.265930	38.592714
1229	4.9160e+000	253.501892	38.616700
1230	4.9200e+000	254.661560	38.616700
1231	4.9240e+000	255.180359	38.655079
1232	4.9280e+000	256.538391	38.652337
1233	4.9320e+000	258.201599	38.692772
1234	4.9360e+000	259.132385	38.714702
1235	4.9400e+000	260.505676	38.739374
1236	4.9440e+000	261.627197	38.755821
1237	4.9480e+000	263.076782	38.779808
1238	4.9520e+000	264.221191	38.779123
1239	4.9560e+000	265.357971	38.823669
1240	4.9600e+000	266.532898	38.841487
1241	4.9640e+000	267.623901	38.867529
1242	4.9680e+000	268.882751	38.891516
1243	4.9720e+000	270.301819	38.901796
1244	4.9760e+000	271.415710	38.934691
1245	4.9800e+000	272.529602	38.979923
1246	4.9840e+000	274.032593	38.995000
1247	4.9880e+000	274.887085	38.996371
1248	4.9920e+000	276.367188	39.023098
1249	4.9960e+000	277.366638	39.052567
1250	5.0000e+000	278.533936	39.073127
1251	5.0040e+000	279.922485	39.110820
1252	5.0080e+000	278.419495	39.084092
1253	5.0120e+000	277.244568	39.068330
1254	5.0160e+000	276.313782	39.058735
1255	5.0200e+000	274.917603	39.013504
1256	5.0240e+000	273.620605	38.998427
1257	5.0280e+000	272.254944	38.965531
1258	5.0320e+000	271.163940	38.954566
1259	5.0360e+000	269.859314	38.910705
1260	5.0400e+000	268.852234	38.920985
1261	5.0440e+000	267.608643	38.917558
1262	5.0480e+000	266.342163	38.866159
1263	5.0520e+000	265.296936	38.844914
1264	5.0560e+000	264.167786	38.844914
1265	5.0600e+000	263.038635	38.819557
1266	5.0640e+000	261.802673	38.791458
1267	5.0680e+000	260.452271	38.789402
1268	5.0720e+000	259.155273	38.750339
1269	5.0760e+000	258.003235	38.731835
1270	5.0800e+000	257.072449	38.716073
1271	5.0840e+000	255.676270	38.699625
1272	5.0880e+000	254.615784	38.676324
1273	5.0920e+000	253.486633	38.649596
1274	5.0960e+000	252.265930	38.634519
1275	5.1000e+000	251.083374	38.645484
1276	5.1040e+000	249.725342	38.587917
1277	5.1080e+000	248.680115	38.580378
1278	5.1120e+000	247.215271	38.574210
1279	5.1160e+000	245.956421	38.555021
1280	5.1200e+000	244.796753	38.516643
1281	5.1240e+000	243.812561	38.497454
1282	5.1280e+000	242.439270	38.492657
1283	5.1320e+000	240.776062	38.472782
1284	5.1360e+000	239.860535	38.436460
1285	5.1400e+000	239.013672	38.430292
1286	5.1440e+000	237.419128	38.387802
1287	5.1480e+000	236.442566	38.392599
1288	5.1520e+000	235.488892	38.330235
1289	5.1560e+000	233.711243	38.332976
1290	5.1600e+000	233.200073	38.298024
1291	5.1640e+000	231.750488	38.268555
1292	5.1680e+000	230.522156	38.269241
1293	5.1720e+000	229.278564	38.246625
1294	5.1760e+000	228.172302	38.211673
1295	5.1800e+000	226.860046	38.204135
1296	5.1840e+000	225.524902	38.154791
1297	5.1880e+000	224.418640	38.143141
1298	5.1920e+000	223.197937	38.126008
1299	5.1960e+000	222.213745	38.132861
1300	5.2000e+000	220.733643	38.095853
1301	5.2040e+000	219.772339	38.067070
1302	5.2080e+000	218.597412	38.038971
1303	5.2120e+000	217.422485	38.019097
1304	5.2160e+000	216.056824	37.997167
1305	5.2200e+000	215.019226	37.984831
1306	5.2240e+000	213.638306	37.960159
1307	5.2280e+000	212.524414	37.938914
1308	5.2320e+000	211.334229	37.905333
1309	5.2360e+000	210.006714	37.907389
1310	5.2400e+000	208.946228	37.870381
1311	5.2440e+000	207.801819	37.849822
1312	5.2480e+000	206.382751	37.783345
1313	5.2520e+000	205.451965	37.808702
1314	5.2560e+000	204.185486	37.771009
1315	5.2600e+000	202.934265	37.771695
1316	5.2640e+000	201.950073	37.740170
1317	5.2680e+000	200.569153	37.696994
1318	5.2720e+000	199.249268	37.699050
1319	5.2760e+000	198.326111	37.689456
1320	5.2800e+000	196.914673	37.653133
1321	5.2840e+000	195.709229	37.622294
1322	5.2880e+000	194.587708	37.606531
1323	5.2920e+000	193.405151	37.569524
1324	5.2960e+000	192.222595	37.577748
1325	5.3000e+000	191.062927	37.544852
1326	5.3040e+000	189.544678	37.531831
1327	5.3080e+000	188.400269	37.493453
1328	5.3120e+000	187.606812	37.513327
1329	5.3160e+000	186.286926	37.455760
1330	5.3200e+000	185.180664	37.416696
1331	5.3240e+000	183.784485	37.413270
1332	5.3280e+000	182.411194	37.394766
1333	5.3320e+000	181.282043	37.341310
1334	5.3360e+000	179.954529	37.337884
1335	5.3400e+000	179.039001	37.300191
1336	5.3440e+000	178.047180	37.291967
1337	5.3480e+000	176.467896	37.252218
1338	5.3520e+000	175.315857	37.243309
1339	5.3560e+000	174.293518	37.212469
1340	5.3600e+000	173.027039	37.196707
1341	5.3640e+000	171.722412	37.165867
1342	5.3680e+000	170.722961	37.137769
1343	5.3720e+000	169.532776	37.129545
1344	5.3760e+000	167.938232	37.085684
1345	5.3800e+000	166.954041	37.066495
1346	5.3840e+000	165.641785	37.034285
1347	5.3880e+000	164.413452	37.008242
1348	5.3920e+000	163.192749	36.983571
1349	5.3960e+000	162.132263	36.959584
1350	5.4000e+000	160.865784	36.936969
1351	5.4040e+000	159.683228	36.919150
1352	5.4080e+000	158.470154	36.898590
1353	5.4120e+000	157.135010	36.878716
1354	5.4160e+000	156.448364	36.854730
1355	5.4200e+000	155.105591	36.814295
1356	5.4240e+000	153.648376	36.765637
1357	5.4280e+000	152.427673	36.769064
1358	5.4320e+000	151.145935	36.749189
1359	5.4360e+000	150.207520	36.732742
1360	5.4400e+000	149.177551	36.694363
1361	5.4440e+000	147.987366	36.681342
1362	5.4480e+000	146.629333	36.649817
1363	5.4520e+000	145.538330	36.635425
1364	5.4560e+000	144.081116	36.593621
1365	5.4600e+000	142.837524	36.584026
1366	5.4640e+000	141.899109	36.537424
1367	5.4680e+000	140.495300	36.521662
1368	5.4720e+000	139.404297	36.500416
1369	5.4760e+000	138.183594	36.438052
1370	5.4800e+000	137.084961	36.440793
1371	5.4840e+000	135.856628	36.410639
1372	5.4880e+000	134.689331	36.375687
1373	5.4920e+000	133.232117	36.374317
1374	5.4960e+000	132.293701	36.314693
1375	5.5000e+000	131.134033	36.306469
1376	5.5040e+000	129.661560	36.260553
1377	5.5080e+000	128.417969	36.266721
1378	5.5120e+000	127.182007	36.193391
1379	5.5160e+000	126.258850	36.188594
1380	5.5200e+000	124.855042	36.149530
1381	5.5240e+000	123.657227	36.137879
1382	5.5280e+000	122.711182	36.118005
1383	5.5320e+000	121.452332	36.089221
1384	5.5360e+000	120.071411	36.046731
1385	5.5400e+000	119.346619	36.025486
1386	5.5440e+000	117.759705	36.021374
1387	5.5480e+000	116.630554	35.994646
1388	5.5520e+000	115.226746	35.943932
1389	5.5560e+000	114.013672	35.929541
1390	5.5600e+000	113.128662	35.895960
1391	5.5640e+000	111.907959	35.858952
1392	5.5680e+000	110.565186	35.845931
1393	5.5720e+000	109.390259	35.815091
1394	5.5760e+000	108.222961	35.786993
1395	5.5800e+000	106.651306	35.750671
1396	5.5840e+000	105.827332	35.725999
1397	5.5880e+000	104.835510	35.684194
1398	5.5920e+000	103.454590	35.665690
1399	5.5960e+000	102.371216	35.630054
1400	5.6000e+000	100.982666	35.599214
1401	5.6040e+000	100.067139	35.570430
1402	5.6080e+000	98.754883	35.537535
1403	5.6120e+000	97.137451	35.532737
1404	5.6160e+000	96.015930	35.479967
1405	5.6200e+000	94.863892	35.455296
1406	5.6240e+000	93.452454	35.399784
1407	5.6280e+000	92.575073	35.415547
1408	5.6320e+000	90.843201	35.380595
1409	5.6360e+000	89.935303	35.329881
1410	5.6400e+000	89.370728	35.305895
1411	5.6440e+000	87.776184	35.262034
1412	5.6480e+000	86.402893	35.225712
1413	5.6520e+000	85.441589	35.197613
1414	5.6560e+000	84.205627	35.177054
1415	5.6600e+000	82.359314	35.144843
1416	5.6640e+000	81.581116	35.109206
1417	5.6680e+000	80.596924	35.054380
1418	5.6720e+000	79.429626	35.021485
1419	5.6760e+000	77.949524	35.013261
1420	5.6800e+000	76.774597	34.968029
1421	5.6840e+000	75.569153	34.911147
1422	5.6880e+000	74.813843	34.904294
1423	5.6920e+000	73.272705	34.862489
1424	5.6960e+000	72.036743	34.834391
1425	5.7000e+000	71.037292	34.778194
1426	5.7040e+000	69.931030	34.759691
1427	5.7080e+000	68.412781	34.720627
1428	5.7120e+000	67.543030	34.675396
1429	5.7160e+000	65.994263	34.642500
1430	5.7200e+000	65.063477	34.601381
1431	5.7240e+000	63.446045	34.545184
1432	5.7280e+000	62.553406	34.524624
1433	5.7320e+000	61.447144	34.484875
1434	5.7360e+000	60.180664	34.445126
1435	5.7400e+000	58.990479	34.402636
1436	5.7440e+000	57.929993	34.377965
1437	5.7480e+000	56.594849	34.335474
1438	5.7520e+000	55.137634	34.282704
1439	5.7560e+000	54.214478	34.255977
1440	5.7600e+000	52.879333	34.220340
1441	5.7640e+000	51.628113	34.147695
1442	5.7680e+000	50.605774	34.118912
1443	5.7720e+000	49.247742	34.062715
1444	5.7760e+000	47.973633	34.022281
1445	5.7800e+000	46.455383	33.981161
1446	5.7840e+000	45.913696	33.927021
1447	5.7880e+000	44.364929	33.884530
1448	5.7920e+000	43.365479	33.863971
1449	5.7960e+000	42.053223	33.807089
1450	5.8000e+000	40.679932	33.743353
1451	5.8040e+000	39.794922	33.699493
1452	5.8080e+000	38.536072	33.596009
1453	5.8120e+000	37.132263	33.580931
1454	5.8160e+000	35.865784	33.530217
1455	5.8200e+000	34.919739	33.487727
1456	5.8240e+000	33.584595	33.386299
1457	5.8280e+000	32.356262	33.369166
1458	5.8320e+000	31.425476	33.299263
1459	5.8360e+000	30.220032	33.258143
1460	5.8400e+000	28.945923	33.179331
1461	5.8440e+000	27.740479	33.086812
1462	5.8480e+000	26.626587	33.060084
1463	5.8520e+000	25.321960	32.991552
1464	5.8560e+000	23.597717	32.917537
1465	5.8600e+000	22.979736	32.785954
1466	5.8640e+000	21.720886	32.759912
1467	5.8680e+000	20.477295	32.679044
1468	5.8720e+000	19.409180	32.611882
1469	5.8760e+000	18.051147	32.511824
1470	5.8800e+000	17.044067	32.436438
1471	5.8840e+000	15.777588	32.333640
1472	5.8880e+000	14.389038	32.250030
1473	5.8920e+000	13.267517	32.100629
1474	5.8960e+000	12.535095	32.026614
1475	5.9000e+000	10.986328	31.925871
1476	5.9040e+000	9.765625	31.781268
1477	5.9080e+000	8.323669	31.646259
1478	5.9120e+000	7.148743	31.501655
1479	5.9160e+000	5.943298	31.329638
1480	5.9200e+000	4.814148	31.201483
1481	5.9240e+000	3.562927	30.991773
1482	5.9280e+000	2.227783	30.860191
1483	5.9320e+000	1.190186	30.648425
1484	5.9360e+000	0.289917	30.411303
1485	5.9400e+000	-1.022339	30.186516
1486	5.9440e+000	-2.273560	29.885658
1487	5.9480e+000	-3.616333	29.614955
1488	5.9520e+000	-4.776001	29.293537
1489	5.9560e+000	-5.714417	28.949504
1490	5.9600e+000	-7.255554	28.560239
1491	5.9640e+000	-8.224487	28.123687
1492	5.9680e+000	-9.651184	27.615861
1493	5.9720e+000	-10.681152	27.064175
1494	5.9760e+000	-11.848450	26.496726
1495	5.9800e+000	-13.221741	25.816198
1496	5.9840e+000	-14.358521	25.088382
1497	5.9880e+000	-15.495300	24.316021
1498	5.9920e+000	-16.098022	23.431952
1499	5.9960e+000	-17.883301	22.441657
1500	6.0000e+000	-18.913269	21.367752
1501	6.0040e+000	-20.622253	20.268491
1502	6.0080e+000	-21.293640	19.037647
1503	6.0120e+000	-22.697449	17.771166
1504	6.0160e+000	-23.948669	16.410110
1505	6.0200e+000	-24.879456	14.954480
1506	6.0240e+000	-26.008606	13.461842
1507	6.0280e+000	-27.366638	11.936308
1508	6.0320e+000	-28.518677	10.349780
1509	6.0360e+000	-29.731750	8.753658
1510	6.0400e+000	-30.982971	7.208935
1511	6.0440e+000	-31.982422	5.672436
1512	6.0480e+000	-33.340454	4.159238
1513	6.0520e+000	-34.553528	2.712517
1514	6.0560e+000	-35.713196	1.324733
1515	6.0600e+000	-36.903381	-0.007539
1516	6.0640e+000	-38.314819	-1.268537
1517	6.0680e+000	-39.497375	-2.393155
1518	6.0720e+000	-40.573120	-3.491046
1519	6.0760e+000	-41.755676	-4.492306
1520	6.0800e+000	-42.907715	-5.497678
1521	6.0840e+000	-44.029236	-6.393398
1522	6.0880e+000	-45.303345	-7.247313
1523	6.0920e+000	-46.447754	-8.064906
1524	6.0960e+000	-47.782898	-8.798204
1525	6.1000e+000	-49.095154	-9.563027
1526	6.1040e+000	-50.117493	-10.237387
1527	6.1080e+000	-51.345825	-10.910376
1528	6.1120e+000	-52.680969	-11.568288
1529	6.1160e+000	-53.840637	-12.187137
1530	6.1200e+000	-55.351257	-12.772404
1531	6.1240e+000	-56.312561	-13.327518
1532	6.1280e+000	-57.464600	-13.883316
1533	6.1320e+000	-58.853149	-14.422667
1534	6.1360e+000	-59.928894	-14.933920
1535	6.1400e+000	-60.379028	-15.425298
1536	6.1440e+000	-62.461853	-15.912564
1537	6.1480e+000	-63.842773	-16.366249
1538	6.1520e+000	-64.582825	-16.814452
1539	6.1560e+000	-65.849304	-17.230444
1540	6.1600e+000	-67.268372	-17.673850
1541	6.1640e+000	-68.328857	-18.060373
1542	6.1680e+000	-69.633484	-18.462659
1543	6.1720e+000	-70.701599	-18.852609
1544	6.1760e+000	-71.647644	-19.199384
1545	6.1800e+000	-72.952271	-19.540675
1546	6.1840e+000	-73.997498	-19.886765
1547	6.1880e+000	-75.225830	-20.224630
1548	6.1920e+000	-76.477051	-20.609097
1549	6.1960e+000	-77.720642	-20.871577
1550	6.2000e+000	-79.086304	-21.197792
1551	6.2040e+000	-80.123901	-21.486313
1552	6.2080e+000	-81.634521	-21.789913
1553	6.2120e+000	-82.618713	-22.065413
1554	6.2160e+000	-83.602905	-22.332690
1555	6.2200e+000	-84.907532	-22.604764
1556	6.2240e+000	-86.265564	-22.900825
1557	6.2280e+000	-87.234497	-23.154395
1558	6.2320e+000	-89.202881	-23.474442
1559	6.2360e+000	-89.912415	-23.651941
1560	6.2400e+000	-91.072083	-23.893861
1561	6.2440e+000	-92.315674	-24.139207
1562	6.2480e+000	-93.368530	-24.403057
1563	6.2520e+000	-94.505310	-24.610711
1564	6.2560e+000	-95.870972	-24.858798
1565	6.2600e+000	-96.878052	-25.096606
1566	6.2640e+000	-98.358154	-25.291924
1567	6.2680e+000	-99.426270	-25.494095
1568	6.2720e+000	-100.593567	-25.707231
1569	6.2760e+000	-101.821899	-25.939556
1570	6.2800e+000	-103.042603	-26.137615
1571	6.2840e+000	-103.973389	-26.309632
1572	6.2880e+000	-105.438232	-26.540586
1573	6.2920e+000	-106.674194	-26.711918
1574	6.2960e+000	-107.872009	-26.899011
1575	6.3000e+000	-109.031677	-27.073084
1576	6.3040e+000	-110.099792	-27.283479
1577	6.3080e+000	-111.534119	-27.460978
1578	6.3120e+000	-112.510681	-27.657666
1579	6.3160e+000	-113.800049	-27.777598
1580	6.3200e+000	-115.142822	-27.972916
1581	6.3240e+000	-116.241455	-28.157954
1582	6.3280e+000	-117.233276	-28.287480
1583	6.3320e+000	-118.698120	-28.473889
1584	6.3360e+000	-119.873047	-28.641793
1585	6.3400e+000	-121.078491	-28.799418
1586	6.3440e+000	-122.619629	-28.950875
1587	6.3480e+000	-123.313904	-29.117409
1588	6.3520e+000	-124.610901	-29.252418
1589	6.3560e+000	-126.014709	-29.411413
1590	6.3600e+000	-126.976013	-29.553276
1591	6.3640e+000	-128.028870	-29.703362
1592	6.3680e+000	-129.745483	-29.852763
1593	6.3720e+000	-130.432129	-29.947338
1594	6.3760e+000	-131.652832	-30.107018
1595	6.3800e+000	-133.323669	-30.241342
1596	6.3840e+000	-134.330750	-30.398967
1597	6.3880e+000	-135.772705	-30.516157
1598	6.3920e+000	-136.383057	-30.618956
1599	6.3960e+000	-137.840271	-30.773154
1600	6.4000e+000	-138.916016	-30.881436
1601	6.4040e+000	-140.335083	-31.002053
1602	6.4080e+000	-140.960693	-31.093886
1603	6.4120e+000	-142.662048	-31.267274
1604	6.4160e+000	-143.783569	-31.376926
1605	6.4200e+000	-145.095825	-31.481781
1606	6.4240e+000	-146.240234	-31.616790
1607	6.4280e+000	-147.140503	-31.715476
1608	6.4320e+000	-148.300171	-31.833352
1609	6.4360e+000	-150.154114	-31.947116
1610	6.4400e+000	-150.825500	-32.054712
1611	6.4440e+000	-152.030945	-32.155455
1612	6.4480e+000	-153.366089	-32.234268
1613	6.4520e+000	-154.670715	-32.369962
1614	6.4560e+000	-155.799866	-32.471390
1615	6.4600e+000	-156.738281	-32.569391
1616	6.4640e+000	-158.317566	-32.654372
1617	6.4680e+000	-159.767151	-32.769506
1618	6.4720e+000	-160.522461	-32.873676
1619	6.4760e+000	-161.857605	-32.959341
1620	6.4800e+000	-162.902832	-33.038839
1621	6.4840e+000	-164.176941	-33.134785
1622	6.4880e+000	-165.718079	-33.268423
1623	6.4920e+000	-166.442871	-33.329417
1624	6.4960e+000	-167.839050	-33.406173
1625	6.5000e+000	-169.052124	-33.502804
1626	6.5040e+000	-170.074463	-33.589841
1627	6.5080e+000	-171.485901	-33.664541
1628	6.5120e+000	-172.554016	-33.744724
1629	6.5160e+000	-173.759460	-33.813257
1630	6.5200e+000	-175.048828	-33.900978
1631	6.5240e+000	-176.483154	-34.004462
1632	6.5280e+000	-177.528381	-34.072995
1633	6.5320e+000	-178.276062	-34.158660
1634	6.5360e+000	-179.840088	-34.218284
1635	6.5400e+000	-181.175232	-34.286816
1636	6.5440e+000	-182.121277	-34.351237
1637	6.5480e+000	-183.357239	-34.443070
1638	6.5520e+000	-184.425354	-34.521197
1639	6.5560e+000	-185.890198	-34.577394
1640	6.5600e+000	-187.011719	-34.650039
1641	6.5640e+000	-188.522339	-34.717886
1642	6.5680e+000	-189.262390	-34.792586
1643	6.5720e+000	-190.536499	-34.847412
1644	6.5760e+000	-191.833496	-34.902924
1645	6.5800e+000	-192.817688	-34.980365
1646	6.5840e+000	-194.480896	-35.097556
1647	6.5880e+000	-195.396423	-35.107836
1648	6.5920e+000	-196.556091	-35.158550
1649	6.5960e+000	-197.738647	-35.230509
1650	6.6000e+000	-199.050903	-35.288762
1651	6.6040e+000	-200.393677	-35.318916
1652	6.6080e+000	-201.072693	-35.419659
1653	6.6120e+000	-202.438354	-35.479967
1654	6.6160e+000	-203.796387	-35.521087
1655	6.6200e+000	-204.895020	-35.567004
1656	6.6240e+000	-206.275940	-35.619088
1657	6.6280e+000	-207.534790	-35.692418
1658	6.6320e+000	-208.404541	-35.740391
1659	6.6360e+000	-209.945679	-35.778769
1660	6.6400e+000	-210.769653	-35.837022
1661	6.6440e+000	-212.265015	-35.906925
1662	6.6480e+000	-213.745117	-35.932967
1663	6.6520e+000	-214.607239	-35.990535
1664	6.6560e+000	-215.728760	-36.050843
1665	6.6600e+000	-217.010498	-36.095389
1666	6.6640e+000	-218.437195	-36.124858
1667	6.6680e+000	-219.482422	-36.176943
1668	6.6720e+000	-220.695496	-36.229713
1669	6.6760e+000	-221.832275	-36.275630
1670	6.6800e+000	-222.923279	-36.307155
1671	6.6840e+000	-224.151611	-36.354442
1672	6.6880e+000	-225.517273	-36.431199
1673	6.6920e+000	-226.486206	-36.469577
1674	6.6960e+000	-227.905273	-36.473003
1675	6.7000e+000	-228.988647	-36.551131
1676	6.7040e+000	-229.942322	-36.597733
1677	6.7080e+000	-231.491089	-36.612124
1678	6.7120e+000	-232.627869	-36.658041
1679	6.7160e+000	-233.703613	-36.705329
1680	6.7200e+000	-234.848022	-36.773861
1681	6.7240e+000	-236.198425	-36.788253
1682	6.7280e+000	-237.106323	-36.811554
1683	6.7320e+000	-238.807678	-36.860897
1684	6.7360e+000	-239.852905	-36.899276
1685	6.7400e+000	-241.119385	-36.936969
1686	6.7440e+000	-242.309570	-36.966438
1687	6.7480e+000	-243.484497	-37.032229
1688	6.7520e+000	-244.598389	-37.056900
1689	6.7560e+000	-245.964050	-37.078146
1690	6.7600e+000	-247.123718	-37.122006
1691	6.7640e+000	-248.138428	-37.169979
1692	6.7680e+000	-249.290466	-37.195336
1693	6.7720e+000	-250.717163	-37.254959
1694	6.7760e+000	-251.731873	-37.284428
1695	6.7800e+000	-252.937317	-37.316639
1696	6.7840e+000	-254.196167	-37.335142
1697	6.7880e+000	-255.668640	-37.374206
1698	6.7920e+000	-256.523132	-37.381059
1699	6.7960e+000	-257.690430	-37.455074
1700	6.8000e+000	-259.025574	-37.491397
1701	6.8040e+000	-260.375977	-37.514012
1702	6.8080e+000	-261.383057	-37.545537
1703	6.8120e+000	-262.557983	-37.607217
1704	6.8160e+000	-263.816833	-37.627091
1705	6.8200e+000	-264.831543	-37.637371
1706	6.8240e+000	-265.930176	-37.697679
1707	6.8280e+000	-267.242432	-37.732631
1708	6.8320e+000	-268.577576	-37.755932
1709	6.8360e+000	-269.660950	-37.780604
1710	6.8400e+000	-271.057129	-37.815555
1711	6.8440e+000	-272.453308	-37.868325
1712	6.8480e+000	-273.361206	-37.897109
1713	6.8520e+000	-274.406433	-37.918354
1714	6.8560e+000	-275.863647	-37.959474
1715	6.8600e+000	-277.183533	-37.988257
1716	6.8640e+000	-278.343201	-38.017041
1717	6.8680e+000	-279.281616	-38.045825
1718	6.8720e+000	-280.288696	-38.088315
1719	6.8760e+000	-281.646729	-38.104763
1720	6.8800e+000	-282.943726	-38.144511
1721	6.8840e+000	-284.034729	-38.170554
1722	6.8880e+000	-285.369873	-38.206191
1723	6.8920e+000	-286.651611	-38.258275
1724	6.8960e+000	-287.513733	-38.267870
1725	6.9000e+000	-289.077759	-38.304192
1726	6.9040e+000	-290.084839	-38.346682
1727	6.9080e+000	-291.320801	-38.368613
1728	6.9120e+000	-292.793274	-38.399452
1729	6.9160e+000	-293.746948	-38.427551
1730	6.9200e+000	-294.944763	-38.489230
1731	6.9240e+000	-296.287537	-38.489230
1732	6.9280e+000	-297.447205	-38.513216
1733	6.9320e+000	-298.683167	-38.546797
1734	6.9360e+000	-299.644470	-38.580378
1735	6.9400e+000	-300.979614	-38.597511
1736	6.9440e+000	-302.162170	-38.663988
1737	6.9480e+000	-303.482056	-38.672212
1738	6.9520e+000	-304.557800	-38.714017
1739	6.9560e+000	-305.587769	-38.744171
1740	6.9600e+000	-307.014465	-38.784605
1741	6.9640e+000	-308.250427	-38.803109
1742	6.9680e+000	-309.387207	-38.836004
1743	6.9720e+000	-310.737610	-38.851082
1744	6.9760e+000	-311.584473	-38.895628
1745	6.9800e+000	-313.018799	-38.939489
1746	6.9840e+000	-314.155579	-38.954566
1747	6.9880e+000	-315.315247	-38.975125
1748	6.9920e+000	-316.711426	-39.034749
1749	6.9960e+000	-317.672729	-39.050511
1750	7.0000e+000	-318.946838	-39.089575
1751	7.0040e+000	-320.404053	-39.110820
1752	7.0080e+000	-319.145203	-39.098484
1753	7.0120e+000	-317.840576	-39.088889
1754	7.0160e+000	-316.497803	-39.038861
1755	7.0200e+000	-315.277100	-39.047085
1756	7.0240e+000	-314.025879	-39.036805
1757	7.0280e+000	-312.995911	-39.036119
1758	7.0320e+000	-311.508179	-38.990203
1759	7.0360e+000	-310.783386	-38.968958
1760	7.0400e+000	-309.326172	-38.974440
1761	7.0440e+000	-308.258057	-38.932635
1762	7.0480e+000	-306.991577	-38.931265
1763	7.0520e+000	-305.816650	-38.925782
1764	7.0560e+000	-304.138184	-38.881236
1765	7.0600e+000	-303.138733	-38.877124
1766	7.0640e+000	-302.177429	-38.836690
1767	7.0680e+000	-300.964355	-38.840116
1768	7.0720e+000	-299.598694	-38.832578
1769	7.0760e+000	-298.599243	-38.794200
1770	7.0800e+000	-297.363281	-38.772269
1771	7.0840e+000	-296.119690	-38.732520
1772	7.0880e+000	-294.975281	-38.752395
1773	7.0920e+000	-293.869019	-38.717443
1774	7.0960e+000	-292.526245	-38.702366
1775	7.1000e+000	-291.625977	-38.672897
1776	7.1040e+000	-290.016174	-38.677694
1777	7.1080e+000	-288.772583	-38.633834
1778	7.1120e+000	-287.834167	-38.663303
1779	7.1160e+000	-286.643982	-38.609847
1780	7.1200e+000	-285.446167	-38.586546
1781	7.1240e+000	-284.080505	-38.564616
1782	7.1280e+000	-283.111572	-38.585175
1783	7.1320e+000	-281.608582	-38.532405
1784	7.1360e+000	-280.548096	-38.498825
1785	7.1400e+000	-279.327393	-38.492657
1786	7.1440e+000	-278.129578	-38.461817
1787	7.1480e+000	-276.824951	-38.414530
1788	7.1520e+000	-275.764465	-38.404935
1789	7.1560e+000	-274.520874	-38.375466
1790	7.1600e+000	-273.406982	-38.356962
1791	7.1640e+000	-272.140503	-38.371354
1792	7.1680e+000	-270.736694	-38.304878
1793	7.1720e+000	-269.912720	-38.297339
1794	7.1760e+000	-268.508911	-38.270611
1795	7.1800e+000	-267.120361	-38.254163
1796	7.1840e+000	-266.105652	-38.230862
1797	7.1880e+000	-264.862061	-38.209617
1798	7.1920e+000	-263.648987	-38.183575
1799	7.1960e+000	-262.832642	-38.140399
1800	7.2000e+000	-261.352539	-38.140399
1801	7.2040e+000	-260.177612	-38.117098
1802	7.2080e+000	-258.865356	-38.089000
1803	7.2120e+000	-257.812500	-38.063643
1804	7.2160e+000	-256.515503	-38.028691
1805	7.2200e+000	-255.432129	-38.030062
1806	7.2240e+000	-254.241943	-37.990999
1807	7.2280e+000	-252.883911	-37.957418
1808	7.2320e+000	-251.731873	-37.945082
1809	7.2360e+000	-250.282288	-37.903277
1810	7.2400e+000	-249.351501	-37.909445
1811	7.2440e+000	-248.123169	-37.865584
1812	7.2480e+000	-246.955872	-37.856675
1813	7.2520e+000	-245.742798	-37.840227
1814	7.2560e+000	-244.407654	-37.781974
1815	7.2600e+000	-243.545532	-37.756617
1816	7.2640e+000	-242.034912	-37.736743
1817	7.2680e+000	-241.043091	-37.717554
1818	7.2720e+000	-239.685059	-37.690141
1819	7.2760e+000	-238.739014	-37.661357
1820	7.2800e+000	-237.442017	-37.631203
1821	7.2840e+000	-235.946655	-37.621608
1822	7.2880e+000	-235.176086	-37.584601
1823	7.2920e+000	-233.680725	-37.561300
1824	7.2960e+000	-232.505798	-37.504418
1825	7.3000e+000	-231.254578	-37.514012
1826	7.3040e+000	-230.049133	-37.493453
1827	7.3080e+000	-228.744507	-37.426976
1828	7.3120e+000	-227.699280	-37.432459
1829	7.3160e+000	-226.379395	-37.377633
1830	7.3200e+000	-225.440979	-37.381059
1831	7.3240e+000	-224.052429	-37.328975
1832	7.3280e+000	-222.900391	-37.320751
1833	7.3320e+000	-221.862793	-37.283743
1834	7.3360e+000	-220.626831	-37.252218
1835	7.3400e+000	-219.512939	-37.204245
1836	7.3440e+000	-217.979431	-37.202875
1837	7.3480e+000	-217.025757	-37.171350
1838	7.3520e+000	-215.652466	-37.148734
1839	7.3560e+000	-214.714050	-37.124062
1840	7.3600e+000	-213.233948	-37.098020
1841	7.3640e+000	-212.104797	-37.045935
1842	7.3680e+000	-210.868835	-37.024690
1843	7.3720e+000	-209.800720	-36.997962
1844	7.3760e+000	-208.419800	-36.968494
1845	7.3800e+000	-207.290649	-36.931486
1846	7.3840e+000	-206.375122	-36.904073
1847	7.3880e+000	-204.780579	-36.886940
1848	7.3920e+000	-203.750610	-36.836911
1849	7.3960e+000	-202.629089	-36.808127
1850	7.4000e+000	-201.393127	-36.767693
1851	7.4040e+000	-199.882507	-36.755357
1852	7.4080e+000	-198.913574	-36.704643
1853	7.4120e+000	-197.601318	-36.666265
1854	7.4160e+000	-196.647644	-36.631314
1855	7.4200e+000	-195.365906	-36.629943
1856	7.4240e+000	-194.030762	-36.578544
1857	7.4280e+000	-193.046570	-36.547019
1858	7.4320e+000	-191.772461	-36.509326
1859	7.4360e+000	-190.567017	-36.489451
1860	7.4400e+000	-189.178467	-36.436681
1861	7.4440e+000	-187.957764	-36.376373
1862	7.4480e+000	-186.759949	-36.372261
1863	7.4520e+000	-185.844421	-36.343477
1864	7.4560e+000	-184.776306	-36.300302
1865	7.4600e+000	-183.319092	-36.268091
1866	7.4640e+000	-182.136536	-36.233825
1867	7.4680e+000	-180.809021	-36.173516
1868	7.4720e+000	-179.496765	-36.146103
1869	7.4760e+000	-178.405762	-36.104984
1870	7.4800e+000	-177.223206	-36.071403
1871	7.4840e+000	-176.246643	-36.030969
1872	7.4880e+000	-174.987793	-35.988479
1873	7.4920e+000	-173.919678	-35.975457
1874	7.4960e+000	-172.584534	-35.917890
1875	7.5000e+000	-171.226501	-35.865120
1876	7.5040e+000	-170.219421	-35.814406
1877	7.5080e+000	-168.952942	-35.792476
1878	7.5120e+000	-167.007446	-35.747244
1879	7.5160e+000	-166.389465	-35.702698
1880	7.5200e+000	-165.344238	-35.648557
1881	7.5240e+000	-164.276123	-35.624571
1882	7.5280e+000	-162.925720	-35.564948
1883	7.5320e+000	-161.575317	-35.534793
1884	7.5360e+000	-160.469055	-35.475170
1885	7.5400e+000	-159.034729	-35.427197
1886	7.5440e+000	-158.042908	-35.394302
1887	7.5480e+000	-156.898499	-35.331252
1888	7.5520e+000	-155.364990	-35.285335
1889	7.5560e+000	-154.693604	-35.218858
1890	7.5600e+000	-153.297424	-35.177739
1891	7.5640e+000	-152.259827	-35.143473
1892	7.5680e+000	-150.833130	-35.085220
1893	7.5720e+000	-149.810791	-35.026282
1894	7.5760e+000	-148.437500	-34.974883
1895	7.5800e+000	-147.354126	-34.921427
1896	7.5840e+000	-146.217346	-34.871399
1897	7.5880e+000	-144.866943	-34.796013
1898	7.5920e+000	-143.814087	-34.747355
1899	7.5960e+000	-142.601013	-34.701438
1900	7.6000e+000	-141.380310	-34.641129
1901	7.6040e+000	-140.106201	-34.586303
1902	7.6080e+000	-138.816833	-34.508176
1903	7.6120e+000	-137.565613	-34.427993
1904	7.6160e+000	-136.459351	-34.371797
1905	7.6200e+000	-135.528564	-34.303264
1906	7.6240e+000	-134.246826	-34.249123
1907	7.6280e+000	-132.934570	-34.185388
1908	7.6320e+000	-132.080078	-34.117541
1909	7.6360e+000	-130.683899	-34.022281
1910	7.6400e+000	-129.432678	-33.962657
1911	7.6440e+000	-128.166199	-33.890013
1912	7.6480e+000	-126.686096	-33.820795
1913	7.6520e+000	-125.572205	-33.753633
1914	7.6560e+000	-124.443054	-33.666597
1915	7.6600e+000	-123.168945	-33.605603
1916	7.6640e+000	-121.902466	-33.515140
1917	7.6680e+000	-120.765686	-33.421251
1918	7.6720e+000	-120.002747	-33.362313
1919	7.6760e+000	-118.423462	-33.230730
1920	7.6800e+000	-117.370605	-33.168366
1921	7.6840e+000	-116.119385	-33.081329
1922	7.6880e+000	-115.074158	-33.011426
1923	7.6920e+000	-113.609314	-32.916851
1924	7.6960e+000	-112.396240	-32.818165
1925	7.7000e+000	-111.625671	-32.724960
1926	7.7040e+000	-110.122681	-32.634497
1927	7.7080e+000	-108.688354	-32.546776
1928	7.7120e+000	-107.734680	-32.444662
1929	7.7160e+000	-106.445313	-32.357626
1930	7.7200e+000	-105.499268	-32.252086
1931	7.7240e+000	-104.446411	-32.151343
1932	7.7280e+000	-102.890015	-32.021817
1933	7.7320e+000	-101.623535	-31.909423
1934	7.7360e+000	-100.852966	-31.831296
1935	7.7400e+000	-99.143982	-31.716847
1936	7.7440e+000	-98.342896	-31.608566
1937	7.7480e+000	-97.007751	-31.490690
1938	7.7520e+000	-95.695496	-31.392688
1939	7.7560e+000	-94.657898	-31.250826
1940	7.7600e+000	-93.414307	-31.141859
1941	7.7640e+000	-92.231750	-31.023298
1942	7.7680e+000	-90.858459	-30.908849
1943	7.7720e+000	-90.141296	-30.761504
1944	7.7760e+000	-88.684082	-30.633348
1945	7.7800e+000	-87.249756	-30.518899
1946	7.7840e+000	-86.334229	-30.390743
1947	7.7880e+000	-84.930420	-30.272867
1948	7.7920e+000	-83.808899	-30.124151
1949	7.7960e+000	-82.611084	-29.988457
1950	7.8000e+000	-81.214905	-29.864413
1951	7.8040e+000	-80.108643	-29.708844
1952	7.8080e+000	-78.765869	-29.545052
1953	7.8120e+000	-77.789307	-29.409357
1954	7.8160e+000	-76.461792	-29.254474
1955	7.8200e+000	-75.317383	-29.086569
1956	7.8240e+000	-73.806763	-28.950189
1957	7.8280e+000	-72.814941	-28.795306
1958	7.8320e+000	-72.013855	-28.627401
1959	7.8360e+000	-70.625305	-28.442364
1960	7.8400e+000	-69.313049	-28.294333
1961	7.8440e+000	-68.351746	-28.125743
1962	7.8480e+000	-67.016602	-27.926314
1963	7.8520e+000	-65.933228	-27.791990
1964	7.8560e+000	-64.720154	-27.577483
1965	7.8600e+000	-63.339233	-27.408893
1966	7.8640e+000	-62.179565	-27.210834
1967	7.8680e+000	-60.806274	-27.037447
1968	7.8720e+000	-59.898376	-26.820199
1969	7.8760e+000	-58.570862	-26.624881
1970	7.8800e+000	-57.571411	-26.416542
1971	7.8840e+000	-56.022644	-26.195182
1972	7.8880e+000	-55.038452	-25.997123
1973	7.8920e+000	-53.466797	-25.716826
1974	7.8960e+000	-52.589417	-25.545494
1975	7.9000e+000	-51.475525	-25.313169
1976	7.9040e+000	-49.926758	-25.084956
1977	7.9080e+000	-49.064636	-24.845092
1978	7.9120e+000	-47.546387	-24.560682
1979	7.9160e+000	-46.745300	-24.340693
1980	7.9200e+000	-45.227051	-24.044632
1981	7.9240e+000	-44.372559	-23.780782
1982	7.9280e+000	-43.006897	-23.525156
1983	7.9320e+000	-41.694641	-23.242802
1984	7.9360e+000	-40.527344	-22.941259
1985	7.9400e+000	-39.405823	-22.646569
1986	7.9440e+000	-37.994385	-22.357362
1987	7.9480e+000	-36.720276	-22.044853
1988	7.9520e+000	-35.873413	-21.720695
1989	7.9560e+000	-34.790039	-21.396536
1990	7.9600e+000	-33.332825	-21.073748
1991	7.9640e+000	-32.211304	-20.734512
1992	7.9680e+000	-31.135559	-20.372660
1993	7.9720e+000	-29.685974	-20.009438
1994	7.9760e+000	-28.633118	-19.636621
1995	7.9800e+000	-27.412415	-19.285734
1996	7.9840e+000	-25.917053	-18.888931
1997	7.9880e+000	-25.100708	-18.503093
1998	7.9920e+000	-23.872375	-18.119311
1999	7.9960e+000	-22.361755	-17.678647
2000	8.0000e+000	-21.530151	-17.270193
2001	8.0040e+000	-20.545959	-16.845977

Center data before PMax,±Pr and ±Vc Calc.

PMax (µC/cm2):	3.91e+001
Pr (µC/cm2):	3.04e+001
-Pr (µC/cm2):	-1.68e+001
Vc:	1.03e-001
-Vc:	-3.69e-001
C (Max-Eff) (nF):	8.08e-001
K (Eff):	1.47e+003
Vert. (±Pr) Shift (µC/cm2):	6.76e+000
Horiz. Shift (±Vc):	-1.33e-001
Offset (µC/cm2):	1.19e+001

A (Loop Area - µC/cm2·Volts):	3.62e+001



Hysteresis Version: 5.16.2 - Radiant Technologies, Inc., 1999 - 3/20/18

