»»»»»»»»»»»»»»»»»»»»»»»»»»»»»»»»»»»» Hysteresis ««««««««««««««««««««««««««««««««««««
»»»  Executed Version:	5.9.3
»»»  Vision Version:	5.9.8 (R)
»»»  Vision Compiled:	3/30/16
»»»  Driver Version:	5.9.8
»»»  Windows Version:	Windows 7
»»»  Processor Information:	x86 (AMD or Intel) - 2 Processors
»»»  Tester Name:	PMF0910-256
»»»  Tester S/N:	PMF0910-256
»»»  Internal Amp Type:	 RTI 100V      
»»»  Internal Amp S/N:	 iAB1-0000     
»»»  Execution Count:	1
»»»»»»»»»»»»»»»»»»»»»»»»»»»»»»»»»»»»»»»»»»««««««««««««««««««««««««««««««««««««««««««

Stored:	11/15/2016 - 8:25:57
Configured:	11/15/16 08:18:26 AM
Executed:	11/15/16 08:25:28 AM

»»»»»»»»»»»»»»»»»»»»»»»»»»»»»»»»»»» Sample Info ««««««««««««««««««««««««««««««««««««
Sample Name:	ba018b
Lot Name:	
Wafer Name:	
Die Row/Column:	1/1
Capacitor Number:	1
Sample Area (cm2):	1.23e-006
Sample Thickness (µm):	1.75e-001

Mux Loop Adjustment:	Disabled

Amplifier:	Internal

»»»»»»»»»»»»»»»»»»»»»»»»»»»»»»»»»»» Tester Info «««««««««««««««««««««««««««««««««««
Tester Name:	PMF0910-256
Tester Serial Number:	PMF0910-256
Return Signal Amp. Level:	20.0 [Index: 0]

»»»»»»»»»»»»»»»»»»»»»»»»»»»»»»»» Hysteresis Info ««««««««««««««««««««««««««««««««««
Task Name:	Hyst-1
Volts:	3.00
Field:	171.43 (kV/cm)
Hysteresis Period (ms):	2.00e-001
Preset:	Enabled
Preset Delay (ms):	1.00e+003
Profile:	Double Bipolar

»»»»»»»»»»»»»»»»»»»»»»»»»»»»»»»»»»»»»» Data «««««««««««««««««««««««««««««««««««««««
Points:	401

Valid Data

Point	Time (ms)	Drive Voltage	Measured Polarization
   1	5.0000e-004	-0.0029	-44.485611
   2	1.0000e-003	0.0575	-44.234849
   3	1.5000e-003	0.1194	-44.005757
   4	2.0000e-003	0.1788	-43.847869
   5	2.5000e-003	0.2377	-43.637352
   6	3.0000e-003	0.2962	-43.151306
   7	3.5000e-003	0.3602	-42.383539
   8	4.0000e-003	0.4202	-41.751988
   9	4.5000e-003	0.4797	-40.717979
  10	5.0000e-003	0.5379	-39.526083
  11	5.5000e-003	0.6007	-38.306323
  12	6.0000e-003	0.6602	-36.674818
  13	6.5000e-003	0.7206	-34.854466
  14	7.0000e-003	0.7805	-32.863844
  15	7.5000e-003	0.8398	-30.671992
  16	8.0000e-003	0.8984	-28.247953
  17	8.5000e-003	0.9600	-25.523618
  18	9.0000e-003	1.0197	-22.817857
  19	9.5000e-003	1.0792	-20.124480
  20	1.0000e-002	1.1392	-17.397049
  21	1.0500e-002	1.1987	-14.719151
  22	1.1000e-002	1.2590	-11.920515
  23	1.1500e-002	1.3182	-9.007334
  24	1.2000e-002	1.3789	-6.221082
  25	1.2500e-002	1.4377	-3.193355
  26	1.3000e-002	1.4990	0.097519
  27	1.3500e-002	1.5598	3.335763
  28	1.4000e-002	1.6189	6.846441
  29	1.4500e-002	1.6778	10.276627
  30	1.5000e-002	1.7391	14.025684
  31	1.5500e-002	1.8004	18.180295
  32	1.6000e-002	1.8569	22.746653
  33	1.6500e-002	1.9189	27.994094
  34	1.7000e-002	1.9802	34.052645
  35	1.7500e-002	2.0405	40.882059
  36	1.8000e-002	2.1001	47.987002
  37	1.8500e-002	2.1628	52.912476
  38	1.9000e-002	2.2181	55.113615
  39	1.9500e-002	2.2792	56.017599
  40	2.0000e-002	2.3396	56.652246
  41	2.0500e-002	2.3972	57.166154
  42	2.1000e-002	2.4605	57.615051
  43	2.1500e-002	2.5214	57.924634
  44	2.2000e-002	2.5793	58.367339
  45	2.2500e-002	2.6414	58.649060
  46	2.3000e-002	2.7007	59.001985
  47	2.3500e-002	2.7589	59.271323
  48	2.4000e-002	2.8201	59.460169
  49	2.4500e-002	2.8785	59.803807
  50	2.5000e-002	2.9416	60.039090
  51	2.5500e-002	3.0015	60.342482
  52	2.6000e-002	2.9403	60.357961
  53	2.6500e-002	2.8773	60.274374
  54	2.7000e-002	2.8189	60.317715
  55	2.7500e-002	2.7583	60.206265
  56	2.8000e-002	2.6962	60.141253
  57	2.8500e-002	2.6382	60.051473
  58	2.9000e-002	2.5747	59.933832
  59	2.9500e-002	2.5182	59.782136
  60	3.0000e-002	2.4567	59.692356
  61	3.0500e-002	2.3966	59.500415
  62	3.1000e-002	2.3350	59.348719
  63	3.1500e-002	2.2746	59.215598
  64	3.2000e-002	2.2149	59.150585
  65	3.2500e-002	2.1577	59.042231
  66	3.3000e-002	2.0939	58.936973
  67	3.3500e-002	2.0341	58.813139
  68	3.4000e-002	1.9759	58.698593
  69	3.4500e-002	1.9190	58.577856
  70	3.5000e-002	1.8536	58.413776
  71	3.5500e-002	1.7934	58.237314
  72	3.6000e-002	1.7368	58.026797
  73	3.6500e-002	1.6746	57.850334
  74	3.7000e-002	1.6171	57.797705
  75	3.7500e-002	1.5557	57.633626
  76	3.8000e-002	1.4973	57.441684
  77	3.8500e-002	1.4349	57.246646
  78	3.9000e-002	1.3768	57.036129
  79	3.9500e-002	1.3161	56.819421
  80	4.0000e-002	1.2589	56.621287
  81	4.0500e-002	1.1967	56.364333
  82	4.1000e-002	1.1353	56.212637
  83	4.1500e-002	1.0747	56.085708
  84	4.2000e-002	1.0181	55.800891
  85	4.2500e-002	0.9554	55.584182
  86	4.3000e-002	0.8957	55.376761
  87	4.3500e-002	0.8363	55.122903
  88	4.4000e-002	0.7755	54.757594
  89	4.4500e-002	0.7146	54.454202
  90	4.5000e-002	0.6538	54.126044
  91	4.5500e-002	0.5985	53.847419
  92	4.6000e-002	0.5373	53.367564
  93	4.6500e-002	0.4753	52.986776
  94	4.7000e-002	0.4153	52.513113
  95	4.7500e-002	0.3568	51.912521
  96	4.8000e-002	0.2964	51.243821
  97	4.8500e-002	0.2353	50.460574
  98	4.9000e-002	0.1773	49.296540
  99	4.9500e-002	0.1151	48.197518
 100	5.0000e-002	0.0562	46.764146
 101	5.0500e-002	-0.0044	45.114066
 102	5.1000e-002	-0.0612	43.077006
 103	5.1500e-002	-0.1230	40.538421
 104	5.2000e-002	-0.1829	37.470448
 105	5.2500e-002	-0.2415	33.786403
 106	5.3000e-002	-0.3047	29.387221
 107	5.3500e-002	-0.3621	24.793000
 108	5.4000e-002	-0.4247	19.913963
 109	5.4500e-002	-0.4842	15.016351
 110	5.5000e-002	-0.5421	10.465473
 111	5.5500e-002	-0.6007	5.728844
 112	5.6000e-002	-0.6640	1.338949
 113	5.6500e-002	-0.7218	-2.660871
 114	5.7000e-002	-0.7843	-6.564720
 115	5.7500e-002	-0.8418	-10.044439
 116	5.8000e-002	-0.9010	-13.177425
 117	5.8500e-002	-0.9645	-16.319698
 118	5.9000e-002	-1.0239	-19.074992
 119	5.9500e-002	-1.0847	-21.771465
 120	6.0000e-002	-1.1414	-24.245037
 121	6.0500e-002	-1.1993	-26.607160
 122	6.1000e-002	-1.2658	-29.077637
 123	6.1500e-002	-1.3219	-31.328310
 124	6.2000e-002	-1.3833	-33.656378
 125	6.2500e-002	-1.4437	-36.006117
 126	6.3000e-002	-1.5031	-38.427061
 127	6.3500e-002	-1.5645	-41.043042
 128	6.4000e-002	-1.6232	-44.206986
 129	6.4500e-002	-1.6823	-47.086113
 130	6.5000e-002	-1.7427	-49.370840
 131	6.5500e-002	-1.8049	-51.144754
 132	6.6000e-002	-1.8633	-52.522401
 133	6.6500e-002	-1.9262	-53.367564
 134	6.7000e-002	-1.9838	-54.187961
 135	6.7500e-002	-2.0441	-54.739019
 136	6.8000e-002	-2.1038	-55.302461
 137	6.8500e-002	-2.1664	-55.862808
 138	6.9000e-002	-2.2259	-56.271458
 139	6.9500e-002	-2.2855	-56.692492
 140	7.0000e-002	-2.3420	-57.159963
 141	7.0500e-002	-2.4058	-57.577901
 142	7.1000e-002	-2.4638	-57.887484
 143	7.1500e-002	-2.5249	-58.237314
 144	7.2000e-002	-2.5841	-58.543801
 145	7.2500e-002	-2.6450	-58.649060
 146	7.3000e-002	-2.7045	-59.243460
 147	7.3500e-002	-2.7644	-59.593290
 148	7.4000e-002	-2.8262	-59.893586
 149	7.4500e-002	-2.8831	-60.224840
 150	7.5000e-002	-2.9444	-60.670641
 151	7.5500e-002	-3.0045	-60.844007
 152	7.6000e-002	-2.9420	-60.794474
 153	7.6500e-002	-2.8831	-60.816145
 154	7.7000e-002	-2.8212	-60.698503
 155	7.7500e-002	-2.7600	-60.531328
 156	7.8000e-002	-2.6991	-60.549903
 157	7.8500e-002	-2.6415	-60.348674
 158	7.9000e-002	-2.5828	-60.407494
 159	7.9500e-002	-2.5197	-60.212457
 160	8.0000e-002	-2.4626	-60.088623
 161	8.0500e-002	-2.4000	-59.918352
 162	8.1000e-002	-2.3402	-59.769752
 163	8.1500e-002	-2.2816	-59.413731
 164	8.2000e-002	-2.2215	-59.494223
 165	8.2500e-002	-2.1588	-59.262035
 166	8.3000e-002	-2.1017	-59.150585
 167	8.3500e-002	-2.0412	-59.029848
 168	8.4000e-002	-1.9792	-58.921493
 169	8.4500e-002	-1.9230	-58.831714
 170	8.5000e-002	-1.8606	-58.707881
 171	8.5500e-002	-1.8006	-58.432351
 172	8.6000e-002	-1.7418	-58.252793
 173	8.6500e-002	-1.6808	-58.067043
 174	8.7000e-002	-1.6195	-57.751267
 175	8.7500e-002	-1.5604	-57.553134
 176	8.8000e-002	-1.4987	-57.348809
 177	8.8500e-002	-1.4421	-57.135196
 178	8.9000e-002	-1.3791	-56.940158
 179	8.9500e-002	-1.3181	-56.711067
 180	9.0000e-002	-1.2644	-56.392196
 181	9.0500e-002	-1.1992	-55.875191
 182	9.1000e-002	-1.1401	-55.977354
 183	9.1500e-002	-1.0799	-55.788508
 184	9.2000e-002	-1.0201	-55.389145
 185	9.2500e-002	-0.9604	-55.082657
 186	9.3000e-002	-0.9035	-54.875236
 187	9.3500e-002	-0.8388	-54.398477
 188	9.4000e-002	-0.7818	-54.243686
 189	9.4500e-002	-0.7185	-53.890760
 190	9.5000e-002	-0.6596	-53.475918
 191	9.5500e-002	-0.6021	-53.027022
 192	9.6000e-002	-0.5405	-52.534784
 193	9.6500e-002	-0.4789	-52.092080
 194	9.7000e-002	-0.4224	-52.017780
 195	9.7500e-002	-0.3613	-50.993058
 196	9.8000e-002	-0.3014	-50.392466
 197	9.8500e-002	-0.2405	-49.745436
 198	9.9000e-002	-0.1803	-49.206761
 199	9.9500e-002	-0.1194	-48.194423
 200	1.0000e-001	-0.0604	-47.634076
 201	1.0050e-001	-0.0027	-46.816776
 202	1.0100e-001	0.0600	-46.222375
 203	1.0150e-001	0.1171	-45.389595
 204	1.0200e-001	0.1793	-44.646595
 205	1.0250e-001	0.2382	-43.850965
 206	1.0300e-001	0.2988	-43.188456
 207	1.0350e-001	0.3603	-42.210172
 208	1.0400e-001	0.4218	-41.120438
 209	1.0450e-001	0.4799	-39.860433
 210	1.0500e-001	0.5379	-38.427061
 211	1.0550e-001	0.6017	-36.718160
 212	1.0600e-001	0.6586	-34.860658
 213	1.0650e-001	0.7174	-32.709052
 214	1.0700e-001	0.7773	-30.396463
 215	1.0750e-001	0.8414	-27.870261
 216	1.0800e-001	0.8981	-25.065434
 217	1.0850e-001	0.9589	-22.338003
 218	1.0900e-001	1.0191	-19.310275
 219	1.0950e-001	1.0806	-16.434244
 220	1.1000e-001	1.1394	-13.657279
 221	1.1050e-001	1.1973	-10.836973
 222	1.1100e-001	1.2612	-8.152883
 223	1.1150e-001	1.3181	-5.088006
 224	1.1200e-001	1.3778	-2.190304
 225	1.1250e-001	1.4391	0.794082
 226	1.1300e-001	1.4973	4.078764
 227	1.1350e-001	1.5565	7.301529
 228	1.1400e-001	1.6173	10.722427
 229	1.1450e-001	1.6790	14.301213
 230	1.1500e-001	1.7373	18.000737
 231	1.1550e-001	1.7992	21.988173
 232	1.1600e-001	1.8595	26.430697
 233	1.1650e-001	1.9182	31.637893
 234	1.1700e-001	1.9770	37.547844
 235	1.1750e-001	2.0404	44.414407
 236	1.1800e-001	2.0972	50.739200
 237	1.1850e-001	2.1585	54.364423
 238	1.1900e-001	2.2201	55.903054
 239	1.1950e-001	2.2806	56.732737
 240	1.2000e-001	2.3410	57.169250
 241	1.2050e-001	2.3976	57.509792
 242	1.2100e-001	2.4591	57.841047
 243	1.2150e-001	2.5196	58.228026
 244	1.2200e-001	2.5780	58.559281
 245	1.2250e-001	2.6412	58.844097
 246	1.2300e-001	2.6994	59.190831
 247	1.2350e-001	2.7589	59.484935
 248	1.2400e-001	2.8204	59.775944
 249	1.2450e-001	2.8790	60.079336
 250	1.2500e-001	2.9382	60.299140
 251	1.2550e-001	3.0004	60.543711
 252	1.2600e-001	2.9398	60.645874
 253	1.2650e-001	2.8748	60.552999
 254	1.2700e-001	2.8175	60.444645
 255	1.2750e-001	2.7586	60.453932
 256	1.2800e-001	2.6958	60.323907
 257	1.2850e-001	2.6380	60.175307
 258	1.2900e-001	2.5756	59.967886
 259	1.2950e-001	2.5180	59.952407
 260	1.3000e-001	2.4567	59.729506
 261	1.3050e-001	2.3973	59.707836
 262	1.3100e-001	2.3371	59.515894
 263	1.3150e-001	2.2775	59.497319
 264	1.3200e-001	2.2149	59.382773
 265	1.3250e-001	2.1568	59.234173
 266	1.3300e-001	2.0961	59.135106
 267	1.3350e-001	2.0377	59.020560
 268	1.3400e-001	1.9796	58.902918
 269	1.3450e-001	1.9158	58.757414
 270	1.3500e-001	1.8584	58.546897
 271	1.3550e-001	1.7989	58.444735
 272	1.3600e-001	1.7376	58.351860
 273	1.3650e-001	1.6763	58.246601
 274	1.3700e-001	1.6148	58.036084
 275	1.3750e-001	1.5594	57.853430
 276	1.3800e-001	1.4981	57.630530
 277	1.3850e-001	1.4363	57.395246
 278	1.3900e-001	1.3743	57.218784
 279	1.3950e-001	1.3163	57.026842
 280	1.4000e-001	1.2594	56.738929
 281	1.4050e-001	1.1931	56.602712
 282	1.4100e-001	1.1351	56.398387
 283	1.4150e-001	1.0767	56.293129
 284	1.4200e-001	1.0166	56.079516
 285	1.4250e-001	0.9559	55.841137
 286	1.4300e-001	0.8960	55.562512
 287	1.4350e-001	0.8339	55.268407
 288	1.4400e-001	0.7759	54.989782
 289	1.4450e-001	0.7165	54.534694
 290	1.4500e-001	0.6557	54.311794
 291	1.4550e-001	0.5972	53.921719
 292	1.4600e-001	0.5338	53.500685
 293	1.4650e-001	0.4749	53.088939
 294	1.4700e-001	0.4152	52.596701
 295	1.4750e-001	0.3564	51.996109
 296	1.4800e-001	0.2988	51.324312
 297	1.4850e-001	0.2339	50.537970
 298	1.4900e-001	0.1762	49.633986
 299	1.4950e-001	0.1154	48.426610
 300	1.5000e-001	0.0581	46.962280
 301	1.5050e-001	-0.0013	45.343158
 302	1.5100e-001	-0.0607	43.327769
 303	1.5150e-001	-0.1223	40.838717
 304	1.5200e-001	-0.1814	37.752169
 305	1.5250e-001	-0.2450	34.182670
 306	1.5300e-001	-0.3043	29.935183
 307	1.5350e-001	-0.3622	25.238801
 308	1.5400e-001	-0.4239	20.449543
 309	1.5450e-001	-0.4829	15.700531
 310	1.5500e-001	-0.5427	11.022723
 311	1.5550e-001	-0.6026	6.527570
 312	1.5600e-001	-0.6644	2.094333
 313	1.5650e-001	-0.7222	-1.849762
 314	1.5700e-001	-0.7841	-5.697886
 315	1.5750e-001	-0.8420	-9.251905
 316	1.5800e-001	-0.9010	-12.428232
 317	1.5850e-001	-0.9628	-15.415714
 318	1.5900e-001	-1.0237	-18.177199
 319	1.5950e-001	-1.0824	-20.771510
 320	1.6000e-001	-1.1423	-23.356533
 321	1.6050e-001	-1.2028	-25.755805
 322	1.6100e-001	-1.2628	-28.096257
 323	1.6150e-001	-1.3210	-30.436709
 324	1.6200e-001	-1.3837	-32.774065
 325	1.6250e-001	-1.4447	-35.043312
 326	1.6300e-001	-1.5031	-37.588089
 327	1.6350e-001	-1.5617	-40.402204
 328	1.6400e-001	-1.6228	-43.578532
 329	1.6450e-001	-1.6819	-46.535055
 330	1.6500e-001	-1.7458	-49.051969
 331	1.6550e-001	-1.8035	-50.856841
 332	1.6600e-001	-1.8620	-52.045642
 333	1.6650e-001	-1.9251	-52.986776
 334	1.6700e-001	-1.9848	-53.872185
 335	1.6750e-001	-2.0461	-54.612090
 336	1.6800e-001	-2.1043	-55.135286
 337	1.6850e-001	-2.1616	-55.537745
 338	1.6900e-001	-2.2260	-56.017599
 339	1.6950e-001	-2.2860	-56.410771
 340	1.7000e-001	-2.3444	-56.850379
 341	1.7050e-001	-2.4040	-57.197113
 342	1.7100e-001	-2.4663	-57.580996
 343	1.7150e-001	-2.5217	-57.967976
 344	1.7200e-001	-2.5842	-58.228026
 345	1.7250e-001	-2.6453	-58.621197
 346	1.7300e-001	-2.7051	-58.930781
 347	1.7350e-001	-2.7635	-59.150585
 348	1.7400e-001	-2.8253	-59.649015
 349	1.7450e-001	-2.8796	-59.924544
 350	1.7500e-001	-2.9456	-60.330099
 351	1.7550e-001	-3.0044	-60.562286
 352	1.7600e-001	-2.9408	-60.645874
 353	1.7650e-001	-2.8821	-60.537520
 354	1.7700e-001	-2.8216	-60.503465
 355	1.7750e-001	-2.7601	-60.398207
 356	1.7800e-001	-2.7013	-60.196978
 357	1.7850e-001	-2.6399	-60.131965
 358	1.7900e-001	-2.5818	-60.045282
 359	1.7950e-001	-2.5233	-59.899777
 360	1.8000e-001	-2.4603	-59.692356
 361	1.8050e-001	-2.4017	-59.630440
 362	1.8100e-001	-2.3400	-59.556140
 363	1.8150e-001	-2.2819	-59.453977
 364	1.8200e-001	-2.2215	-59.221789
 365	1.8250e-001	-2.1656	-59.088668
 366	1.8300e-001	-2.0992	-58.909110
 367	1.8350e-001	-2.0420	-58.707881
 368	1.8400e-001	-1.9804	-58.692401
 369	1.8450e-001	-1.9229	-58.543801
 370	1.8500e-001	-1.8627	-58.345668
 371	1.8550e-001	-1.7989	-58.166109
 372	1.8600e-001	-1.7404	-57.915347
 373	1.8650e-001	-1.6816	-57.695542
 374	1.8700e-001	-1.6205	-57.553134
 375	1.8750e-001	-1.5603	-57.280700
 376	1.8800e-001	-1.4989	-57.085663
 377	1.8850e-001	-1.4417	-56.847283
 378	1.8900e-001	-1.3813	-56.596521
 379	1.8950e-001	-1.3184	-56.389100
 380	1.9000e-001	-1.2620	-56.036174
 381	1.9050e-001	-1.2022	-55.868999
 382	1.9100e-001	-1.1401	-55.630620
 383	1.9150e-001	-1.0800	-55.382953
 384	1.9200e-001	-1.0195	-55.082657
 385	1.9250e-001	-0.9584	-54.723540
 386	1.9300e-001	-0.9028	-54.485161
 387	1.9350e-001	-0.8396	-54.243686
 388	1.9400e-001	-0.7800	-53.884569
 389	1.9450e-001	-0.7214	-53.568793
 390	1.9500e-001	-0.6615	-53.181814
 391	1.9550e-001	-0.5990	-52.760780
 392	1.9600e-001	-0.5437	-52.290213
 393	1.9650e-001	-0.4802	-51.869180
 394	1.9700e-001	-0.4219	-51.324312
 395	1.9750e-001	-0.3600	-50.708241
 396	1.9800e-001	-0.2999	-50.135512
 397	1.9850e-001	-0.2392	-49.426565
 398	1.9900e-001	-0.1762	-48.764056
 399	1.9950e-001	-0.1212	-48.182039
 400	2.0000e-001	-0.0623	-47.504051
 401	2.0050e-001	-0.0023	-46.699134

Center data before PMax,±Pr and ±Vc Calc.

PMax (µC/cm2):	6.05e+001
Pr (µC/cm2):	4.54e+001
-Pr (µC/cm2):	-4.67e+001
Vc:	1.42e+000
-Vc:	-6.95e-001
C (Max-Eff) (nF):	2.48e-002
Vert. (±Pr) Shift (µC/cm2):	-6.60e-001
Horiz. Shift (±Vc):	3.64e-001
Offset (µC/cm2):	6.05e+001

A (Loop Area - µC/cm2·Volts):	2.31e+002



Hysteresis Version: 5.9.3 - Radiant Technologies, Inc., 1999 - 3/03/16

