»»»»»»»»»»»»»»»»»»»»»»»»»»»»»»»»»»»» Hysteresis ««««««««««««««««««««««««««««««««««««
»»»  Executed Version:	5.16.2
»»»  Vision Version:	5.16.10 (R)
»»»  Vision Compiled:	4/26/18
»»»  Driver Version:	5.16.6
»»»  Windows Version:	Windows 8
»»»  Processor Information:	x86 (AMD or Intel) - 8 Processors
»»»  Tester Name:	PPM21016-863
»»»  Tester S/N:	PPM21016-863
»»»  Internal Amp Type:	 RTI ML200V    
»»»  Internal Amp S/N:	 iAB2-0000     
»»»  Execution Count:	1
»»»»»»»»»»»»»»»»»»»»»»»»»»»»»»»»»»»»»»»»»»««««««««««««««««««««««««««««««««««««««««««

Stored:	7/30/2018 - 20:20:38
Configured:	07/30/18 08:15:35 PM
Executed:	07/30/18 08:20:19 PM

»»»»»»»»»»»»»»»»»»»»»»»»»»»»»»»»»»» Sample Info ««««««««««««««««««««««««««««««««««««
Sample Name:	Internal Reference Cap.
Lot Name:	N/A
Wafer Name:	N/A
Die Row/Column:	0/0
Capacitor Number:	0
Sample Area (cm2):	7.85e-005
Sample Thickness (µm):	1.00e-001

Mux Loop Adjustment:	Disabled

Amplifier:	Internal

»»»»»»»»»»»»»»»»»»»»»»»»»»»»»»»»»»» Tester Info «««««««««««««««««««««««««««««««««««
Tester Name:	PPM21016-863
Tester Serial Number:	PPM21016-863
Return Signal Amp. Level:	0.19 [Index: 3]

»»»»»»»»»»»»»»»»»»»»»»»»»»»»»»»» Hysteresis Info ««««««««««««««««««««««««««««««««««
Task Name:	Hyst-1
Volts:	3.00
Field:	300.00 (kV/cm)
Hysteresis Period (ms):	2.00e+000
Preset:	Enabled
Preset Delay (ms):	1.00e+003
Profile:	Double Bipolar

»»»»»»»»»»»»»»»»»»»»»»»»»»»»»»»»»»»»»» Data «««««««««««««««««««««««««««««««««««««««
Points:	2001

Valid Data

Point	Time (ms)	Field (kV/cm)	Measured Polarization
   1	1.0000e-003	0.251770	-36.068502
   2	2.0000e-003	1.251221	-35.981639
   3	3.0000e-003	2.372742	-35.956091
   4	4.0000e-003	3.654480	-35.884557
   5	5.0000e-003	4.875183	-35.802804
   6	6.0000e-003	5.836487	-35.782365
   7	7.0000e-003	7.354736	-35.700612
   8	8.0000e-003	8.598328	-35.690393
   9	9.0000e-003	9.597778	-35.501339
  10	1.0000e-002	10.742188	-35.480900
  11	1.1000e-002	12.176514	-35.368490
  12	1.2000e-002	13.214111	-35.404257
  13	1.3000e-002	14.564514	-35.312284
  14	1.4000e-002	15.647888	-35.138559
  15	1.5000e-002	16.738892	-35.082353
  16	1.6000e-002	18.165588	-34.898409
  17	1.7000e-002	19.332886	-34.847313
  18	1.8000e-002	20.378113	-34.602053
  19	1.9000e-002	21.614075	-34.520300
  20	2.0000e-002	22.949219	-34.269931
  21	2.1000e-002	23.979187	-34.121753
  22	2.2000e-002	25.375366	-33.922480
  23	2.3000e-002	26.794434	-33.667001
  24	2.4000e-002	27.244568	-33.769192
  25	2.5000e-002	28.892517	-33.385974
  26	2.6000e-002	30.220032	-33.171372
  27	2.7000e-002	31.112671	-32.936331
  28	2.8000e-002	32.402039	-32.634866
  29	2.9000e-002	33.744812	-32.430483
  30	3.0000e-002	34.790039	-32.272086
  31	3.1000e-002	36.048889	-31.883758
  32	3.2000e-002	37.261963	-31.648718
  33	3.3000e-002	38.246155	-31.280828
  34	3.4000e-002	39.619446	-30.933377
  35	3.5000e-002	40.672302	-30.739213
  36	3.6000e-002	41.831970	-30.299790
  37	3.7000e-002	43.228149	-29.906352
  38	3.8000e-002	44.441223	-29.451600
  39	3.9000e-002	44.563293	-29.824599
  40	4.0000e-002	46.813965	-28.669835
  41	4.1000e-002	47.996521	-28.383698
  42	4.2000e-002	49.049377	-27.760330
  43	4.3000e-002	50.376892	-27.106304
  44	4.4000e-002	51.551819	-26.687319
  45	4.5000e-002	52.726746	-26.155923
  46	4.6000e-002	54.023743	-25.409925
  47	4.7000e-002	55.320740	-24.822324
  48	4.8000e-002	56.350708	-24.101873
  49	4.9000e-002	57.624817	-23.345656
  50	5.0000e-002	58.792114	-22.655863
  51	5.1000e-002	59.608459	-22.175563
  52	5.2000e-002	61.187744	-21.112771
  53	5.3000e-002	62.393188	-20.136842
  54	5.4000e-002	63.453674	-19.232447
  55	5.5000e-002	64.338684	-18.517106
  56	5.6000e-002	65.673828	-17.510519
  57	5.7000e-002	67.001343	-16.130934
  58	5.8000e-002	68.305969	-14.919964
  59	5.9000e-002	69.419861	-13.724323
  60	6.0000e-002	70.472717	-12.528682
  61	6.1000e-002	71.762085	-10.878289
  62	6.2000e-002	73.204041	-9.427169
  63	6.3000e-002	74.142456	-7.894296
  64	6.4000e-002	75.645447	-6.381861
  65	6.5000e-002	76.576233	-4.670153
  66	6.6000e-002	77.819824	-3.096403
  67	6.7000e-002	78.941345	-1.083230
  68	6.8000e-002	80.184937	0.935053
  69	6.9000e-002	81.291199	2.943116
  70	7.0000e-002	82.588196	4.935851
  71	7.1000e-002	83.587646	7.173846
  72	7.2000e-002	84.892273	9.125704
  73	7.3000e-002	86.151123	11.573191
  74	7.4000e-002	87.348938	13.724323
  75	7.5000e-002	88.562012	15.895893
  76	7.6000e-002	89.744568	18.087901
  77	7.7000e-002	90.927124	20.673347
  78	7.8000e-002	92.010498	22.850027
  79	7.9000e-002	93.414307	25.067583
  80	8.0000e-002	94.665527	27.366893
  81	8.1000e-002	95.672607	29.497586
  82	8.2000e-002	97.145081	31.638499
  83	8.3000e-002	98.281860	33.569919
  84	8.4000e-002	99.281311	35.337832
  85	8.5000e-002	100.677490	37.315238
  86	8.6000e-002	102.317810	38.899207
  87	8.7000e-002	102.783203	39.972218
  88	8.8000e-002	104.316711	41.499982
  89	8.9000e-002	105.476379	42.419706
  90	9.0000e-002	106.811523	43.410963
  91	9.1000e-002	108.009338	43.886154
  92	9.2000e-002	109.268188	44.938727
  93	9.3000e-002	110.458374	45.316836
  94	9.4000e-002	111.793518	45.633629
  95	9.5000e-002	112.815857	46.272326
  96	9.6000e-002	114.128113	46.681093
  97	9.7000e-002	115.325928	46.997886
  98	9.8000e-002	116.294861	47.294242
  99	9.9000e-002	117.607117	47.559940
 100	1.0000e-001	118.904114	47.626364
 101	1.0100e-001	120.056152	47.759213
 102	1.0200e-001	122.047424	48.270171
 103	1.0300e-001	122.451782	48.147541
 104	1.0400e-001	123.672485	48.280390
 105	1.0500e-001	124.923706	48.449006
 106	1.0600e-001	126.029968	48.137322
 107	1.0700e-001	127.319336	48.484773
 108	1.0800e-001	128.402710	48.735142
 109	1.0900e-001	129.844666	48.770909
 110	1.1000e-001	130.889893	48.944635
 111	1.1100e-001	132.171631	48.985512
 112	1.1200e-001	133.399963	49.195004
 113	1.1300e-001	134.521484	49.327853
 114	1.1400e-001	135.589600	49.189895
 115	1.1500e-001	137.031555	49.343182
 116	1.1600e-001	138.206482	49.460702
 117	1.1700e-001	139.366150	49.537346
 118	1.1800e-001	140.686035	49.613990
 119	1.1900e-001	141.746521	49.736619
 120	1.2000e-001	142.860413	49.736619
 121	1.2100e-001	144.203186	49.915455
 122	1.2200e-001	145.385742	49.659976
 123	1.2300e-001	146.423340	49.895016
 124	1.2400e-001	147.750854	49.961441
 125	1.2500e-001	148.971558	50.114728
 126	1.2600e-001	150.192261	50.165824
 127	1.2700e-001	151.351929	50.160714
 128	1.2800e-001	152.549744	50.334440
 129	1.2900e-001	153.778076	50.359988
 130	1.3000e-001	154.731750	50.308892
 131	1.3100e-001	156.227112	50.457070
 132	1.3200e-001	157.447815	50.605247
 133	1.3300e-001	158.615112	50.666562
 134	1.3400e-001	159.233093	50.334440
 135	1.3500e-001	161.148071	50.738096
 136	1.3600e-001	162.216187	50.809630
 137	1.3700e-001	163.185120	51.095767
 138	1.3800e-001	164.566040	50.845398
 139	1.3900e-001	165.763855	50.942479
 140	1.4000e-001	167.045593	51.070219
 141	1.4100e-001	168.106079	51.024233
 142	1.4200e-001	169.281006	51.162191
 143	1.4300e-001	170.532227	50.993575
 144	1.4400e-001	171.813965	51.223506
 145	1.4500e-001	172.225952	51.243945
 146	1.4600e-001	174.255371	51.249054
 147	1.4700e-001	175.239563	51.223506
 148	1.4800e-001	176.589966	51.392122
 149	1.4900e-001	177.162170	51.151972
 150	1.5000e-001	178.848267	51.392122
 151	1.5100e-001	180.030823	51.581177
 152	1.5200e-001	181.800842	52.041038
 153	1.5300e-001	182.563782	51.642491
 154	1.5400e-001	183.815002	51.841765
 155	1.5500e-001	184.989929	51.805998
 156	1.5600e-001	186.187744	51.729354
 157	1.5700e-001	187.347412	51.851984
 158	1.5800e-001	188.629150	51.943957
 159	1.5900e-001	189.842224	52.046148
 160	1.6000e-001	190.872192	52.087025
 161	1.6100e-001	191.925049	52.163668
 162	1.6200e-001	193.397522	52.035929
 163	1.6300e-001	194.595337	52.224983
 164	1.6400e-001	195.671082	52.250531
 165	1.6500e-001	197.013855	52.260750
 166	1.6600e-001	198.089600	52.270969
 167	1.6700e-001	199.401855	52.194326
 168	1.6800e-001	200.599670	52.490681
 169	1.6900e-001	201.881409	52.480462
 170	1.7000e-001	202.995300	52.485572
 171	1.7100e-001	204.139709	52.521339
 172	1.7200e-001	205.497742	52.541777
 173	1.7300e-001	206.535339	52.674626
 174	1.7400e-001	207.847595	52.638859
 175	1.7500e-001	208.930969	52.669516
 176	1.7600e-001	210.220337	52.751270
 177	1.7700e-001	211.334229	52.894338
 178	1.7800e-001	212.577820	52.884119
 179	1.7900e-001	213.829041	52.981201
 180	1.8000e-001	215.126038	52.889228
 181	1.8100e-001	216.728210	53.349090
 182	1.8200e-001	217.399597	52.873899
 183	1.8300e-001	218.605042	53.200912
 184	1.8400e-001	219.818115	53.144707
 185	1.8500e-001	221.046448	53.221351
 186	1.8600e-001	222.084045	53.206022
 187	1.8700e-001	223.419189	53.308213
 188	1.8800e-001	224.601746	53.292885
 189	1.8900e-001	225.822449	53.451282
 190	1.9000e-001	226.936340	53.476830
 191	1.9100e-001	228.073120	53.364419
 192	1.9200e-001	229.743958	53.665884
 193	1.9300e-001	230.598450	53.553473
 194	1.9400e-001	231.811523	53.630117
 195	1.9500e-001	233.093262	53.655665
 196	1.9600e-001	233.932495	53.691432
 197	1.9700e-001	235.778809	54.095088
 198	1.9800e-001	236.564636	53.584131
 199	1.9900e-001	237.655640	53.875377
 200	2.0000e-001	239.006042	53.941801
 201	2.0100e-001	240.142822	53.880486
 202	2.0200e-001	241.439819	53.885596
 203	2.0300e-001	242.561340	53.941801
 204	2.0400e-001	243.850708	54.059321
 205	2.0500e-001	244.964600	53.854938
 206	2.0600e-001	246.269226	54.054212
 207	2.0700e-001	247.306824	54.049102
 208	2.0800e-001	248.786926	54.130855
 209	2.0900e-001	249.786377	54.217718
 210	2.1000e-001	251.213074	54.345458
 211	2.1100e-001	252.220154	54.166622
 212	2.1200e-001	253.089905	53.722089
 213	2.1300e-001	254.562378	54.284143
 214	2.1400e-001	255.958557	54.309691
 215	2.1500e-001	256.980896	54.437430
 216	2.1600e-001	258.285522	54.468087
 217	2.1700e-001	259.140015	54.779772
 218	2.1800e-001	260.673523	54.560060
 219	2.1900e-001	261.840820	54.595827
 220	2.2000e-001	263.069153	54.549841
 221	2.2100e-001	263.999939	54.631594
 222	2.2200e-001	265.480042	54.682690
 223	2.2300e-001	266.502380	54.657142
 224	2.2400e-001	267.944336	54.907511
 225	2.2500e-001	269.012451	54.917730
 226	2.2600e-001	270.248413	54.892182
 227	2.2700e-001	271.270752	55.525770
 228	2.2800e-001	272.506714	54.851306
 229	2.2900e-001	273.788452	55.030141
 230	2.3000e-001	275.001526	55.076127
 231	2.3100e-001	276.298523	55.050579
 232	2.3200e-001	277.534485	55.101675
 233	2.3300e-001	278.656006	55.295839
 234	2.3400e-001	279.914856	55.142552
 235	2.3500e-001	281.005859	55.208976
 236	2.3600e-001	282.127380	55.413359
 237	2.3700e-001	283.485413	55.372482
 238	2.3800e-001	284.584045	55.316277
 239	2.3900e-001	286.766052	55.699495
 240	2.4000e-001	287.132263	55.541098
 241	2.4100e-001	288.078308	55.556427
 242	2.4200e-001	289.482117	55.735262
 243	2.4300e-001	290.206909	55.122113
 244	2.4400e-001	291.679382	55.546208
 245	2.4500e-001	292.900085	55.622852
 246	2.4600e-001	294.189453	55.699495
 247	2.4700e-001	295.433044	55.776139
 248	2.4800e-001	296.623230	55.796577
 249	2.4900e-001	297.904968	55.796577
 250	2.5000e-001	298.973083	55.801687
 251	2.5100e-001	300.331116	55.919207
 252	2.5200e-001	299.446106	55.919207
 253	2.5300e-001	297.958374	55.765920
 254	2.5400e-001	296.630859	55.704605
 255	2.5500e-001	296.058655	55.944755
 256	2.5600e-001	294.601440	55.852783
 257	2.5700e-001	293.251038	55.970303
 258	2.5800e-001	292.137146	55.464455
 259	2.5900e-001	290.306091	55.592194
 260	2.6000e-001	289.680481	55.684167
 261	2.6100e-001	288.444519	55.893659
 262	2.6200e-001	287.300110	55.627961
 263	2.6300e-001	286.048889	55.653509
 264	2.6400e-001	284.706116	55.546208
 265	2.6500e-001	283.531189	55.551318
 266	2.6600e-001	282.424927	55.551318
 267	2.6700e-001	281.311035	55.515551
 268	2.6800e-001	280.075073	55.418469
 269	2.6900e-001	279.060364	55.592194
 270	2.7000e-001	277.809143	55.398030
 271	2.7100e-001	276.283264	55.444017
 272	2.7200e-001	275.337219	55.474674
 273	2.7300e-001	274.078369	55.234524
 274	2.7400e-001	272.941589	55.387811
 275	2.7500e-001	271.423340	55.392921
 276	2.7600e-001	270.477295	55.275401
 277	2.7700e-001	269.332886	55.316277
 278	2.7800e-001	268.096924	55.106784
 279	2.7900e-001	267.066956	55.331606
 280	2.8000e-001	265.510559	55.224305
 281	2.8100e-001	264.358521	55.152771
 282	2.8200e-001	263.374329	55.122113
 283	2.8300e-001	262.046814	55.122113
 284	2.8400e-001	260.810852	55.152771
 285	2.8500e-001	260.002136	55.117004
 286	2.8600e-001	258.445740	54.539621
 287	2.8700e-001	257.263184	55.025031
 288	2.8800e-001	256.111145	55.152771
 289	2.8900e-001	254.943848	54.866634
 290	2.9000e-001	253.456116	54.846196
 291	2.9100e-001	251.823425	54.902401
 292	2.9200e-001	251.419067	54.892182
 293	2.9300e-001	250.053406	54.861525
 294	2.9400e-001	248.977661	54.835977
 295	2.9500e-001	247.711182	54.662251
 296	2.9600e-001	246.444702	54.749114
 297	2.9700e-001	245.384216	54.769552
 298	2.9800e-001	244.056702	54.636703
 299	2.9900e-001	242.866516	54.590717
 300	3.0000e-001	242.012024	54.759333
 301	3.0100e-001	240.501404	54.698018
 302	3.0200e-001	239.700317	54.570279
 303	3.0300e-001	238.166809	54.488526
 304	3.0400e-001	236.991882	54.416992
 305	3.0500e-001	235.626221	54.483416
 306	3.0600e-001	234.405518	54.386334
 307	3.0700e-001	233.085632	53.972458
 308	3.0800e-001	232.101440	54.396553
 309	3.0900e-001	231.025696	54.248376
 310	3.1000e-001	229.614258	54.125746
 311	3.1100e-001	228.622437	54.376115
 312	3.1200e-001	227.508545	54.253485
 313	3.1300e-001	226.081848	54.125746
 314	3.1400e-001	224.975586	54.396553
 315	3.1500e-001	223.762512	54.187061
 316	3.1600e-001	222.496033	53.972458
 317	3.1700e-001	221.282959	54.079760
 318	3.1800e-001	220.138550	54.233047
 319	3.1900e-001	218.887329	54.013335
 320	3.2000e-001	217.651367	53.839609
 321	3.2100e-001	216.567993	53.921363
 322	3.2200e-001	215.133667	54.105307
 323	3.2300e-001	214.012146	53.808952
 324	3.2400e-001	213.050842	53.742528
 325	3.2500e-001	211.593628	53.706760
 326	3.2600e-001	210.380554	53.732308
 327	3.2700e-001	209.312439	53.737418
 328	3.2800e-001	208.213806	53.630117
 329	3.2900e-001	206.871033	53.599459
 330	3.3000e-001	205.757141	53.686322
 331	3.3100e-001	204.475403	53.568802
 332	3.3200e-001	203.353882	53.476830
 333	3.3300e-001	201.843262	53.221351
 334	3.3400e-001	200.782776	53.599459
 335	3.3500e-001	199.653625	52.996529
 336	3.3600e-001	198.524475	53.369528
 337	3.3700e-001	197.410583	53.471720
 338	3.3800e-001	196.022034	53.257118
 339	3.3900e-001	194.969177	53.216241
 340	3.4000e-001	193.618774	53.216241
 341	3.4100e-001	192.451477	53.144707
 342	3.4200e-001	191.291809	53.149817
 343	3.4300e-001	190.055847	53.083392
 344	3.4400e-001	188.858032	52.950543
 345	3.4500e-001	187.751770	53.006748
 346	3.4600e-001	186.531067	52.945434
 347	3.4700e-001	185.050964	52.930105
 348	3.4800e-001	184.005737	53.068063
 349	3.4900e-001	182.815552	52.858571
 350	3.5000e-001	181.701660	52.981201
 351	3.5100e-001	180.587769	52.761489
 352	3.5200e-001	178.916931	52.659297
 353	3.5300e-001	177.879333	52.659297
 354	3.5400e-001	176.956177	52.592873
 355	3.5500e-001	175.491333	52.684845
 356	3.5600e-001	174.339294	52.398709
 357	3.5700e-001	173.362732	52.485572
 358	3.5800e-001	172.035217	52.352723
 359	3.5900e-001	170.753479	52.465133
 360	3.6000e-001	169.776917	52.460024
 361	3.6100e-001	168.457031	52.316956
 362	3.6200e-001	167.236328	52.327175
 363	3.6300e-001	165.992737	52.102353
 364	3.6400e-001	164.840698	51.923518
 365	3.6500e-001	163.978577	52.342503
 366	3.6600e-001	162.513733	52.184107
 367	3.6700e-001	161.491394	52.276079
 368	3.6800e-001	160.270691	52.250531
 369	3.6900e-001	158.790588	52.061477
 370	3.7000e-001	157.646179	52.010381
 371	3.7100e-001	156.486511	51.954176
 372	3.7200e-001	155.082703	51.882642
 373	3.7300e-001	153.907776	51.887751
 374	3.7400e-001	152.816772	51.795779
 375	3.7500e-001	151.641846	51.851984
 376	3.7600e-001	150.482178	51.811108
 377	3.7700e-001	149.185181	51.647601
 378	3.7800e-001	148.094177	51.412561
 379	3.7900e-001	146.728516	51.637382
 380	3.8000e-001	145.439148	51.274602
 381	3.8100e-001	144.523621	51.504533
 382	3.8200e-001	143.257141	51.622053
 383	3.8300e-001	142.585754	51.555629
 384	3.8400e-001	140.800476	51.279712
 385	3.8500e-001	139.404297	51.289931
 386	3.8600e-001	138.404846	51.320588
 387	3.8700e-001	137.367249	51.243945
 388	3.8800e-001	135.902405	51.065109
 389	3.8900e-001	134.765625	51.085548
 390	3.9000e-001	133.903503	51.172410
 391	3.9100e-001	132.408142	51.146863
 392	3.9200e-001	131.240845	50.983356
 393	3.9300e-001	129.707336	50.993575
 394	3.9400e-001	128.883362	50.896493
 395	3.9500e-001	127.586365	51.187739
 396	3.9600e-001	126.403809	50.758535
 397	3.9700e-001	125.030518	50.799411
 398	3.9800e-001	124.481201	50.901603
 399	3.9900e-001	122.909546	50.676781
 400	4.0000e-001	121.589661	50.426412
 401	4.0100e-001	120.376587	50.651234
 402	4.0200e-001	119.392395	50.528604
 403	4.0300e-001	117.958069	50.462179
 404	4.0400e-001	116.752625	50.482618
 405	4.0500e-001	115.776062	50.421303
 406	4.0600e-001	114.402771	50.273125
 407	4.0700e-001	113.128662	50.222029
 408	4.0800e-001	112.121582	50.124947
 409	4.0900e-001	110.763550	50.160714
 410	4.1000e-001	109.596252	50.150495
 411	4.1100e-001	108.360291	50.359988
 412	4.1200e-001	107.223511	50.027865
 413	4.1300e-001	106.269836	50.017646
 414	4.1400e-001	104.911804	49.910345
 415	4.1500e-001	103.546143	49.966550
 416	4.1600e-001	102.523804	49.843921
 417	4.1700e-001	101.226807	49.588442
 418	4.1800e-001	99.937439	49.869468
 419	4.1900e-001	98.815918	49.787715
 420	4.2000e-001	97.755432	49.608880
 421	4.2100e-001	96.557617	49.639537
 422	4.2200e-001	95.115662	49.562894
 423	4.2300e-001	93.711853	49.251210
 424	4.2400e-001	92.697144	49.481141
 425	4.2500e-001	91.522217	49.368730
 426	4.2600e-001	90.415955	49.639537
 427	4.2700e-001	89.210510	49.409606
 428	4.2800e-001	87.905884	48.970183
 429	4.2900e-001	86.845398	49.138799
 430	4.3000e-001	85.777283	49.307415
 431	4.3100e-001	84.419250	49.011060
 432	4.3200e-001	83.305359	48.954854
 433	4.3300e-001	81.962585	48.970183
 434	4.3400e-001	80.757141	48.939525
 435	4.3500e-001	79.711914	48.852663
 436	4.3600e-001	78.468323	48.770909
 437	4.3700e-001	77.262878	48.735142
 438	4.3800e-001	75.775146	48.643170
 439	4.3900e-001	74.867249	48.627841
 440	4.4000e-001	73.516846	48.571636
 441	4.4100e-001	72.456360	48.535869
 442	4.4200e-001	71.243286	48.449006
 443	4.4300e-001	69.938660	48.357034
 444	4.4400e-001	69.023132	48.479664
 445	4.4500e-001	67.436218	48.321267
 446	4.4600e-001	66.421509	48.203746
 447	4.4700e-001	65.284729	48.198637
 448	4.4800e-001	63.941956	48.116884
 449	4.4900e-001	62.652588	48.040240
 450	4.5000e-001	61.660767	48.035130
 451	4.5100e-001	60.371399	47.999363
 452	4.5200e-001	59.143066	47.932939
 453	4.5300e-001	57.937622	47.723446
 454	4.5400e-001	56.701660	47.748994
 455	4.5500e-001	55.648804	47.723446
 456	4.5600e-001	54.626465	47.503734
 457	4.5700e-001	52.787781	47.815419
 458	4.5800e-001	52.330017	47.774542
 459	4.5900e-001	50.811768	47.488406
 460	4.6000e-001	49.613953	47.355557
 461	4.6100e-001	48.233032	47.294242
 462	4.6200e-001	47.225952	47.268694
 463	4.6300e-001	45.898438	47.171612
 464	4.6400e-001	44.784546	47.156283
 465	4.6500e-001	43.518066	47.355557
 466	4.6600e-001	42.373657	46.972338
 467	4.6700e-001	41.145325	46.665764
 468	4.6800e-001	40.069580	46.778174
 469	4.6900e-001	38.703918	46.778174
 470	4.7000e-001	37.651062	46.706640
 471	4.7100e-001	36.384583	46.655545
 472	4.7200e-001	34.767151	46.594230
 473	4.7300e-001	34.309387	46.512477
 474	4.7400e-001	32.775879	46.517586
 475	4.7500e-001	31.425476	46.389847
 476	4.7600e-001	30.319214	46.251888
 477	4.7700e-001	29.235840	46.195683
 478	4.7800e-001	27.969360	46.103710
 479	4.7900e-001	26.725769	46.113930
 480	4.8000e-001	25.405884	46.185464
 481	4.8100e-001	24.261475	45.868670
 482	4.8200e-001	23.002625	45.945313
 483	4.8300e-001	22.102356	45.909546
 484	4.8400e-001	20.690918	45.822684
 485	4.8500e-001	19.515991	45.710273
 486	4.8600e-001	18.363953	45.546767
 487	4.8700e-001	16.921997	45.454794
 488	4.8800e-001	16.250610	45.470123
 489	4.8900e-001	14.633179	45.219754
 490	4.9000e-001	13.603210	45.367931
 491	4.9100e-001	12.382507	45.132891
 492	4.9200e-001	11.207581	45.132891
 493	4.9300e-001	9.994507	45.168658
 494	4.9400e-001	8.666992	44.989823
 495	4.9500e-001	7.728577	44.652591
 496	4.9600e-001	6.416321	44.703686
 497	4.9700e-001	5.180359	44.627043
 498	4.9800e-001	3.921509	44.499303
 499	4.9900e-001	2.807617	44.468646
 500	5.0000e-001	1.571655	44.223386
 501	5.0100e-001	0.381470	44.284701
 502	5.0200e-001	-0.862122	44.064989
 503	5.0300e-001	-2.212524	43.722648
 504	5.0400e-001	-3.440857	43.942359
 505	5.0500e-001	-4.356384	43.548922
 506	5.0600e-001	-5.561829	43.324101
 507	5.0700e-001	-6.652832	43.181033
 508	5.0800e-001	-8.010864	43.078841
 509	5.0900e-001	-9.269714	42.843800
 510	5.1000e-001	-10.276794	42.455473
 511	5.1100e-001	-11.634827	42.230651
 512	5.1200e-001	-12.725830	41.939405
 513	5.1300e-001	-13.862610	41.377352
 514	5.1400e-001	-15.007019	40.978805
 515	5.1500e-001	-16.311646	40.319670
 516	5.1600e-001	-17.417908	39.788274
 517	5.1700e-001	-18.745422	38.904317
 518	5.1800e-001	-19.851685	38.214524
 519	5.1900e-001	-20.965576	37.299910
 520	5.2000e-001	-22.132874	36.180912
 521	5.2100e-001	-23.376465	35.036367
 522	5.2200e-001	-24.620056	33.794740
 523	5.2300e-001	-25.665283	32.195443
 524	5.2400e-001	-26.847839	30.499063
 525	5.2500e-001	-28.030396	28.598301
 526	5.2600e-001	-29.075623	26.804839
 527	5.2700e-001	-30.342102	24.566845
 528	5.2800e-001	-31.532288	22.175563
 529	5.2900e-001	-32.592773	19.768952
 530	5.3000e-001	-33.912659	16.974014
 531	5.3100e-001	-35.209656	14.265938
 532	5.3200e-001	-36.590576	11.343260
 533	5.3300e-001	-37.162781	8.451240
 534	5.3400e-001	-38.673401	5.283302
 535	5.3500e-001	-39.726257	2.672309
 536	5.3600e-001	-40.977478	-0.638697
 537	5.3700e-001	-42.366028	-3.525608
 538	5.3800e-001	-43.426514	-6.289889
 539	5.3900e-001	-44.799805	-8.706719
 540	5.4000e-001	-46.073914	-11.292164
 541	5.4100e-001	-47.149658	-13.494392
 542	5.4200e-001	-48.522949	-15.287853
 543	5.4300e-001	-49.835205	-17.163068
 544	5.4400e-001	-51.231384	-18.736818
 545	5.4500e-001	-52.169800	-20.126623
 546	5.4600e-001	-53.352356	-21.296716
 547	5.4700e-001	-54.641724	-22.451480
 548	5.4800e-001	-56.152344	-23.764641
 549	5.4900e-001	-57.159424	-24.607721
 550	5.5000e-001	-58.250427	-25.849348
 551	5.5100e-001	-59.410095	-26.283662
 552	5.5200e-001	-60.737610	-27.172729
 553	5.5300e-001	-61.950684	-27.995371
 554	5.5400e-001	-63.255310	-28.669835
 555	5.5500e-001	-64.308167	-29.400504
 556	5.5600e-001	-65.498352	-30.054530
 557	5.5700e-001	-66.802979	-30.642131
 558	5.5800e-001	-68.023682	-31.357472
 559	5.5900e-001	-69.168091	-31.863320
 560	5.6000e-001	-70.503235	-32.532675
 561	5.6100e-001	-71.609497	-32.915893
 562	5.6200e-001	-72.753906	-33.355317
 563	5.6300e-001	-73.951721	-34.080876
 564	5.6400e-001	-75.279236	-34.469204
 565	5.6500e-001	-76.400757	-34.929066
 566	5.6600e-001	-77.697754	-35.593311
 567	5.6700e-001	-78.857422	-36.002077
 568	5.6800e-001	-79.895020	-36.283104
 569	5.6900e-001	-81.367493	-36.615226
 570	5.7000e-001	-82.252502	-37.161951
 571	5.7100e-001	-83.442688	-37.422540
 572	5.7200e-001	-84.793091	-37.918169
 573	5.7300e-001	-86.174011	-38.214524
 574	5.7400e-001	-87.112427	-38.551756
 575	5.7500e-001	-88.386536	-38.894098
 576	5.7600e-001	-89.576721	-39.072933
 577	5.7700e-001	-91.026306	-39.134248
 578	5.7800e-001	-91.644287	-39.578781
 579	5.7900e-001	-93.238831	-40.079519
 580	5.8000e-001	-94.352722	-40.324779
 581	5.8100e-001	-95.588684	-40.534272
 582	5.8200e-001	-96.847534	-40.626244
 583	5.8300e-001	-98.121643	-41.070777
 584	5.8400e-001	-99.151611	-41.045229
 585	5.8500e-001	-100.456238	-41.474434
 586	5.8600e-001	-101.669312	-41.694146
 587	5.8700e-001	-102.821350	-41.842323
 588	5.8800e-001	-104.019165	-42.113131
 589	5.8900e-001	-105.278015	-42.189775
 590	5.9000e-001	-106.399536	-42.450363
 591	5.9100e-001	-107.467651	-42.521897
 592	5.9200e-001	-108.772278	-42.772266
 593	5.9300e-001	-109.756470	-42.762047
 594	5.9400e-001	-111.007690	-43.104389
 595	5.9500e-001	-112.457275	-42.991978
 596	5.9600e-001	-113.632202	-43.395635
 597	5.9700e-001	-114.799500	-43.656223
 598	5.9800e-001	-115.997314	-43.702209
 599	5.9900e-001	-117.294312	-43.875935
 600	6.0000e-001	-118.446350	-44.029222
 601	6.0100e-001	-119.750977	-44.085428
 602	6.0200e-001	-120.780945	-44.208057
 603	6.0300e-001	-122.116089	-44.443098
 604	6.0400e-001	-123.275757	-44.494194
 605	6.0500e-001	-124.336243	-44.647481
 606	6.0600e-001	-125.457764	-44.524851
 607	6.0700e-001	-126.770020	-44.933617
 608	6.0800e-001	-127.876282	-44.877412
 609	6.0900e-001	-129.257202	-45.015371
 610	6.1000e-001	-130.325317	-45.367931
 611	6.1100e-001	-131.622314	-45.403698
 612	6.1200e-001	-132.736206	-45.786917
 613	6.1300e-001	-133.995056	-45.807355
 614	6.1400e-001	-135.299683	-45.700054
 615	6.1500e-001	-136.535645	-45.960642
 616	6.1600e-001	-137.550354	-46.021957
 617	6.1700e-001	-138.778687	-46.124149
 618	6.1800e-001	-140.029907	-46.175244
 619	6.1900e-001	-141.258240	-46.287655
 620	6.2000e-001	-142.395020	-46.389847
 621	6.2100e-001	-143.669128	-46.538024
 622	6.2200e-001	-144.882202	-46.655545
 623	6.2300e-001	-146.484375	-47.008105
 624	6.2400e-001	-147.186279	-46.849709
 625	6.2500e-001	-148.529053	-46.890585
 626	6.2600e-001	-149.726868	-46.987667
 627	6.2700e-001	-150.909424	-47.151174
 628	6.2800e-001	-151.954651	-47.401543
 629	6.2900e-001	-153.297424	-47.335118
 630	6.3000e-001	-154.479980	-47.278913
 631	6.3100e-001	-155.738831	-47.370885
 632	6.3200e-001	-156.799316	-47.657022
 633	6.3300e-001	-157.981873	-47.549721
 634	6.3400e-001	-159.141541	-47.667241
 635	6.3500e-001	-160.453796	-47.830747
 636	6.3600e-001	-161.705017	-47.907391
 637	6.3700e-001	-162.963867	-47.932939
 638	6.3800e-001	-163.650513	-47.800090
 639	6.3900e-001	-165.374756	-48.188418
 640	6.4000e-001	-166.427612	-48.295719
 641	6.4100e-001	-167.732239	-48.280390
 642	6.4200e-001	-168.991089	-48.438787
 643	6.4300e-001	-170.135498	-48.459225
 644	6.4400e-001	-171.348572	-48.658499
 645	6.4500e-001	-172.538757	-48.643170
 646	6.4600e-001	-173.675537	-48.658499
 647	6.4700e-001	-174.911499	-48.873101
 648	6.4800e-001	-176.094055	-48.857772
 649	6.4900e-001	-177.200317	-48.832224
 650	6.5000e-001	-178.520203	-49.062155
 651	6.5100e-001	-179.763794	-49.123470
 652	6.5200e-001	-180.923462	-49.123470
 653	6.5300e-001	-181.678772	-49.220552
 654	6.5400e-001	-183.357239	-49.292086
 655	6.5500e-001	-184.448242	-49.378949
 656	6.5600e-001	-185.501099	-49.527127
 657	6.5700e-001	-186.965942	-49.460702
 658	6.5800e-001	-188.156128	-49.685524
 659	6.5900e-001	-189.262390	-49.343182
 660	6.6000e-001	-190.475464	-49.368730
 661	6.6100e-001	-191.650391	-49.818373
 662	6.6200e-001	-192.993164	-49.864359
 663	6.6300e-001	-194.145203	-49.935893
 664	6.6400e-001	-195.343018	-49.843921
 665	6.6500e-001	-196.434021	-50.084071
 666	6.6600e-001	-197.830200	-50.140276
 667	6.6700e-001	-198.875427	-50.247577
 668	6.6800e-001	-199.829102	-50.319111
 669	6.6900e-001	-201.660156	-50.528604
 670	6.7000e-001	-202.468872	-50.446851
 671	6.7100e-001	-203.598022	-50.487727
 672	6.7200e-001	-205.047607	-50.574590
 673	6.7300e-001	-205.955505	-50.738096
 674	6.7400e-001	-207.168579	-50.426412
 675	6.7500e-001	-208.496094	-50.666562
 676	6.7600e-001	-209.564209	-50.824959
 677	6.7700e-001	-210.792542	-50.927151
 678	6.7800e-001	-212.348938	-50.973137
 679	6.7900e-001	-213.165283	-51.039561
 680	6.8000e-001	-214.569092	-51.151972
 681	6.8100e-001	-215.660095	-51.116205
 682	6.8200e-001	-216.827393	-51.141753
 683	6.8300e-001	-218.017578	-51.223506
 684	6.8400e-001	-218.780518	-51.065109
 685	6.8500e-001	-220.611572	-51.402341
 686	6.8600e-001	-221.626282	-51.478985
 687	6.8700e-001	-222.976685	-51.586286
 688	6.8800e-001	-224.090576	-51.918409
 689	6.8900e-001	-225.234985	-51.678259
 690	6.9000e-001	-226.593018	-51.719135
 691	6.9100e-001	-227.767944	-51.754902
 692	6.9200e-001	-228.874207	-51.811108
 693	6.9300e-001	-230.209351	-51.790669
 694	6.9400e-001	-231.269836	-52.041038
 695	6.9500e-001	-232.696533	-52.051258
 696	6.9600e-001	-233.734131	-52.071696
 697	6.9700e-001	-234.947205	-51.938847
 698	6.9800e-001	-236.099243	-52.245422
 699	6.9900e-001	-237.983704	-52.623530
 700	7.0000e-001	-238.487244	-52.250531
 701	7.0100e-001	-239.730835	-52.316956
 702	7.0200e-001	-241.065979	-52.414038
 703	7.0300e-001	-242.034912	-52.551996
 704	7.0400e-001	-243.255615	-52.230093
 705	7.0500e-001	-244.491577	-52.531558
 706	7.0600e-001	-245.597839	-52.608201
 707	7.0700e-001	-246.795654	-52.710393
 708	7.0800e-001	-248.146057	-52.751270
 709	7.0900e-001	-249.382019	-52.812585
 710	7.1000e-001	-250.602722	-52.833023
 711	7.1100e-001	-251.785278	-52.873899
 712	7.1200e-001	-252.868652	-53.129378
 713	7.1300e-001	-254.035950	-53.022077
 714	7.1400e-001	-255.035400	-52.649078
 715	7.1500e-001	-256.347656	-52.950543
 716	7.1600e-001	-257.789612	-53.124269
 717	7.1700e-001	-259.124756	-53.216241
 718	7.1800e-001	-260.162354	-53.430843
 719	7.1900e-001	-261.283875	-53.395076
 720	7.2000e-001	-262.542725	-53.343981
 721	7.2100e-001	-263.763428	-53.487049
 722	7.2200e-001	-265.029907	-53.451282
 723	7.2300e-001	-266.342163	-53.614788
 724	7.2400e-001	-267.211914	-53.650555
 725	7.2500e-001	-268.600464	-53.573911
 726	7.2600e-001	-269.950867	-53.757856
 727	7.2700e-001	-271.110535	-53.538144
 728	7.2800e-001	-272.201538	-53.824281
 729	7.2900e-001	-273.651123	-53.926472
 730	7.3000e-001	-274.330139	-53.895815
 731	7.3100e-001	-275.703430	-53.972458
 732	7.3200e-001	-277.038574	-54.115527
 733	7.3300e-001	-278.259277	-54.151294
 734	7.3400e-001	-279.312134	-54.534512
 735	7.3500e-001	-280.731201	-54.243266
 736	7.3600e-001	-281.784058	-54.202389
 737	7.3700e-001	-282.897949	-54.176842
 738	7.3800e-001	-284.309387	-54.401663
 739	7.3900e-001	-285.308838	-54.360786
 740	7.4000e-001	-286.392212	-54.360786
 741	7.4100e-001	-287.193298	-54.273923
 742	7.4200e-001	-289.062500	-54.560060
 743	7.4300e-001	-290.313721	-54.447649
 744	7.4400e-001	-291.458130	-54.600936
 745	7.4500e-001	-293.113708	-55.193647
 746	7.4600e-001	-293.914795	-54.820648
 747	7.4700e-001	-295.059204	-54.810429
 748	7.4800e-001	-296.241760	-54.897292
 749	7.4900e-001	-297.447205	-55.106784
 750	7.5000e-001	-298.599243	-54.922840
 751	7.5100e-001	-299.598694	-54.968826
 752	7.5200e-001	-298.675537	-55.081237
 753	7.5300e-001	-297.744751	-55.030141
 754	7.5400e-001	-296.447754	-54.800210
 755	7.5500e-001	-295.227051	-54.933059
 756	7.5600e-001	-294.044495	-54.938168
 757	7.5700e-001	-292.877197	-54.866634
 758	7.5800e-001	-291.549683	-54.789991
 759	7.5900e-001	-290.466309	-54.846196
 760	7.6000e-001	-289.253235	-54.856415
 761	7.6100e-001	-287.834167	-54.754224
 762	7.6200e-001	-286.911011	-54.866634
 763	7.6300e-001	-285.491943	-54.233047
 764	7.6400e-001	-284.477234	-54.897292
 765	7.6500e-001	-283.218384	-54.590717
 766	7.6600e-001	-281.982422	-54.641813
 767	7.6700e-001	-280.738831	-54.570279
 768	7.6800e-001	-279.785156	-54.682690
 769	7.6900e-001	-278.396606	-54.560060
 770	7.7000e-001	-277.160645	-54.560060
 771	7.7100e-001	-276.222229	-54.575389
 772	7.7200e-001	-274.948120	-54.657142
 773	7.7300e-001	-273.513794	-54.427211
 774	7.7400e-001	-272.460938	-54.462978
 775	7.7500e-001	-271.293640	-54.427211
 776	7.7600e-001	-270.149231	-54.432320
 777	7.7700e-001	-268.692017	-54.248376
 778	7.7800e-001	-267.677307	-54.243266
 779	7.7900e-001	-266.258240	-54.284143
 780	7.8000e-001	-265.144348	-54.248376
 781	7.8100e-001	-264.099121	-54.299471
 782	7.8200e-001	-262.817383	-54.197280
 783	7.8300e-001	-261.749268	-54.146184
 784	7.8400e-001	-260.246277	-54.207499
 785	7.8500e-001	-259.262085	-54.115527
 786	7.8600e-001	-258.041382	-54.038883
 787	7.8700e-001	-255.477905	-53.594350
 788	7.8800e-001	-255.531311	-54.059321
 789	7.8900e-001	-254.455566	-53.946911
 790	7.9000e-001	-253.128052	-53.921363
 791	7.9100e-001	-251.892090	-53.814062
 792	7.9200e-001	-250.854492	-53.977568
 793	7.9300e-001	-249.740601	-53.527925
 794	7.9400e-001	-248.313904	-53.711870
 795	7.9500e-001	-247.146606	-53.681213
 796	7.9600e-001	-245.925903	-53.773185
 797	7.9700e-001	-244.827271	-53.737418
 798	7.9800e-001	-243.629456	-53.762966
 799	7.9900e-001	-242.469788	-53.655665
 800	8.0000e-001	-241.012573	-53.553473
 801	8.0100e-001	-240.386963	-53.594350
 802	8.0200e-001	-238.861084	-53.533035
 803	8.0300e-001	-237.525940	-53.614788
 804	8.0400e-001	-236.480713	-53.568802
 805	8.0500e-001	-235.244751	-53.430843
 806	8.0600e-001	-233.993530	-53.425734
 807	8.0700e-001	-232.284546	-53.149817
 808	8.0800e-001	-231.460571	-53.216241
 809	8.0900e-001	-230.354309	-53.246899
 810	8.1000e-001	-229.209900	-53.323542
 811	8.1100e-001	-228.118896	-53.195803
 812	8.1200e-001	-226.661682	-53.190693
 813	8.1300e-001	-225.624084	-53.119159
 814	8.1400e-001	-224.296570	-53.129378
 815	8.1500e-001	-223.175049	-53.093611
 816	8.1600e-001	-222.023010	-52.991420
 817	8.1700e-001	-220.664978	-52.976091
 818	8.1800e-001	-220.314026	-53.062954
 819	8.1900e-001	-218.338013	-52.945434
 820	8.2000e-001	-217.147827	-52.863680
 821	8.2100e-001	-216.072083	-52.792146
 822	8.2200e-001	-215.896606	-53.073173
 823	8.2300e-001	-213.462830	-52.557106
 824	8.2400e-001	-212.387085	-52.649078
 825	8.2500e-001	-211.227417	-52.756379
 826	8.2600e-001	-209.930420	-52.664407
 827	8.2700e-001	-208.663940	-52.628640
 828	8.2800e-001	-207.687378	-52.618421
 829	8.2900e-001	-206.398010	-52.383380
 830	8.3000e-001	-205.070496	-52.475352
 831	8.3100e-001	-203.956604	-52.470243
 832	8.3200e-001	-202.751160	-52.408928
 833	8.3300e-001	-201.400757	-52.209655
 834	8.3400e-001	-200.546265	-52.270969
 835	8.3500e-001	-199.142456	-52.245422
 836	8.3600e-001	-197.914124	-52.010381
 837	8.3700e-001	-196.792603	-52.214764
 838	8.3800e-001	-195.777893	-52.092134
 839	8.3900e-001	-194.290161	-52.102353
 840	8.4000e-001	-193.229675	-52.000162
 841	8.4100e-001	-191.978455	-51.974614
 842	8.4200e-001	-190.765381	-51.949066
 843	8.4300e-001	-189.613342	-51.913299
 844	8.4400e-001	-188.552856	-51.938847
 845	8.4500e-001	-187.095642	-51.923518
 846	8.4600e-001	-186.012268	-51.780450
 847	8.4700e-001	-184.837341	-51.775340
 848	8.4800e-001	-183.456421	-52.291408
 849	8.4900e-001	-182.289124	-51.489204
 850	8.5000e-001	-181.144714	-51.647601
 851	8.5100e-001	-179.878235	-51.570957
 852	8.5200e-001	-178.848267	-51.443218
 853	8.5300e-001	-176.994324	-51.167301
 854	8.5400e-001	-176.170349	-51.402341
 855	8.5500e-001	-175.033569	-51.376794
 856	8.5600e-001	-174.026489	-51.366574
 857	8.5700e-001	-172.775269	-50.962918
 858	8.5800e-001	-171.501160	-51.371684
 859	8.5900e-001	-170.349121	-51.223506
 860	8.6000e-001	-169.174194	-51.167301
 861	8.6100e-001	-167.922974	-51.075328
 862	8.6200e-001	-166.755676	-51.075328
 863	8.6300e-001	-165.489197	-50.579700
 864	8.6400e-001	-164.680481	-50.932260
 865	8.6500e-001	-163.101196	-50.962918
 866	8.6600e-001	-162.185669	-50.824959
 867	8.6700e-001	-160.652161	-50.753425
 868	8.6800e-001	-159.187317	-50.610357
 869	8.6900e-001	-158.622742	-50.855617
 870	8.7000e-001	-157.142639	-50.687001
 871	8.7100e-001	-155.990601	-50.656343
 872	8.7200e-001	-154.502869	-50.431522
 873	8.7300e-001	-153.709412	-50.697220
 874	8.7400e-001	-152.435303	-50.477508
 875	8.7500e-001	-150.947571	-50.411084
 876	8.7600e-001	-149.932861	-50.334440
 877	8.7700e-001	-148.742676	-50.339549
 878	8.7800e-001	-147.430420	-50.421303
 879	8.7900e-001	-146.347046	-50.237358
 880	8.8000e-001	-145.126343	-50.119838
 881	8.8100e-001	-143.928528	-50.048304
 882	8.8200e-001	-142.761230	-50.237358
 883	8.8300e-001	-141.502380	-50.114728
 884	8.8400e-001	-140.190125	-49.838811
 885	8.8500e-001	-139.366150	-49.951222
 886	8.8600e-001	-137.878418	-49.920564
 887	8.8700e-001	-136.657715	-49.828592
 888	8.8800e-001	-135.581970	-49.808153
 889	8.8900e-001	-134.223938	-49.741729
 890	8.9000e-001	-133.049011	-49.557784
 891	8.9100e-001	-131.896973	-49.593551
 892	8.9200e-001	-130.691528	-49.557784
 893	8.9300e-001	-129.661560	-49.501579
 894	8.9400e-001	-128.211975	-49.481141
 895	8.9500e-001	-126.617432	-49.087703
 896	8.9600e-001	-125.778198	-49.256319
 897	8.9700e-001	-124.847412	-49.338072
 898	8.9800e-001	-123.458862	-49.343182
 899	8.9900e-001	-121.665955	-48.648280
 900	9.0000e-001	-121.078491	-48.939525
 901	9.0100e-001	-119.842529	-48.954854
 902	9.0200e-001	-118.850708	-48.908868
 903	9.0300e-001	-117.378235	-48.689156
 904	9.0400e-001	-116.386414	-48.791348
 905	9.0500e-001	-115.173340	-48.760690
 906	9.0600e-001	-113.983154	-48.627841
 907	9.0700e-001	-112.609863	-48.617622
 908	9.0800e-001	-111.511230	-48.689156
 909	9.0900e-001	-110.282898	-48.546088
 910	9.1000e-001	-110.092163	-48.597184
 911	9.1100e-001	-107.925415	-48.423458
 912	9.1200e-001	-106.689453	-48.132212
 913	9.1300e-001	-105.522156	-48.178199
 914	9.1400e-001	-104.400635	-48.198637
 915	9.1500e-001	-102.455139	-47.994254
 916	9.1600e-001	-101.997375	-48.101555
 917	9.1700e-001	-100.708008	-47.907391
 918	9.1800e-001	-99.426270	-47.846076
 919	9.1900e-001	-98.335266	-48.070897
 920	9.2000e-001	-97.198486	-47.764323
 921	9.2100e-001	-95.848083	-47.631474
 922	9.2200e-001	-94.619751	-47.605926
 923	9.2300e-001	-93.467712	-47.641693
 924	9.2400e-001	-92.308044	-47.519063
 925	9.2500e-001	-91.255188	-47.335118
 926	9.2600e-001	-89.782715	-47.350447
 927	9.2700e-001	-88.607788	-47.605926
 928	9.2800e-001	-87.554932	-47.391324
 929	9.2900e-001	-86.235046	-47.105187
 930	9.3000e-001	-85.716248	-47.365776
 931	9.3100e-001	-83.992004	-47.284023
 932	9.3200e-001	-82.771301	-46.865037
 933	9.3300e-001	-81.550598	-46.865037
 934	9.3400e-001	-80.291748	-46.870147
 935	9.3500e-001	-79.185486	-46.681093
 936	9.3600e-001	-77.865601	-46.594230
 937	9.3700e-001	-76.713562	-46.670873
 938	9.3800e-001	-75.500488	-46.481819
 939	9.3900e-001	-74.325562	-46.415395
 940	9.4000e-001	-72.906494	-46.180354
 941	9.4100e-001	-71.937561	-46.205902
 942	9.4200e-001	-70.640564	-45.986190
 943	9.4300e-001	-69.381714	-46.175244
 944	9.4400e-001	-68.260193	-45.965752
 945	9.4500e-001	-67.337036	-45.812465
 946	9.4600e-001	-65.505981	-45.761369
 947	9.4700e-001	-64.842224	-45.792026
 948	9.4800e-001	-63.476563	-45.689835
 949	9.4900e-001	-62.446594	-45.715383
 950	9.5000e-001	-61.164856	-45.505890
 951	9.5100e-001	-59.783936	-45.398589
 952	9.5200e-001	-58.700562	-45.393479
 953	9.5300e-001	-57.510376	-45.189096
 954	9.5400e-001	-56.182861	-45.127781
 955	9.5500e-001	-55.015564	-45.122672
 956	9.5600e-001	-53.955078	-45.286178
 957	9.5700e-001	-52.749634	-44.724125
 958	9.5800e-001	-51.467896	-44.862083
 959	9.5900e-001	-50.285339	-44.770111
 960	9.6000e-001	-49.011230	-44.601495
 961	9.6100e-001	-48.431396	-44.734344
 962	9.6200e-001	-46.607971	-44.427769
 963	9.6300e-001	-45.471191	-44.376673
 964	9.6400e-001	-44.158936	-44.274482
 965	9.6500e-001	-43.167114	-44.218277
 966	9.6600e-001	-41.854858	-43.983236
 967	9.6700e-001	-40.725708	-43.860606
 968	9.6800e-001	-39.543152	-43.988346
 969	9.6900e-001	-38.337708	-43.717538
 970	9.7000e-001	-37.124634	-43.594908
 971	9.7100e-001	-35.842896	-43.329210
 972	9.7200e-001	-34.584045	-43.518265
 973	9.7300e-001	-33.508301	-43.477388
 974	9.7400e-001	-32.279968	-43.191252
 975	9.7500e-001	-31.097412	-43.027745
 976	9.7600e-001	-30.456543	-43.257676
 977	9.7700e-001	-28.846741	-42.772266
 978	9.7800e-001	-27.404785	-42.629198
 979	9.7900e-001	-26.283264	-42.624089
 980	9.8000e-001	-25.054932	-42.389048
 981	9.8100e-001	-23.826599	-42.286857
 982	9.8200e-001	-22.796631	-42.189775
 983	9.8300e-001	-21.453857	-42.056926
 984	9.8400e-001	-20.172119	-41.775899
 985	9.8500e-001	-19.279480	-41.689036
 986	9.8600e-001	-17.990112	-41.668598
 987	9.8700e-001	-16.807556	-41.494872
 988	9.8800e-001	-15.472412	-41.065668
 989	9.8900e-001	-14.274597	-41.050339
 990	9.9000e-001	-13.969421	-41.775899
 991	9.9100e-001	-11.901855	-40.810189
 992	9.9200e-001	-10.581970	-40.636463
 993	9.9300e-001	-9.429932	-40.329889
 994	9.9400e-001	-8.247375	-40.324779
 995	9.9500e-001	-7.118225	-40.166382
 996	9.9600e-001	-5.912781	-39.645205
 997	9.9700e-001	-4.608154	-39.752507
 998	9.9800e-001	-3.486633	-39.568562
 999	9.9900e-001	-2.220154	-39.307973
1000	1.0000e+000	-1.129150	-39.021837
1001	1.0010e+000	0.320435	-38.858331
1002	1.0020e+000	1.266479	-38.689715
1003	1.0030e+000	2.449036	-38.582414
1004	1.0040e+000	3.547668	-38.132771
1005	1.0050e+000	6.088257	-37.662690
1006	1.0060e+000	6.111145	-37.897730
1007	1.0070e+000	7.194519	-37.718895
1008	1.0080e+000	8.499146	-37.432759
1009	1.0090e+000	9.536743	-37.402101
1010	1.0100e+000	10.765076	-37.095527
1011	1.0110e+000	12.207031	-36.794062
1012	1.0120e+000	13.336182	-36.676541
1013	1.0130e+000	14.526367	-36.579459
1014	1.0140e+000	15.663147	-36.186022
1015	1.0150e+000	16.777039	-35.700612
1016	1.0160e+000	18.211365	-35.802804
1017	1.0170e+000	19.302368	-35.618859
1018	1.0180e+000	20.446777	-35.388928
1019	1.0190e+000	21.545410	-35.199874
1020	1.0200e+000	23.010254	-35.031258
1021	1.0210e+000	23.742676	-34.811546
1022	1.0220e+000	25.329590	-34.525410
1023	1.0230e+000	26.435852	-34.269931
1024	1.0240e+000	27.496338	-34.157520
1025	1.0250e+000	28.793335	-33.810069
1026	1.0260e+000	30.105591	-33.615905
1027	1.0270e+000	31.234741	-33.462618
1028	1.0280e+000	32.447815	-33.248015
1029	1.0290e+000	33.790588	-32.818811
1030	1.0300e+000	35.003662	-32.568442
1031	1.0310e+000	35.995483	-32.312963
1032	1.0320e+000	37.231445	-32.031936
1033	1.0330e+000	38.452148	-31.311486
1034	1.0340e+000	39.756775	-31.229733
1035	1.0350e+000	40.740967	-31.413677
1036	1.0360e+000	42.167664	-30.616583
1037	1.0370e+000	43.228149	-30.044311
1038	1.0380e+000	44.555664	-29.625326
1039	1.0390e+000	45.478821	-29.318751
1040	1.0400e+000	46.836853	-28.756698
1041	1.0410e+000	47.897339	-28.184425
1042	1.0420e+000	48.843384	-28.000480
1043	1.0430e+000	50.354004	-27.152290
1044	1.0440e+000	51.696777	-26.590237
1045	1.0450e+000	52.619934	-26.023074
1046	1.0460e+000	53.924561	-25.338391
1047	1.0470e+000	55.290222	-24.582173
1048	1.0480e+000	56.526184	-23.851504
1049	1.0490e+000	57.304382	-23.151492
1050	1.0500e+000	58.746338	-22.415713
1051	1.0510e+000	59.944153	-21.598181
1052	1.0520e+000	61.187744	-20.382101
1053	1.0530e+000	62.370300	-19.533912
1054	1.0540e+000	63.446045	-18.425134
1055	1.0550e+000	64.834595	-17.280588
1056	1.0560e+000	65.940857	-16.136043
1057	1.0570e+000	67.123413	-14.853539
1058	1.0580e+000	68.260193	-13.356433
1059	1.0590e+000	69.618225	-12.339628
1060	1.0600e+000	70.594788	-10.837412
1061	1.0610e+000	71.975708	-9.268772
1062	1.0620e+000	73.074341	-7.434434
1063	1.0630e+000	74.417114	-5.891342
1064	1.0640e+000	75.553894	-4.189853
1065	1.0650e+000	76.828003	-2.212447
1066	1.0660e+000	77.827454	-0.362780
1067	1.0670e+000	78.956604	1.573750
1068	1.0680e+000	80.284119	3.709553
1069	1.0690e+000	81.344604	5.809589
1070	1.0700e+000	82.618713	7.889186
1071	1.0710e+000	83.961487	10.173167
1072	1.0720e+000	84.938049	12.426490
1073	1.0730e+000	86.158752	14.664485
1074	1.0740e+000	87.409973	16.953575
1075	1.0750e+000	88.531494	19.298871
1076	1.0760e+000	89.744568	21.557304
1077	1.0770e+000	91.102600	23.866833
1078	1.0780e+000	92.185974	26.247895
1079	1.0790e+000	92.697144	28.240630
1080	1.0800e+000	94.650269	30.534830
1081	1.0810e+000	95.840454	32.502017
1082	1.0820e+000	97.061157	34.653149
1083	1.0830e+000	98.258972	36.308652
1084	1.0840e+000	99.426270	37.953936
1085	1.0850e+000	100.677490	39.394836
1086	1.0860e+000	102.050781	40.856175
1087	1.0870e+000	103.149414	41.970063
1088	1.0880e+000	104.316711	42.966430
1089	1.0890e+000	105.659485	43.865716
1090	1.0900e+000	106.933594	44.581057
1091	1.0910e+000	107.933044	45.071576
1092	1.0920e+000	109.390259	45.648958
1093	1.0930e+000	110.511780	46.154806
1094	1.0940e+000	112.113953	46.793503
1095	1.0950e+000	113.136292	46.962119
1096	1.0960e+000	114.112854	46.992777
1097	1.0970e+000	115.303040	47.340228
1098	1.0980e+000	116.493225	47.559940
1099	1.0990e+000	117.744446	47.621255
1100	1.1000e+000	118.927002	47.779652
1101	1.1010e+000	120.101929	48.035130
1102	1.1020e+000	121.345520	48.183308
1103	1.1030e+000	122.581482	48.173089
1104	1.1040e+000	123.588562	48.316157
1105	1.1050e+000	124.961853	48.408129
1106	1.1060e+000	126.091003	48.535869
1107	1.1070e+000	127.380371	48.586965
1108	1.1080e+000	127.632141	47.897172
1109	1.1090e+000	129.920959	48.709594
1110	1.1100e+000	131.034851	48.755581
1111	1.1110e+000	131.965637	48.919087
1112	1.1120e+000	133.415222	49.005950
1113	1.1130e+000	134.559631	49.092813
1114	1.1140e+000	135.726929	49.256319
1115	1.1150e+000	137.031555	49.353401
1116	1.1160e+000	138.244629	49.414716
1117	1.1170e+000	139.251709	49.440264
1118	1.1180e+000	140.548706	49.414716
1119	1.1190e+000	142.044067	49.649757
1120	1.1200e+000	143.058777	49.624209
1121	1.1210e+000	144.126892	49.659976
1122	1.1220e+000	145.507813	49.690633
1123	1.1230e+000	145.912170	49.644647
1124	1.1240e+000	147.674561	49.854140
1125	1.1250e+000	149.063110	49.828592
1126	1.1260e+000	150.085449	49.956331
1127	1.1270e+000	151.405334	50.165824
1128	1.1280e+000	152.595520	50.262906
1129	1.1290e+000	153.686523	49.578223
1130	1.1300e+000	154.838562	50.324221
1131	1.1310e+000	156.173706	50.436631
1132	1.1320e+000	157.333374	50.651234
1133	1.1330e+000	158.500671	50.518385
1134	1.1340e+000	159.950256	50.462179
1135	1.1350e+000	161.048889	50.605247
1136	1.1360e+000	162.338257	50.584809
1137	1.1370e+000	163.375854	50.635905
1138	1.1380e+000	164.855957	50.927151
1139	1.1390e+000	165.580750	50.799411
1140	1.1400e+000	166.893005	50.876055
1141	1.1410e+000	168.182373	50.901603
1142	1.1420e+000	169.319153	50.901603
1143	1.1430e+000	170.669556	51.060000
1144	1.1440e+000	172.019958	51.121315
1145	1.1450e+000	172.935486	50.727877
1146	1.1460e+000	174.209595	51.274602
1147	1.1470e+000	175.338745	51.187739
1148	1.1480e+000	176.658630	51.218397
1149	1.1490e+000	177.764893	51.315479
1150	1.1500e+000	178.932190	51.325698
1151	1.1510e+000	180.244446	51.499423
1152	1.1520e+000	181.510925	51.484095
1153	1.1530e+000	182.403564	51.427889
1154	1.1540e+000	183.853149	51.719135
1155	1.1550e+000	184.989929	51.698697
1156	1.1560e+000	186.134338	51.795779
1157	1.1570e+000	187.484741	51.724245
1158	1.1580e+000	188.560486	51.836655
1159	1.1590e+000	189.826965	51.673149
1160	1.1600e+000	190.856934	51.923518
1161	1.1610e+000	192.138672	51.949066
1162	1.1620e+000	193.328857	51.918409
1163	1.1630e+000	195.556641	52.301627
1164	1.1640e+000	195.854187	52.102353
1165	1.1650e+000	196.968079	52.260750
1166	1.1660e+000	198.158264	52.071696
1167	1.1670e+000	199.882507	52.403818
1168	1.1680e+000	200.630188	52.291408
1169	1.1690e+000	201.820374	52.368051
1170	1.1700e+000	202.957153	52.378271
1171	1.1710e+000	204.193115	52.352723
1172	1.1720e+000	205.368042	52.434476
1173	1.1730e+000	206.504822	52.347613
1174	1.1740e+000	207.923889	52.500900
1175	1.1750e+000	208.892822	52.551996
1176	1.1760e+000	210.227966	52.306736
1177	1.1770e+000	211.265564	52.454914
1178	1.1780e+000	211.967468	52.434476
1179	1.1790e+000	213.836670	52.649078
1180	1.1800e+000	214.881897	52.720612
1181	1.1810e+000	216.308594	52.817694
1182	1.1820e+000	217.102051	52.649078
1183	1.1830e+000	218.666077	53.032296
1184	1.1840e+000	219.642639	52.950543
1185	1.1850e+000	221.031189	53.052735
1186	1.1860e+000	222.274780	53.006748
1187	1.1870e+000	223.373413	53.175364
1188	1.1880e+000	224.632263	53.236679
1189	1.1890e+000	225.769043	53.144707
1190	1.1900e+000	227.104187	53.144707
1191	1.1910e+000	228.172302	53.267337
1192	1.1920e+000	229.461670	53.195803
1193	1.1930e+000	230.865479	53.466610
1194	1.1940e+000	231.880188	53.333761
1195	1.1950e+000	232.978821	53.430843
1196	1.1960e+000	234.138489	53.533035
1197	1.1970e+000	235.382080	53.512597
1198	1.1980e+000	236.488342	53.609679
1199	1.1990e+000	237.815857	53.584131
1200	1.2000e+000	239.105225	53.625007
1201	1.2010e+000	240.219116	53.665884
1202	1.2020e+000	241.447449	53.701651
1203	1.2030e+000	242.622375	53.742528
1204	1.2040e+000	243.820190	53.808952
1205	1.2050e+000	245.071411	53.793623
1206	1.2060e+000	246.170044	53.512597
1207	1.2070e+000	247.383118	53.916253
1208	1.2080e+000	248.497009	53.589240
1209	1.2090e+000	250.083923	53.895815
1210	1.2100e+000	250.930786	54.043993
1211	1.2110e+000	252.052307	54.110417
1212	1.2120e+000	253.128052	53.921363
1213	1.2130e+000	254.669189	54.197280
1214	1.2140e+000	255.867004	54.314800
1215	1.2150e+000	257.003784	54.365896
1216	1.2160e+000	258.193970	54.243266
1217	1.2170e+000	259.346008	54.411882
1218	1.2180e+000	260.437012	54.411882
1219	1.2190e+000	261.688232	54.503854
1220	1.2200e+000	263.137817	54.462978
1221	1.2210e+000	264.259338	54.493635
1222	1.2220e+000	265.205383	54.519183
1223	1.2230e+000	266.593933	54.345458
1224	1.2240e+000	267.768860	54.529402
1225	1.2250e+000	268.928528	54.728676
1226	1.2260e+000	270.278931	54.881963
1227	1.2270e+000	271.728516	54.810429
1228	1.2280e+000	272.560120	54.805319
1229	1.2290e+000	273.803711	54.917730
1230	1.2300e+000	274.978638	54.759333
1231	1.2310e+000	276.123047	54.943278
1232	1.2320e+000	277.458191	55.040360
1233	1.2330e+000	278.594971	54.989264
1234	1.2340e+000	279.747009	54.754224
1235	1.2350e+000	281.105042	55.050579
1236	1.2360e+000	282.180786	55.101675
1237	1.2370e+000	284.141541	55.602413
1238	1.2380e+000	284.507751	55.152771
1239	1.2390e+000	285.850525	55.413359
1240	1.2400e+000	287.025452	55.239633
1241	1.2410e+000	288.444519	55.331606
1242	1.2420e+000	289.291382	55.352044
1243	1.2430e+000	290.489197	55.607523
1244	1.2440e+000	291.801453	55.403140
1245	1.2450e+000	292.999268	55.505331
1246	1.2460e+000	294.303894	55.311168
1247	1.2470e+000	295.471191	55.530879
1248	1.2480e+000	296.630859	55.581975
1249	1.2490e+000	297.836304	55.581975
1250	1.2500e+000	299.079895	55.811906
1251	1.2510e+000	300.323486	55.817016
1252	1.2520e+000	299.446106	55.709715
1253	1.2530e+000	298.011780	55.719934
1254	1.2540e+000	296.936035	55.689276
1255	1.2550e+000	295.349121	55.725043
1256	1.2560e+000	294.822693	55.704605
1257	1.2570e+000	293.289185	55.520660
1258	1.2580e+000	292.091370	55.556427
1259	1.2590e+000	290.878296	55.530879
1260	1.2600e+000	289.703369	55.520660
1261	1.2610e+000	288.627625	55.530879
1262	1.2620e+000	287.384033	55.530879
1263	1.2630e+000	286.178589	55.459345
1264	1.2640e+000	284.751892	55.423578
1265	1.2650e+000	283.668518	55.449126
1266	1.2660e+000	282.539368	55.474674
1267	1.2670e+000	281.196594	55.357154
1268	1.2680e+000	280.204773	55.418469
1269	1.2690e+000	278.846741	55.275401
1270	1.2700e+000	277.610779	55.602413
1271	1.2710e+000	276.527405	55.254962
1272	1.2720e+000	275.451660	55.208976
1273	1.2730e+000	274.147034	55.326496
1274	1.2740e+000	272.964478	55.214086
1275	1.2750e+000	271.697998	55.117004
1276	1.2760e+000	270.576477	55.055689
1277	1.2770e+000	269.409180	55.132332
1278	1.2780e+000	267.982483	55.111894
1279	1.2790e+000	266.883850	55.025031
1280	1.2800e+000	265.777588	54.953497
1281	1.2810e+000	264.427185	54.774662
1282	1.2820e+000	263.374329	54.861525
1283	1.2830e+000	262.023926	54.830867
1284	1.2840e+000	260.932922	54.887073
1285	1.2850e+000	259.529114	54.784881
1286	1.2860e+000	258.445740	54.958607
1287	1.2870e+000	257.064819	54.657142
1288	1.2880e+000	256.340027	54.938168
1289	1.2890e+000	254.829407	54.698018
1290	1.2900e+000	253.784180	54.667361
1291	1.2910e+000	252.586365	54.611156
1292	1.2920e+000	251.365662	54.350567
1293	1.2930e+000	250.068665	54.580498
1294	1.2940e+000	248.908997	54.447649
1295	1.2950e+000	247.840881	54.672470
1296	1.2960e+000	246.566772	54.631594
1297	1.2970e+000	245.292664	54.411882
1298	1.2980e+000	243.988037	54.416992
1299	1.2990e+000	242.996216	54.355677
1300	1.3000e+000	241.752625	54.330129
1301	1.3010e+000	240.547180	54.166622
1302	1.3020e+000	239.410400	54.258595
1303	1.3030e+000	238.037109	54.294362
1304	1.3040e+000	237.159729	54.330129
1305	1.3050e+000	235.694885	54.181951
1306	1.3060e+000	234.558105	54.207499
1307	1.3070e+000	233.329773	54.197280
1308	1.3080e+000	232.131958	54.171732
1309	1.3090e+000	230.926514	54.043993
1310	1.3100e+000	229.820251	54.054212
1311	1.3110e+000	228.485107	54.069540
1312	1.3120e+000	227.317810	53.967349
1313	1.3130e+000	225.875854	53.941801
1314	1.3140e+000	224.960327	53.962239
1315	1.3150e+000	223.457336	53.900924
1316	1.3160e+000	222.450256	53.890705
1317	1.3170e+000	221.206665	53.650555
1318	1.3180e+000	219.993591	53.860048
1319	1.3190e+000	217.819214	53.481939
1320	1.3200e+000	217.475891	53.558583
1321	1.3210e+000	216.445923	53.742528
1322	1.3220e+000	215.187073	53.722089
1323	1.3230e+000	214.073181	53.579021
1324	1.3240e+000	212.867737	53.522816
1325	1.3250e+000	211.715698	53.527925
1326	1.3260e+000	210.601807	53.487049
1327	1.3270e+000	209.297180	53.461501
1328	1.3280e+000	208.099365	53.456391
1329	1.3290e+000	207.000732	53.609679
1330	1.3300e+000	205.635071	53.343981
1331	1.3310e+000	204.856873	53.604569
1332	1.3320e+000	203.277588	53.154926
1333	1.3330e+000	202.018738	53.333761
1334	1.3340e+000	200.935364	53.190693
1335	1.3350e+000	198.776245	52.792146
1336	1.3360e+000	198.387146	53.185584
1337	1.3370e+000	197.463989	53.144707
1338	1.3380e+000	195.899963	53.042516
1339	1.3390e+000	194.831848	52.950543
1340	1.3400e+000	193.725586	52.965872
1341	1.3410e+000	192.314148	52.868790
1342	1.3420e+000	191.230774	52.909667
1343	1.3430e+000	190.147400	52.873899
1344	1.3440e+000	188.735962	52.741050
1345	1.3450e+000	187.538147	52.955653
1346	1.3460e+000	186.363220	52.695064
1347	1.3470e+000	185.142517	52.710393
1348	1.3480e+000	184.104919	52.873899
1349	1.3490e+000	182.914734	52.735941
1350	1.3500e+000	181.632996	52.500900
1351	1.3510e+000	179.847717	52.316956
1352	1.3520e+000	179.237366	52.439585
1353	1.3530e+000	177.970886	52.460024
1354	1.3540e+000	176.849365	52.521339
1355	1.3550e+000	175.598145	52.362942
1356	1.3560e+000	174.446106	52.383380
1357	1.3570e+000	173.194885	52.592873
1358	1.3580e+000	172.073364	52.270969
1359	1.3590e+000	170.814514	52.184107
1360	1.3600e+000	169.654846	52.133011
1361	1.3610e+000	168.495178	52.133011
1362	1.3620e+000	167.121887	52.102353
1363	1.3630e+000	166.130066	52.184107
1364	1.3640e+000	164.726257	52.000162
1365	1.3650e+000	163.673401	51.989943
1366	1.3660e+000	162.361145	51.928628
1367	1.3670e+000	161.163330	51.995052
1368	1.3680e+000	159.866333	51.754902
1369	1.3690e+000	158.599854	51.729354
1370	1.3700e+000	157.722473	51.739573
1371	1.3710e+000	156.402588	52.051258
1372	1.3720e+000	155.189514	51.734464
1373	1.3730e+000	153.930664	51.657820
1374	1.3740e+000	152.801514	51.576067
1375	1.3750e+000	151.710510	51.489204
1376	1.3760e+000	150.566101	51.387013
1377	1.3770e+000	149.093628	51.417670
1378	1.3780e+000	147.979736	51.341026
1379	1.3790e+000	146.781921	51.310369
1380	1.3800e+000	145.545959	51.392122
1381	1.3810e+000	144.454956	51.269492
1382	1.3820e+000	143.211365	51.192849
1383	1.3830e+000	142.395020	51.412561
1384	1.3840e+000	140.846252	51.065109
1385	1.3850e+000	139.617920	51.085548
1386	1.3860e+000	138.320923	51.254164
1387	1.3870e+000	137.229919	51.003794
1388	1.3880e+000	136.024475	50.988466
1389	1.3890e+000	134.658813	50.870945
1390	1.3900e+000	133.659363	50.881165
1391	1.3910e+000	132.591248	50.574590
1392	1.3920e+000	131.072998	50.758535
1393	1.3930e+000	130.180359	50.870945
1394	1.3940e+000	129.539490	51.300150
1395	1.3950e+000	127.334595	50.676781
1396	1.3960e+000	126.312256	50.620576
1397	1.3970e+000	125.259399	50.595028
1398	1.3980e+000	123.947144	50.426412
1399	1.3990e+000	122.802734	50.411084
1400	1.4000e+000	121.704102	50.395755
1401	1.4010e+000	120.445251	50.104509
1402	1.4020e+000	119.239807	50.298673
1403	1.4030e+000	118.423462	50.329330
1404	1.4040e+000	116.729736	50.109618
1405	1.4050e+000	115.592957	50.150495
1406	1.4060e+000	114.517212	49.854140
1407	1.4070e+000	113.029480	50.145386
1408	1.4080e+000	111.976624	50.145386
1409	1.4090e+000	110.664368	50.022756
1410	1.4100e+000	109.443665	50.242467
1411	1.4110e+000	108.352661	49.889907
1412	1.4120e+000	107.162476	49.797934
1413	1.4130e+000	106.002808	49.751948
1414	1.4140e+000	103.927612	49.021279
1415	1.4150e+000	103.500366	49.506688
1416	1.4160e+000	102.439880	49.358511
1417	1.4170e+000	101.249695	49.562894
1418	1.4180e+000	99.998474	49.608880
1419	1.4190e+000	98.716736	49.649757
1420	1.4200e+000	97.694397	49.430045
1421	1.4210e+000	96.366882	49.297196
1422	1.4220e+000	95.169067	49.389168
1423	1.4230e+000	94.055176	49.358511
1424	1.4240e+000	92.796326	49.302305
1425	1.4250e+000	91.644287	49.246100
1426	1.4260e+000	90.049744	48.970183
1427	1.4270e+000	89.042664	49.097922
1428	1.4280e+000	87.974548	49.113251
1429	1.4290e+000	86.845398	48.949745
1430	1.4300e+000	85.060120	48.443896
1431	1.4310e+000	84.495544	48.929306
1432	1.4320e+000	83.251953	48.709594
1433	1.4330e+000	82.038879	48.730033
1434	1.4340e+000	80.726624	48.684047
1435	1.4350e+000	79.605103	48.663608
1436	1.4360e+000	78.330994	48.781129
1437	1.4370e+000	77.064514	48.592074
1438	1.4380e+000	76.095581	48.546088
1439	1.4390e+000	74.630737	48.397910
1440	1.4400e+000	73.150635	48.213966
1441	1.4410e+000	72.479248	48.321267
1442	1.4420e+000	71.357727	48.254842
1443	1.4430e+000	69.931030	48.086226
1444	1.4440e+000	68.901062	48.137322
1445	1.4450e+000	67.512512	48.050459
1446	1.4460e+000	65.940857	47.677460
1447	1.4470e+000	65.292358	48.045350
1448	1.4480e+000	63.850403	47.927829
1449	1.4490e+000	62.667847	47.810309
1450	1.4500e+000	61.660767	47.779652
1451	1.4510e+000	60.241699	47.912501
1452	1.4520e+000	59.104919	47.616145
1453	1.4530e+000	57.975769	47.646803
1454	1.4540e+000	56.739807	47.529282
1455	1.4550e+000	55.572510	47.488406
1456	1.4560e+000	54.481506	47.554830
1457	1.4570e+000	52.978516	47.258475
1458	1.4580e+000	51.757813	47.258475
1459	1.4590e+000	50.765991	47.335118
1460	1.4600e+000	49.522400	47.186941
1461	1.4610e+000	48.263550	47.069420
1462	1.4620e+000	46.592712	46.788394
1463	1.4630e+000	45.936584	46.951900
1464	1.4640e+000	44.731140	46.890585
1465	1.4650e+000	43.716431	46.992777
1466	1.4660e+000	42.381287	47.033653
1467	1.4670e+000	40.962219	46.670873
1468	1.4680e+000	40.222168	46.624887
1469	1.4690e+000	38.841248	46.624887
1470	1.4700e+000	37.437439	46.507367
1471	1.4710e+000	36.399841	46.420504
1472	1.4720e+000	35.240173	46.348970
1473	1.4730e+000	33.775330	46.185464
1474	1.4740e+000	32.501221	46.113930
1475	1.4750e+000	31.455994	46.144587
1476	1.4760e+000	30.204773	46.037286
1477	1.4770e+000	29.487610	45.991300
1478	1.4780e+000	27.549744	45.832903
1479	1.4790e+000	26.588440	45.919766
1480	1.4800e+000	25.665283	45.694944
1481	1.4810e+000	24.284363	45.950423
1482	1.4820e+000	23.071289	45.786917
1483	1.4830e+000	21.865845	45.602972
1484	1.4840e+000	20.744324	45.449685
1485	1.4850e+000	19.477844	45.505890
1486	1.4860e+000	18.241882	45.306616
1487	1.4870e+000	17.166138	45.240192
1488	1.4880e+000	15.800476	45.224863
1489	1.4890e+000	14.122009	44.463536
1490	1.4900e+000	13.504028	45.046028
1491	1.4910e+000	12.344360	45.040918
1492	1.4920e+000	11.177063	44.892741
1493	1.4930e+000	9.796143	44.887631
1494	1.4940e+000	8.583069	44.586166
1495	1.4950e+000	7.530212	44.535070
1496	1.4960e+000	6.515503	44.570837
1497	1.4970e+000	4.981995	44.473755
1498	1.4980e+000	4.035950	44.427769
1499	1.4990e+000	2.838135	44.187619
1500	1.5000e+000	1.655579	44.172290
1501	1.5010e+000	0.381470	43.952579
1502	1.5020e+000	-0.862122	43.829949
1503	1.5030e+000	-1.899719	43.717538
1504	1.5040e+000	-3.105164	43.574470
1505	1.5050e+000	-3.913879	43.676661
1506	1.5060e+000	-5.569458	43.400744
1507	1.5070e+000	-6.690979	43.099279
1508	1.5080e+000	-7.896423	42.900006
1509	1.5090e+000	-8.827209	42.567883
1510	1.5100e+000	-10.147095	42.557664
1511	1.5110e+000	-11.436462	41.964953
1512	1.5120e+000	-12.847900	41.735022
1513	1.5130e+000	-13.816833	41.356914
1514	1.5140e+000	-14.816284	41.244503
1515	1.5150e+000	-16.220093	40.483176
1516	1.5160e+000	-17.425537	39.737178
1517	1.5170e+000	-18.730164	38.996289
1518	1.5180e+000	-19.866943	38.332044
1519	1.5190e+000	-20.866394	37.320348
1520	1.5200e+000	-22.216797	36.334200
1521	1.5210e+000	-23.521423	35.337832
1522	1.5220e+000	-24.459839	33.988904
1523	1.5230e+000	-25.596619	32.374278
1524	1.5240e+000	-27.015686	30.892501
1525	1.5250e+000	-27.252197	29.354518
1526	1.5260e+000	-29.121399	27.397550
1527	1.5270e+000	-30.464172	24.888748
1528	1.5280e+000	-31.578064	22.793822
1529	1.5290e+000	-32.859802	20.065308
1530	1.5300e+000	-34.164429	17.260150
1531	1.5310e+000	-35.171509	14.725800
1532	1.5320e+000	-36.323547	11.992176
1533	1.5330e+000	-37.643433	9.130814
1534	1.5340e+000	-38.681030	5.973095
1535	1.5350e+000	-39.855957	3.070856
1536	1.5360e+000	-41.084290	0.194164
1537	1.5370e+000	-42.236328	-2.774500
1538	1.5380e+000	-43.594360	-5.620534
1539	1.5390e+000	-44.944763	-8.129336
1540	1.5400e+000	-46.058655	-10.648358
1541	1.5410e+000	-46.607971	-12.748394
1542	1.5420e+000	-48.469543	-14.776896
1543	1.5430e+000	-49.873352	-16.549919
1544	1.5440e+000	-50.888062	-18.358709
1545	1.5450e+000	-52.078247	-19.728076
1546	1.5460e+000	-53.535461	-21.000360
1547	1.5470e+000	-54.634094	-22.344179
1548	1.5480e+000	-55.770874	-23.509162
1549	1.5490e+000	-56.907654	-24.428886
1550	1.5500e+000	-58.174133	-25.220870
1551	1.5510e+000	-59.135437	-26.181471
1552	1.5520e+000	-60.714722	-27.162510
1553	1.5530e+000	-61.882019	-27.755221
1554	1.5540e+000	-63.133240	-28.536986
1555	1.5550e+000	-64.163208	-29.211450
1556	1.5560e+000	-65.513611	-30.018763
1557	1.5570e+000	-66.329956	-30.248694
1558	1.5580e+000	-67.962646	-31.193966
1559	1.5590e+000	-69.061279	-31.766238
1560	1.5600e+000	-70.281982	-32.307853
1561	1.5610e+000	-71.517944	-32.798373
1562	1.5620e+000	-72.792053	-33.462618
1563	1.5630e+000	-74.005127	-33.953137
1564	1.5640e+000	-75.126648	-34.423218
1565	1.5650e+000	-76.354980	-34.862642
1566	1.5660e+000	-77.552795	-35.348051
1567	1.5670e+000	-78.598022	-35.807913
1568	1.5680e+000	-79.765320	-36.421063
1569	1.5690e+000	-81.237793	-36.630555
1570	1.5700e+000	-82.427979	-37.156842
1571	1.5710e+000	-83.473206	-37.672909
1572	1.5720e+000	-84.892273	-37.739333
1573	1.5730e+000	-85.571289	-37.918169
1574	1.5740e+000	-87.295532	-38.674386
1575	1.5750e+000	-88.348389	-38.863440
1576	1.5760e+000	-89.424133	-39.180234
1577	1.5770e+000	-90.751648	-39.461261
1578	1.5780e+000	-91.880798	-39.716740
1579	1.5790e+000	-93.223572	-39.951780
1580	1.5800e+000	-94.451904	-40.263464
1581	1.5810e+000	-95.657349	-40.549601
1582	1.5820e+000	-96.740723	-40.707997
1583	1.5830e+000	-98.617554	-41.336475
1584	1.5840e+000	-99.189758	-41.239393
1585	1.5850e+000	-100.158691	-41.341585
1586	1.5860e+000	-101.509094	-41.525530
1587	1.5870e+000	-102.821350	-41.959844
1588	1.5880e+000	-103.790283	-42.077364
1589	1.5890e+000	-105.316162	-42.312404
1590	1.5900e+000	-106.391907	-42.511678
1591	1.5910e+000	-107.635498	-42.649637
1592	1.5920e+000	-108.947754	-42.889787
1593	1.5930e+000	-110.115051	-43.032855
1594	1.5940e+000	-111.190796	-43.252567
1595	1.5950e+000	-112.442017	-43.472278
1596	1.5960e+000	-113.624573	-43.508045
1597	1.5970e+000	-114.715576	-43.482498
1598	1.5980e+000	-116.127014	-43.840168
1599	1.5990e+000	-117.202759	-44.003674
1600	1.6000e+000	-118.347168	-44.151852
1601	1.6010e+000	-119.720459	-44.294920
1602	1.6020e+000	-120.925903	-44.330687
1603	1.6030e+000	-121.353149	-44.044551
1604	1.6040e+000	-123.291016	-44.959165
1605	1.6050e+000	-124.420166	-44.918289
1606	1.6060e+000	-125.648499	-44.902960
1607	1.6070e+000	-126.945496	-45.097124
1608	1.6080e+000	-128.059387	-45.224863
1609	1.6090e+000	-129.287720	-45.337274
1610	1.6100e+000	-130.462646	-45.602972
1611	1.6110e+000	-131.706238	-45.633629
1612	1.6120e+000	-132.873535	-45.648958
1613	1.6130e+000	-134.124756	-45.950423
1614	1.6140e+000	-135.231018	-45.919766
1615	1.6150e+000	-136.528015	-46.001519
1616	1.6160e+000	-137.649536	-46.113930
1617	1.6170e+000	-138.908386	-46.364299
1618	1.6180e+000	-139.320374	-45.904437
1619	1.6190e+000	-141.143799	-46.471600
1620	1.6200e+000	-142.494202	-46.670873
1621	1.6210e+000	-143.692017	-46.706640
1622	1.6220e+000	-144.760132	-46.839489
1623	1.6230e+000	-146.102905	-46.808832
1624	1.6240e+000	-147.262573	-47.008105
1625	1.6250e+000	-148.399353	-47.084749
1626	1.6260e+000	-149.818420	-47.171612
1627	1.6270e+000	-150.825500	-47.258475
1628	1.6280e+000	-152.145386	-47.023434
1629	1.6290e+000	-153.076172	-47.406652
1630	1.6300e+000	-154.556274	-47.611035
1631	1.6310e+000	-155.593872	-47.682570
1632	1.6320e+000	-156.768799	-47.580378
1633	1.6330e+000	-157.882690	-47.759213
1634	1.6340e+000	-159.255981	-47.743884
1635	1.6350e+000	-160.522461	-48.070897
1636	1.6360e+000	-161.674500	-47.932939
1637	1.6370e+000	-163.002014	-48.311047
1638	1.6380e+000	-164.016724	-48.428568
1639	1.6390e+000	-165.306091	-48.316157
1640	1.6400e+000	-166.519165	-48.382582
1641	1.6410e+000	-167.663574	-48.505211
1642	1.6420e+000	-168.777466	-48.602293
1643	1.6430e+000	-169.769287	-48.418349
1644	1.6440e+000	-170.982361	-48.556307
1645	1.6450e+000	-172.363281	-48.852663
1646	1.6460e+000	-173.782349	-49.062155
1647	1.6470e+000	-174.949646	-48.985512
1648	1.6480e+000	-175.758362	-48.597184
1649	1.6490e+000	-177.276611	-49.154128
1650	1.6500e+000	-178.504944	-48.954854
1651	1.6510e+000	-179.756165	-49.143908
1652	1.6520e+000	-180.931091	-49.327853
1653	1.6530e+000	-182.090759	-49.419826
1654	1.6540e+000	-183.242798	-49.476031
1655	1.6550e+000	-184.677124	-49.603770
1656	1.6560e+000	-185.661316	-49.654866
1657	1.6570e+000	-186.676025	-49.716181
1658	1.6580e+000	-188.201904	-49.813263
1659	1.6590e+000	-189.056396	-50.002317
1660	1.6600e+000	-190.513611	-49.930783
1661	1.6610e+000	-191.596985	-50.032975
1662	1.6620e+000	-192.916870	-50.017646
1663	1.6630e+000	-194.160461	-50.012537
1664	1.6640e+000	-195.892334	-50.482618
1665	1.6650e+000	-196.395874	-50.283344
1666	1.6660e+000	-197.700500	-50.283344
1667	1.6670e+000	-198.768616	-50.436631
1668	1.6680e+000	-200.004578	-50.538823
1669	1.6690e+000	-201.316833	-50.589919
1670	1.6700e+000	-202.453613	-50.615467
1671	1.6710e+000	-203.750610	-50.707439
1672	1.6720e+000	-204.917908	-50.671672
1673	1.6730e+000	-206.253052	-50.799411
1674	1.6740e+000	-207.138062	-50.732987
1675	1.6750e+000	-208.541870	-50.947589
1676	1.6760e+000	-209.632874	-50.881165
1677	1.6770e+000	-210.968018	-51.054890
1678	1.6780e+000	-212.150574	-51.116205
1679	1.6790e+000	-213.783264	-51.622053
1680	1.6800e+000	-214.828491	-51.371684
1681	1.6810e+000	-215.751648	-51.432999
1682	1.6820e+000	-217.025757	-51.453437
1683	1.6830e+000	-218.063354	-51.427889
1684	1.6840e+000	-219.367981	-51.627163
1685	1.6850e+000	-220.550537	-51.601615
1686	1.6860e+000	-221.847534	-51.622053
1687	1.6870e+000	-223.030090	-51.412561
1688	1.6880e+000	-224.075317	-51.805998
1689	1.6890e+000	-225.219727	-51.714026
1690	1.6900e+000	-226.585388	-51.841765
1691	1.6910e+000	-227.851868	-51.928628
1692	1.6920e+000	-228.897095	-51.969504
1693	1.6930e+000	-230.247498	-51.928628
1694	1.6940e+000	-230.857849	-51.688478
1695	1.6950e+000	-232.421875	-52.066586
1696	1.6960e+000	-233.573914	-52.245422
1697	1.6970e+000	-234.916687	-52.224983
1698	1.6980e+000	-236.122131	-52.342503
1699	1.6990e+000	-237.358093	-52.449805
1700	1.7000e+000	-238.586426	-52.337394
1701	1.7010e+000	-239.540100	-52.449805
1702	1.7020e+000	-240.997314	-52.643969
1703	1.7030e+000	-242.103577	-52.705283
1704	1.7040e+000	-243.232727	-52.654188
1705	1.7050e+000	-244.560242	-53.016968
1706	1.7060e+000	-245.765686	-52.863680
1707	1.7070e+000	-246.871948	-52.807475
1708	1.7080e+000	-247.985840	-52.710393
1709	1.7090e+000	-249.061584	-53.114050
1710	1.7100e+000	-250.648499	-53.001639
1711	1.7110e+000	-251.686096	-53.195803
1712	1.7120e+000	-253.036499	-53.129378
1713	1.7130e+000	-254.150391	-53.226460
1714	1.7140e+000	-255.371094	-53.257118
1715	1.7150e+000	-256.492615	-53.236679
1716	1.7160e+000	-257.881165	-53.389967
1717	1.7170e+000	-258.918762	-53.584131
1718	1.7180e+000	-260.177612	-53.497268
1719	1.7190e+000	-261.444092	-53.512597
1720	1.7200e+000	-262.298584	-53.451282
1721	1.7210e+000	-263.656616	-53.599459
1722	1.7220e+000	-264.968872	-53.696541
1723	1.7230e+000	-266.227722	-53.645446
1724	1.7240e+000	-268.218994	-54.289252
1725	1.7250e+000	-268.539429	-54.115527
1726	1.7260e+000	-269.706726	-53.778295
1727	1.7270e+000	-271.064758	-53.875377
1728	1.7280e+000	-272.270203	-54.095088
1729	1.7290e+000	-273.460388	-54.171732
1730	1.7300e+000	-274.528503	-54.059321
1731	1.7310e+000	-275.817871	-54.089979
1732	1.7320e+000	-276.969910	-54.197280
1733	1.7330e+000	-278.114319	-54.396553
1734	1.7340e+000	-279.487610	-54.314800
1735	1.7350e+000	-280.464172	-54.381225
1736	1.7360e+000	-281.822205	-54.207499
1737	1.7370e+000	-283.050537	-54.524293
1738	1.7380e+000	-284.210205	-54.391444
1739	1.7390e+000	-284.622192	-54.095088
1740	1.7400e+000	-286.567688	-54.401663
1741	1.7410e+000	-287.742615	-54.708237
1742	1.7420e+000	-288.711548	-54.621375
1743	1.7430e+000	-290.107727	-54.784881
1744	1.7440e+000	-291.381836	-54.841086
1745	1.7450e+000	-292.610168	-54.897292
1746	1.7460e+000	-293.685913	-55.004593
1747	1.7470e+000	-294.868469	-55.014812
1748	1.7480e+000	-296.112061	-54.963716
1749	1.7490e+000	-297.378540	-55.071017
1750	1.7500e+000	-298.210144	-55.035250
1751	1.7510e+000	-299.743652	-55.817016
1752	1.7520e+000	-298.767090	-55.198757
1753	1.7530e+000	-297.637939	-55.147661
1754	1.7540e+000	-295.814514	-54.314800
1755	1.7550e+000	-295.562744	-55.224305
1756	1.7560e+000	-293.945313	-55.014812
1757	1.7570e+000	-292.800903	-55.173209
1758	1.7580e+000	-291.450500	-55.004593
1759	1.7590e+000	-290.496826	-55.004593
1760	1.7600e+000	-289.291382	-54.927949
1761	1.7610e+000	-287.925720	-55.091456
1762	1.7620e+000	-286.834717	-54.922840
1763	1.7630e+000	-285.797119	-54.912621
1764	1.7640e+000	-284.469604	-54.968826
1765	1.7650e+000	-283.111572	-55.091456
1766	1.7660e+000	-281.906128	-54.917730
1767	1.7670e+000	-280.883789	-54.652032
1768	1.7680e+000	-279.533386	-54.728676
1769	1.7690e+000	-278.747559	-54.774662
1770	1.7700e+000	-277.359009	-54.662251
1771	1.7710e+000	-276.023865	-54.851306
1772	1.7720e+000	-274.887085	-54.733785
1773	1.7730e+000	-273.773193	-54.744005
1774	1.7740e+000	-272.415161	-54.682690
1775	1.7750e+000	-271.156311	-54.503854
1776	1.7760e+000	-269.996643	-54.539621
1777	1.7770e+000	-268.890381	-54.447649
1778	1.7780e+000	-267.562866	-54.508964
1779	1.7790e+000	-266.342163	-54.396553
1780	1.7800e+000	-265.228271	-54.416992
1781	1.7810e+000	-263.839722	-54.299471
1782	1.7820e+000	-263.038635	-54.161513
1783	1.7830e+000	-261.695862	-54.325019
1784	1.7840e+000	-260.238647	-54.268814
1785	1.7850e+000	-259.506226	-54.319910
1786	1.7860e+000	-257.926941	-53.962239
1787	1.7870e+000	-256.721497	-54.156403
1788	1.7880e+000	-255.348206	-54.171732
1789	1.7890e+000	-254.524231	-54.043993
1790	1.7900e+000	-253.234863	-54.171732
1791	1.7910e+000	-251.922607	-54.059321
1792	1.7920e+000	-250.747681	-54.069540
1793	1.7930e+000	-249.626160	-53.998006
1794	1.7940e+000	-248.268127	-53.895815
1795	1.7950e+000	-247.245789	-53.880486
1796	1.7960e+000	-245.948792	-53.839609
1797	1.7970e+000	-244.613647	-53.957130
1798	1.7980e+000	-243.484497	-53.798733
1799	1.7990e+000	-242.332458	-53.829390
1800	1.8000e+000	-241.958618	-54.212609
1801	1.8010e+000	-239.990234	-53.681213
1802	1.8020e+000	-238.784790	-53.374638
1803	1.8030e+000	-237.518311	-53.609679
1804	1.8040e+000	-236.305237	-53.660774
1805	1.8050e+000	-235.237122	-53.660774
1806	1.8060e+000	-233.955383	-53.476830
1807	1.8070e+000	-232.810974	-53.670993
1808	1.8080e+000	-231.582642	-53.481939
1809	1.8090e+000	-230.369568	-53.456391
1810	1.8100e+000	-229.324341	-53.384857
1811	1.8110e+000	-228.096008	-53.405295
1812	1.8120e+000	-226.577759	-53.303104
1813	1.8130e+000	-225.677490	-53.333761
1814	1.8140e+000	-224.449158	-53.200912
1815	1.8150e+000	-223.144531	-53.313323
1816	1.8160e+000	-222.061157	-53.144707
1817	1.8170e+000	-220.733643	-53.487049
1818	1.8180e+000	-219.398499	-53.119159
1819	1.8190e+000	-218.376160	-53.108940
1820	1.8200e+000	-217.163086	-52.976091
1821	1.8210e+000	-216.041565	-52.899447
1822	1.8220e+000	-214.851379	-52.848352
1823	1.8230e+000	-213.470459	-52.935214
1824	1.8240e+000	-212.310791	-52.863680
1825	1.8250e+000	-211.112976	-52.894338
1826	1.8260e+000	-209.869385	-52.781927
1827	1.8270e+000	-208.786011	-52.797256
1828	1.8280e+000	-207.626343	-52.291408
1829	1.8290e+000	-206.375122	-52.669516
1830	1.8300e+000	-205.863953	-53.011858
1831	1.8310e+000	-203.971863	-52.572434
1832	1.8320e+000	-202.758789	-51.805998
1833	1.8330e+000	-201.759338	-52.577544
1834	1.8340e+000	-200.408936	-52.460024
1835	1.8350e+000	-199.180603	-52.357832
1836	1.8360e+000	-197.860718	-52.250531
1837	1.8370e+000	-196.868896	-52.107463
1838	1.8380e+000	-195.663452	-52.327175
1839	1.8390e+000	-194.274902	-52.250531
1840	1.8400e+000	-193.336487	-52.158559
1841	1.8410e+000	-191.375732	-51.964395
1842	1.8420e+000	-190.841675	-52.005271
1843	1.8430e+000	-189.529419	-52.092134
1844	1.8440e+000	-188.308716	-52.454914
1845	1.8450e+000	-187.576294	-52.327175
1846	1.8460e+000	-186.302185	-52.061477
1847	1.8470e+000	-184.707642	-51.897970
1848	1.8480e+000	-183.540344	-51.887751
1849	1.8490e+000	-182.319641	-51.857094
1850	1.8500e+000	-181.060791	-51.795779
1851	1.8510e+000	-179.931641	-51.683368
1852	1.8520e+000	-178.802490	-51.683368
1853	1.8530e+000	-177.474976	-51.678259
1854	1.8540e+000	-176.307678	-51.693587
1855	1.8550e+000	-175.270081	-51.509642
1856	1.8560e+000	-173.255920	-51.397232
1857	1.8570e+000	-172.607422	-51.458547
1858	1.8580e+000	-171.607971	-51.397232
1859	1.8590e+000	-170.471191	-51.647601
1860	1.8600e+000	-169.067383	-51.274602
1861	1.8610e+000	-168.235779	-51.381903
1862	1.8620e+000	-166.763306	-51.300150
1863	1.8630e+000	-165.557861	-51.514752
1864	1.8640e+000	-164.314270	-51.146863
1865	1.8650e+000	-163.116455	-51.034452
1866	1.8660e+000	-161.903381	-51.049781
1867	1.8670e+000	-160.858154	-50.932260
1868	1.8680e+000	-159.606934	-50.973137
1869	1.8690e+000	-158.378601	-50.911822
1870	1.8700e+000	-157.157898	-50.881165
1871	1.8710e+000	-155.982971	-50.773863
1872	1.8720e+000	-154.731750	-50.727877
1873	1.8730e+000	-153.450012	-50.712549
1874	1.8740e+000	-152.694702	-50.268015
1875	1.8750e+000	-151.138306	-50.523494
1876	1.8760e+000	-150.337219	-50.763644
1877	1.8770e+000	-148.727417	-50.472398
1878	1.8780e+000	-147.613525	-50.303782
1879	1.8790e+000	-146.331787	-50.564371
1880	1.8800e+000	-145.126343	-50.359988
1881	1.8810e+000	-144.302368	-50.150495
1882	1.8820e+000	-142.951965	-50.155605
1883	1.8830e+000	-141.540527	-50.130057
1884	1.8840e+000	-140.274048	-50.068742
1885	1.8850e+000	-139.129639	-49.966550
1886	1.8860e+000	-137.962341	-49.930783
1887	1.8870e+000	-136.230469	-49.864359
1888	1.8880e+000	-135.421753	-49.792825
1889	1.8890e+000	-134.262085	-49.777496
1890	1.8900e+000	-133.209229	-49.859249
1891	1.8910e+000	-131.500244	-49.685524
1892	1.8920e+000	-130.470276	-49.700852
1893	1.8930e+000	-129.570007	-50.135166
1894	1.8940e+000	-128.303528	-49.496469
1895	1.8950e+000	-127.120972	-49.568003
1896	1.8960e+000	-125.885010	-49.419826
1897	1.8970e+000	-124.771118	-49.430045
1898	1.8980e+000	-123.428345	-49.343182
1899	1.8990e+000	-122.352600	-49.363620
1900	1.9000e+000	-121.017456	-49.149018
1901	1.9010e+000	-119.857788	-49.154128
1902	1.9020e+000	-118.568420	-48.985512
1903	1.9030e+000	-117.568970	-49.072374
1904	1.9040e+000	-116.287231	-48.934416
1905	1.9050e+000	-115.051270	-48.873101
1906	1.9060e+000	-113.967896	-48.842443
1907	1.9070e+000	-113.014221	-48.822005
1908	1.9080e+000	-111.564636	-48.689156
1909	1.9090e+000	-110.237122	-48.469444
1910	1.9100e+000	-109.161377	-48.607403
1911	1.9110e+000	-107.719421	-48.622732
1912	1.9120e+000	-106.536865	-48.428568
1913	1.9130e+000	-105.346680	-48.372362
1914	1.9140e+000	-104.248047	-48.449006
1915	1.9150e+000	-103.248596	-48.249733
1916	1.9160e+000	-101.852417	-48.219075
1917	1.9170e+000	-100.952148	-48.188418
1918	1.9180e+000	-99.754333	-47.876733
1919	1.9190e+000	-98.289490	-47.927829
1920	1.9200e+000	-97.114563	-47.881843
1921	1.9210e+000	-95.947266	-47.800090
1922	1.9220e+000	-94.551086	-47.708117
1923	1.9230e+000	-93.765259	-47.621255
1924	1.9240e+000	-92.384338	-47.820528
1925	1.9250e+000	-91.072083	-47.611035
1926	1.9260e+000	-89.942932	-47.580378
1927	1.9270e+000	-88.729858	-47.355557
1928	1.9280e+000	-87.425232	-47.416872
1929	1.9290e+000	-86.265564	-47.304461
1930	1.9300e+000	-85.121155	-47.192050
1931	1.9310e+000	-83.824158	-47.217598
1932	1.9320e+000	-82.702637	-47.028544
1933	1.9330e+000	-81.542969	-47.074530
1934	1.9340e+000	-80.017090	-46.870147
1935	1.9350e+000	-79.216003	-46.854818
1936	1.9360e+000	-77.743530	-46.757736
1937	1.9370e+000	-76.614380	-46.783284
1938	1.9380e+000	-75.309753	-46.711750
1939	1.9390e+000	-74.371338	-46.446052
1940	1.9400e+000	-72.998047	-46.527805
1941	1.9410e+000	-71.838379	-46.354080
1942	1.9420e+000	-70.762634	-46.338751
1943	1.9430e+000	-69.358826	-46.211011
1944	1.9440e+000	-68.428040	-46.313203
1945	1.9450e+000	-67.131042	-46.108820
1946	1.9460e+000	-65.940857	-45.991300
1947	1.9470e+000	-64.605713	-45.873779
1948	1.9480e+000	-63.201904	-46.016848
1949	1.9490e+000	-62.126160	-45.659177
1950	1.9500e+000	-60.935974	-45.582534
1951	1.9510e+000	-59.921265	-45.613191
1952	1.9520e+000	-58.532715	-45.465013
1953	1.9530e+000	-57.090759	-45.173767
1954	1.9540e+000	-56.022644	-45.194206
1955	1.9550e+000	-55.084229	-45.403698
1956	1.9560e+000	-53.871155	-45.112452
1957	1.9570e+000	-52.795410	-44.948946
1958	1.9580e+000	-51.452637	-44.933617
1959	1.9590e+000	-50.209045	-44.846755
1960	1.9600e+000	-48.988342	-44.810987
1961	1.9610e+000	-47.851563	-44.647481
1962	1.9620e+000	-46.707153	-44.529961
1963	1.9630e+000	-45.585632	-44.550399
1964	1.9640e+000	-44.281006	-44.540180
1965	1.9650e+000	-43.144226	-44.162071
1966	1.9660e+000	-41.763306	-44.264263
1967	1.9670e+000	-40.580750	-44.616824
1968	1.9680e+000	-39.604187	-44.024113
1969	1.9690e+000	-37.963867	-43.707319
1970	1.9700e+000	-37.010193	-43.840168
1971	1.9710e+000	-35.827637	-43.508045
1972	1.9720e+000	-34.637451	-43.518265
1973	1.9730e+000	-33.576965	-43.548922
1974	1.9740e+000	-32.257080	-43.196361
1975	1.9750e+000	-31.097412	-43.160594
1976	1.9760e+000	-29.525757	-43.135046
1977	1.9770e+000	-28.869629	-42.956211
1978	1.9780e+000	-27.458191	-42.828472
1979	1.9790e+000	-26.145935	-42.664965
1980	1.9800e+000	-24.925232	-42.205103
1981	1.9810e+000	-23.925781	-42.481021
1982	1.9820e+000	-22.689819	-41.934296
1983	1.9830e+000	-21.568298	-42.051816
1984	1.9840e+000	-21.217346	-42.792705
1985	1.9850e+000	-19.248962	-42.005830
1986	1.9860e+000	-17.761230	-41.663488
1987	1.9870e+000	-16.670227	-41.576625
1988	1.9880e+000	-15.380859	-41.453996
1989	1.9890e+000	-14.221191	-41.270051
1990	1.9900e+000	-13.076782	-41.040120
1991	1.9910e+000	-11.772156	-40.922600
1992	1.9920e+000	-10.742188	-40.789751
1993	1.9930e+000	-9.552002	-40.575148
1994	1.9940e+000	-8.255005	-40.355437
1995	1.9950e+000	-6.958008	-40.145944
1996	1.9960e+000	-5.744934	-40.018205
1997	1.9970e+000	-4.676819	-40.156163
1998	1.9980e+000	-3.494263	-39.696301
1999	1.9990e+000	-2.273560	-39.461261
2000	2.0000e+000	-0.885010	-39.108700
2001	2.0010e+000	-0.083923	-39.261987

Center data before PMax,±Pr and ±Vc Calc.

PMax (µC/cm2):	5.58e+001
Pr (µC/cm2):	4.39e+001
-Pr (µC/cm2):	-3.93e+001
Vc:	7.80e-001
-Vc:	-4.12e-001
C (Max-Eff) (nF):	1.46e+000
K (Eff):	2.10e+003
Vert. (±Pr) Shift (µC/cm2):	2.33e+000
Horiz. Shift (±Vc):	1.84e-001
Offset (µC/cm2):	3.60e+001

A (Loop Area - µC/cm2·Volts):	1.13e+002



Hysteresis Version: 5.16.2 - Radiant Technologies, Inc., 1999 - 3/20/18

