»»»»»»»»»»»»»»»»»»»»»»»»»»»»»»»»»»»» Hysteresis ««««««««««««««««««««««««««««««««««««
»»»  Executed Version:	5.12.0
»»»  Vision Version:	5.12.5 (R)
»»»  Vision Compiled:	2/24/17
»»»  Driver Version:	5.12.4
»»»  Windows Version:	Windows 7
»»»  Processor Information:	x86 (AMD or Intel) - 2 Processors
»»»  Tester Name:	PMF0910-256
»»»  Tester S/N:	PMF0910-256
»»»  Internal Amp Type:	 RTI 100V      
»»»  Internal Amp S/N:	 iAB1-0000     
»»»  Execution Count:	1
»»»»»»»»»»»»»»»»»»»»»»»»»»»»»»»»»»»»»»»»»»««««««««««««««««««««««««««««««««««««««««««

Stored:	4/15/2017 - 12:38:57
Configured:	04/15/17 12:28:47 PM
Executed:	04/15/17 12:37:59 PM

»»»»»»»»»»»»»»»»»»»»»»»»»»»»»»»»»»» Sample Info ««««««««««««««««««««««««««««««««««««
Sample Name:	
Lot Name:	
Wafer Name:	
Die Row/Column:	0/0
Capacitor Number:	0
Sample Area (cm2):	1.96e-005
Sample Thickness (µm):	5.00e-002

Mux Loop Adjustment:	Disabled

Amplifier:	Internal

»»»»»»»»»»»»»»»»»»»»»»»»»»»»»»»»»»» Tester Info «««««««««««««««««««««««««««««««««««
Tester Name:	PMF0910-256
Tester Serial Number:	PMF0910-256
Return Signal Amp. Level:	2.0 [Index: 1]

»»»»»»»»»»»»»»»»»»»»»»»»»»»»»»»» Hysteresis Info ««««««««««««««««««««««««««««««««««
Task Name:	Hyst-1
Volts:	4.00
Field:	800.00 (kV/cm)
Hysteresis Period (ms):	2.00e-001
Preset:	Enabled
Preset Delay (ms):	1.00e+003
Profile:	Double Bipolar

»»»»»»»»»»»»»»»»»»»»»»»»»»»»»»»»»»»»»» Data «««««««««««««««««««««««««««««««««««««««
Points:	401

Valid Data

Point	Time (ms)	Drive Voltage	Measured Polarization
   1	5.0000e-004	1.0098	-70.073021
   2	1.0000e-003	1.0884	-69.654116
   3	1.5000e-003	1.1710	-69.018241
   4	2.0000e-003	1.2499	-67.957017
   5	2.5000e-003	1.3300	-66.234139
   6	3.0000e-003	1.4096	-63.862496
   7	3.5000e-003	1.4880	-60.936611
   8	4.0000e-003	1.5671	-57.415666
   9	4.5000e-003	1.6471	-53.276033
  10	5.0000e-003	1.7279	-48.569267
  11	5.5000e-003	1.8066	-43.327593
  12	6.0000e-003	1.8867	-37.963470
  13	6.5000e-003	1.9655	-32.614384
  14	7.0000e-003	2.0473	-27.548865
  15	7.5000e-003	2.1286	-22.859285
  16	8.0000e-003	2.2078	-18.573572
  17	8.5000e-003	2.2845	-14.326527
  18	9.0000e-003	2.3703	-10.062296
  19	9.5000e-003	2.4463	-5.288935
  20	1.0000e-002	2.5249	0.141783
  21	1.0500e-002	2.6080	6.302898
  22	1.1000e-002	2.6878	12.653058
  23	1.1500e-002	2.7721	16.977439
  24	1.2000e-002	2.8508	18.874324
  25	1.2500e-002	2.9315	19.926955
  26	1.3000e-002	3.0121	20.717502
  27	1.3500e-002	3.0895	21.299672
  28	1.4000e-002	3.1665	21.903324
  29	1.4500e-002	3.2513	22.496234
  30	1.5000e-002	3.3323	23.089145
  31	1.5500e-002	3.4120	23.651981
  32	1.6000e-002	3.4915	24.281411
  33	1.6500e-002	3.5729	24.887211
  34	1.7000e-002	3.6526	25.490863
  35	1.7500e-002	3.7329	26.133183
  36	1.8000e-002	3.8097	26.824912
  37	1.8500e-002	3.8911	27.503752
  38	1.9000e-002	3.9696	28.204074
  39	1.9500e-002	4.0520	28.925878
  40	2.0000e-002	4.1330	29.630497
  41	2.0500e-002	4.2127	30.431785
  42	2.1000e-002	4.2908	31.230926
  43	2.1500e-002	4.3735	32.045104
  44	2.2000e-002	4.4520	32.932322
  45	2.2500e-002	4.5315	33.862504
  46	2.3000e-002	4.6136	34.754018
  47	2.3500e-002	4.6898	35.746499
  48	2.4000e-002	4.7712	36.732536
  49	2.4500e-002	4.8500	37.785167
  50	2.5000e-002	4.9294	38.809871
  51	2.5500e-002	5.0101	39.954876
  52	2.6000e-002	4.9283	40.723942
  53	2.6500e-002	4.8498	41.276036
  54	2.7000e-002	4.7678	41.746498
  55	2.7500e-002	4.6899	42.051546
  56	2.8000e-002	4.6079	42.289999
  57	2.8500e-002	4.5291	42.438227
  58	2.9000e-002	4.4498	42.539194
  59	2.9500e-002	4.3686	42.650901
  60	3.0000e-002	4.2884	42.708903
  61	3.0500e-002	4.2077	42.730386
  62	3.1000e-002	4.1292	42.734682
  63	3.1500e-002	4.0510	42.693866
  64	3.2000e-002	3.9689	42.584306
  65	3.2500e-002	3.8883	42.541342
  66	3.3000e-002	3.8095	42.474747
  67	3.3500e-002	3.7313	42.418893
  68	3.4000e-002	3.6495	42.289999
  69	3.4500e-002	3.5689	42.163254
  70	3.5000e-002	3.4882	42.098807
  71	3.5500e-002	3.4084	42.006433
  72	3.6000e-002	3.3299	41.864650
  73	3.6500e-002	3.2481	41.720719
  74	3.7000e-002	3.1687	41.602566
  75	3.7500e-002	3.0906	41.473673
  76	3.8000e-002	3.0099	41.312556
  77	3.8500e-002	2.9284	41.198700
  78	3.9000e-002	2.8504	41.056917
  79	3.9500e-002	2.7684	40.919430
  80	4.0000e-002	2.6889	40.762610
  81	4.0500e-002	2.6093	40.603641
  82	4.1000e-002	2.5293	40.423190
  83	4.1500e-002	2.4471	40.296444
  84	4.2000e-002	2.3685	40.096659
  85	4.2500e-002	2.2856	39.926949
  86	4.3000e-002	2.2089	39.785166
  87	4.3500e-002	2.1272	39.617605
  88	4.4000e-002	2.0495	39.430709
  89	4.4500e-002	1.9688	39.200849
  90	4.5000e-002	1.8891	39.033287
  91	4.5500e-002	1.8093	38.837798
  92	4.6000e-002	1.7302	38.592900
  93	4.6500e-002	1.6484	38.371633
  94	4.7000e-002	1.5668	38.126735
  95	4.7500e-002	1.4889	37.841021
  96	4.8000e-002	1.4085	37.471526
  97	4.8500e-002	1.3289	37.059066
  98	4.9000e-002	1.2478	36.466155
  99	4.9500e-002	1.1698	35.746499
 100	5.0000e-002	1.0896	34.889357
 101	5.0500e-002	1.0094	33.896876
 102	5.1000e-002	0.9303	32.607940
 103	5.1500e-002	0.8505	31.170776
 104	5.2000e-002	0.7706	29.222334
 105	5.2500e-002	0.6886	26.814171
 106	5.3000e-002	0.6116	23.746503
 107	5.3500e-002	0.5310	20.008587
 108	5.4000e-002	0.4544	15.435012
 109	5.4500e-002	0.3728	9.950588
 110	5.5000e-002	0.2930	3.497314
 111	5.5500e-002	0.2168	-3.813103
 112	5.6000e-002	0.1363	-11.643391
 113	5.6500e-002	0.0552	-19.720725
 114	5.7000e-002	-0.0220	-27.976362
 115	5.7500e-002	-0.1047	-36.027917
 116	5.8000e-002	-0.1846	-43.832426
 117	5.8500e-002	-0.2645	-51.138547
 118	5.9000e-002	-0.3465	-57.258846
 119	5.9500e-002	-0.4284	-61.248104
 120	6.0000e-002	-0.5123	-63.735751
 121	6.0500e-002	-0.5904	-65.535965
 122	6.1000e-002	-0.6699	-66.919423
 123	6.1500e-002	-0.7492	-68.126727
 124	6.2000e-002	-0.8308	-69.127801
 125	6.2500e-002	-0.9113	-69.954868
 126	6.3000e-002	-0.9915	-70.700303
 127	6.3500e-002	-1.0706	-71.486554
 128	6.4000e-002	-1.1526	-72.126726
 129	6.4500e-002	-1.2308	-72.741119
 130	6.5000e-002	-1.3110	-73.286768
 131	6.5500e-002	-1.3924	-73.767971
 132	6.6000e-002	-1.4701	-74.257767
 133	6.6500e-002	-1.5516	-74.685264
 134	6.7000e-002	-1.6324	-75.172912
 135	6.7500e-002	-1.7133	-75.531666
 136	6.8000e-002	-1.7880	-75.933384
 137	6.8500e-002	-1.8713	-76.332954
 138	6.9000e-002	-1.9490	-76.717487
 139	6.9500e-002	-2.0329	-77.074093
 140	7.0000e-002	-2.1102	-77.484404
 141	7.0500e-002	-2.1916	-77.856047
 142	7.1000e-002	-2.2717	-78.262062
 143	7.1500e-002	-2.3517	-78.603630
 144	7.2000e-002	-2.4332	-78.951643
 145	7.2500e-002	-2.5104	-79.344769
 146	7.3000e-002	-2.5900	-79.707819
 147	7.3500e-002	-2.6726	-80.036498
 148	7.4000e-002	-2.7507	-80.448958
 149	7.4500e-002	-2.8327	-80.771192
 150	7.5000e-002	-2.9124	-81.187948
 151	7.5500e-002	-2.9930	-81.527368
 152	7.6000e-002	-2.9105	-81.531664
 153	7.6500e-002	-2.8319	-81.396326
 154	7.7000e-002	-2.7500	-81.344768
 155	7.7500e-002	-2.6688	-81.175058
 156	7.8000e-002	-2.5884	-81.052609
 157	7.8500e-002	-2.5085	-80.882899
 158	7.9000e-002	-2.4284	-80.719634
 159	7.9500e-002	-2.3485	-80.603630
 160	8.0000e-002	-2.2688	-80.414586
 161	8.0500e-002	-2.1865	-80.251321
 162	8.1000e-002	-2.1089	-80.094500
 163	8.1500e-002	-2.0300	-79.888270
 164	8.2000e-002	-1.9450	-79.712116
 165	8.2500e-002	-1.8687	-79.471514
 166	8.3000e-002	-1.7867	-79.297508
 167	8.3500e-002	-1.7091	-79.024683
 168	8.4000e-002	-1.6263	-78.807712
 169	8.4500e-002	-1.5491	-78.530591
 170	8.5000e-002	-1.4684	-78.287841
 171	8.5500e-002	-1.3879	-78.036499
 172	8.6000e-002	-1.3086	-77.735747
 173	8.6500e-002	-1.2308	-77.484404
 174	8.7000e-002	-1.1480	-77.170763
 175	8.7500e-002	-1.0682	-76.908679
 176	8.8000e-002	-0.9880	-76.569259
 177	8.8500e-002	-0.9094	-76.219098
 178	8.9000e-002	-0.8298	-75.879678
 179	8.9500e-002	-0.7475	-75.499442
 180	9.0000e-002	-0.6676	-75.110613
 181	9.0500e-002	-0.5917	-74.734673
 182	9.1000e-002	-0.5070	-74.347993
 183	9.1500e-002	-0.4281	-73.836715
 184	9.2000e-002	-0.3471	-73.385587
 185	9.2500e-002	-0.2690	-72.814158
 186	9.3000e-002	-0.1877	-72.216951
 187	9.3500e-002	-0.1091	-71.574631
 188	9.4000e-002	-0.0297	-70.932311
 189	9.4500e-002	0.0482	-70.064428
 190	9.5000e-002	0.1300	-69.245953
 191	9.5500e-002	0.2132	-68.320067
 192	9.6000e-002	0.2936	-67.349069
 193	9.6500e-002	0.3705	-66.283548
 194	9.7000e-002	0.4507	-65.149284
 195	9.7500e-002	0.5322	-63.931239
 196	9.8000e-002	0.6114	-62.605783
 197	9.8500e-002	0.6893	-61.166471
 198	9.9000e-002	0.7711	-59.585376
 199	9.9500e-002	0.8512	-57.851756
 200	1.0000e-001	0.9312	-55.886129
 201	1.0050e-001	1.0078	-53.705678
 202	1.0100e-001	1.0902	-51.331887
 203	1.0150e-001	1.1674	-48.711050
 204	1.0200e-001	1.2486	-45.819536
 205	1.0250e-001	1.3261	-42.640160
 206	1.0300e-001	1.4091	-39.198700
 207	1.0350e-001	1.4870	-35.344781
 208	1.0400e-001	1.5662	-31.003214
 209	1.0450e-001	1.6456	-26.296448
 210	1.0500e-001	1.7265	-21.222336
 211	1.0550e-001	1.8072	-15.982810
 212	1.0600e-001	1.8870	-10.719653
 213	1.0650e-001	1.9692	-5.703543
 214	1.0700e-001	2.0470	-1.078410
 215	1.0750e-001	2.1256	3.254564
 216	1.0800e-001	2.2083	7.355530
 217	1.0850e-001	2.2866	11.490867
 218	1.0900e-001	2.3692	15.991403
 219	1.0950e-001	2.4447	21.065515
 220	1.1000e-001	2.5278	26.777651
 221	1.1050e-001	2.6068	33.065512
 222	1.1100e-001	2.6900	38.421042
 223	1.1150e-001	2.7721	40.646605
 224	1.1200e-001	2.8531	41.514489
 225	1.1250e-001	2.9304	42.208367
 226	1.1300e-001	3.0128	42.696014
 227	1.1350e-001	3.0919	43.263146
 228	1.1400e-001	3.1723	43.810944
 229	1.1450e-001	3.2507	44.270665
 230	1.1500e-001	3.3339	44.764757
 231	1.1550e-001	3.4113	45.250256
 232	1.1600e-001	3.4927	45.757238
 233	1.1650e-001	3.5728	46.298591
 234	1.1700e-001	3.6521	46.850685
 235	1.1750e-001	3.7312	47.404928
 236	1.1800e-001	3.8120	48.025766
 237	1.1850e-001	3.8917	48.603639
 238	1.1900e-001	3.9714	49.209439
 239	1.1950e-001	4.0506	49.879686
 240	1.2000e-001	4.1315	50.528450
 241	1.2050e-001	4.2108	51.119213
 242	1.2100e-001	4.2921	51.901167
 243	1.2150e-001	4.3707	52.659492
 244	1.2200e-001	4.4534	53.439298
 245	1.2250e-001	4.5316	54.184733
 246	1.2300e-001	4.6108	55.005356
 247	1.2350e-001	4.6918	55.873239
 248	1.2400e-001	4.7729	56.732530
 249	1.2450e-001	4.8511	57.664861
 250	1.2500e-001	4.9292	58.625118
 251	1.2550e-001	5.0122	59.643378
 252	1.2600e-001	4.9290	60.272808
 253	1.2650e-001	4.8498	60.777642
 254	1.2700e-001	4.7677	61.153582
 255	1.2750e-001	4.6898	61.447889
 256	1.2800e-001	4.6098	61.589672
 257	1.2850e-001	4.5298	61.727158
 258	1.2900e-001	4.4498	61.864645
 259	1.2950e-001	4.3696	61.922647
 260	1.3000e-001	4.2883	61.963463
 261	1.3050e-001	4.2068	61.965611
 262	1.3100e-001	4.1280	61.944129
 263	1.3150e-001	4.0500	61.905461
 264	1.3200e-001	3.9690	61.881831
 265	1.3250e-001	3.8869	61.785160
 266	1.3300e-001	3.8092	61.725010
 267	1.3350e-001	3.7302	61.639081
 268	1.3400e-001	3.6497	61.510187
 269	1.3450e-001	3.5693	61.422110
 270	1.3500e-001	3.4874	61.349070
 271	1.3550e-001	3.4076	61.220177
 272	1.3600e-001	3.3315	61.071949
 273	1.3650e-001	3.2489	60.919425
 274	1.3700e-001	3.1681	60.827051
 275	1.3750e-001	3.0893	60.678823
 276	1.3800e-001	3.0103	60.541337
 277	1.3850e-001	2.9303	60.388813
 278	1.3900e-001	2.8479	60.266364
 279	1.3950e-001	2.7683	60.171842
 280	1.4000e-001	2.6898	60.012873
 281	1.4050e-001	2.6068	59.817384
 282	1.4100e-001	2.5287	59.688491
 283	1.4150e-001	2.4461	59.467223
 284	1.4200e-001	2.3695	59.301810
 285	1.4250e-001	2.2885	59.136396
 286	1.4300e-001	2.2100	59.007503
 287	1.4350e-001	2.1280	58.829200
 288	1.4400e-001	2.0484	58.618674
 289	1.4450e-001	1.9681	58.401703
 290	1.4500e-001	1.8915	58.229844
 291	1.4550e-001	1.8079	58.002132
 292	1.4600e-001	1.7290	57.832422
 293	1.4650e-001	1.6492	57.621896
 294	1.4700e-001	1.5677	57.413518
 295	1.4750e-001	1.4889	57.140693
 296	1.4800e-001	1.4110	56.809866
 297	1.4850e-001	1.3274	56.423185
 298	1.4900e-001	1.2485	55.871091
 299	1.4950e-001	1.1683	55.194400
 300	1.5000e-001	1.0867	54.326516
 301	1.5050e-001	1.0094	53.334035
 302	1.5100e-001	0.9293	52.103101
 303	1.5150e-001	0.8496	50.539191
 304	1.5200e-001	0.7701	48.612232
 305	1.5250e-001	0.6919	46.221255
 306	1.5300e-001	0.6123	43.172921
 307	1.5350e-001	0.5312	39.419968
 308	1.5400e-001	0.4533	34.904394
 309	1.5450e-001	0.3732	29.432860
 310	1.5500e-001	0.2949	23.052625
 311	1.5550e-001	0.2145	15.731467
 312	1.5600e-001	0.1360	7.911921
 313	1.5650e-001	0.0542	-0.122449
 314	1.5700e-001	-0.0246	-8.229858
 315	1.5750e-001	-0.1035	-16.251338
 316	1.5800e-001	-0.1862	-24.027920
 317	1.5850e-001	-0.2673	-31.297521
 318	1.5900e-001	-0.3452	-37.344780
 319	1.5950e-001	-0.4300	-41.355520
 320	1.6000e-001	-0.5108	-43.918355
 321	1.6050e-001	-0.5917	-45.645530
 322	1.6100e-001	-0.6711	-47.054767
 323	1.6150e-001	-0.7508	-48.249181
 324	1.6200e-001	-0.8315	-49.338332
 325	1.6250e-001	-0.9094	-50.195475
 326	1.6300e-001	-0.9911	-51.022542
 327	1.6350e-001	-1.0720	-51.750791
 328	1.6400e-001	-1.1501	-52.382370
 329	1.6450e-001	-1.2342	-52.951650
 330	1.6500e-001	-1.3094	-53.501597
 331	1.6550e-001	-1.3905	-54.002133
 332	1.6600e-001	-1.4700	-54.448965
 333	1.6650e-001	-1.5517	-54.936612
 334	1.6700e-001	-1.6319	-55.387740
 335	1.6750e-001	-1.7126	-55.834571
 336	1.6800e-001	-1.7915	-56.255624
 337	1.6850e-001	-1.8726	-56.653046
 338	1.6900e-001	-1.9533	-57.050468
 339	1.6950e-001	-2.0322	-57.456483
 340	1.7000e-001	-2.1134	-57.813088
 341	1.7050e-001	-2.1915	-58.221252
 342	1.7100e-001	-2.2710	-58.580005
 343	1.7150e-001	-2.3520	-58.970983
 344	1.7200e-001	-2.4331	-59.392035
 345	1.7250e-001	-2.5115	-59.733603
 346	1.7300e-001	-2.5922	-60.113840
 347	1.7350e-001	-2.6720	-60.526299
 348	1.7400e-001	-2.7514	-60.854978
 349	1.7450e-001	-2.8330	-61.235214
 350	1.7500e-001	-2.9129	-61.606857
 351	1.7550e-001	-2.9935	-61.965611
 352	1.7600e-001	-2.9104	-61.941981
 353	1.7650e-001	-2.8278	-61.888275
 354	1.7700e-001	-2.7498	-61.821680
 355	1.7750e-001	-2.6671	-61.718565
 356	1.7800e-001	-2.5883	-61.591820
 357	1.7850e-001	-2.5105	-61.392035
 358	1.7900e-001	-2.4298	-61.222325
 359	1.7950e-001	-2.3473	-61.114913
 360	1.8000e-001	-2.2673	-60.915128
 361	1.8050e-001	-2.1887	-60.745418
 362	1.8100e-001	-2.1073	-60.562819
 363	1.8150e-001	-2.0293	-60.373775
 364	1.8200e-001	-1.9489	-60.178286
 365	1.8250e-001	-1.8693	-59.997835
 366	1.8300e-001	-1.7873	-59.744345
 367	1.8350e-001	-1.7100	-59.551004
 368	1.8400e-001	-1.6264	-59.267438
 369	1.8450e-001	-1.5488	-59.063357
 370	1.8500e-001	-1.4668	-58.786235
 371	1.8550e-001	-1.3885	-58.511262
 372	1.8600e-001	-1.3091	-58.240586
 373	1.8650e-001	-1.2312	-57.967761
 374	1.8700e-001	-1.1494	-57.641230
 375	1.8750e-001	-1.0688	-57.342627
 376	1.8800e-001	-0.9886	-56.990317
 377	1.8850e-001	-0.9065	-56.648749
 378	1.8900e-001	-0.8289	-56.242734
 379	1.8950e-001	-0.7491	-55.948427
 380	1.9000e-001	-0.6700	-55.523078
 381	1.9050e-001	-0.5883	-55.129953
 382	1.9100e-001	-0.5087	-54.691714
 383	1.9150e-001	-0.4302	-54.206215
 384	1.9200e-001	-0.3485	-53.645528
 385	1.9250e-001	-0.2685	-53.172918
 386	1.9300e-001	-0.1896	-52.556377
 387	1.9350e-001	-0.1075	-51.916205
 388	1.9400e-001	-0.0285	-51.202994
 389	1.9450e-001	0.0513	-50.369481
 390	1.9500e-001	0.1312	-49.544562
 391	1.9550e-001	0.2128	-48.650900
 392	1.9600e-001	0.2917	-47.632640
 393	1.9650e-001	0.3712	-46.543489
 394	1.9700e-001	0.4520	-45.445745
 395	1.9750e-001	0.5325	-44.195477
 396	1.9800e-001	0.6123	-42.852835
 397	1.9850e-001	0.6898	-41.447894
 398	1.9900e-001	0.7719	-39.804500
 399	1.9950e-001	0.8503	-38.075178
 400	2.0000e-001	0.9290	-36.081623
 401	2.0050e-001	1.0089	-33.873245

Center data before PMax,±Pr and ±Vc Calc.

PMax (µC/cm2):	5.96e+001
Pr (µC/cm2):	-5.70e+000
-Pr (µC/cm2):	-3.39e+001
Vc:	2.07e+000
-Vc:	5.55e-002
C (Max-Eff) (nF):	2.93e-001
Vert. (±Pr) Shift (µC/cm2):	-1.98e+001
Horiz. Shift (±Vc):	1.06e+000
Offset (µC/cm2):	7.01e+001

A (Loop Area - µC/cm2·Volts):	1.69e+002



Hysteresis Version: 5.12.0 - Radiant Technologies, Inc., 1999 - 11/30/16

