»»»»»»»»»»»»»»»»»»»»»»»»»»»»»»»»»»»» Hysteresis ««««««««««««««««««««««««««««««««««««
»»»  Executed Version:	5.16.2
»»»  Vision Version:	5.16.10 (R)
»»»  Vision Compiled:	4/26/18
»»»  Driver Version:	5.16.6
»»»  Windows Version:	Windows 8
»»»  Processor Information:	x86 (AMD or Intel) - 8 Processors
»»»  Tester Name:	PPM21016-863
»»»  Tester S/N:	PPM21016-863
»»»  Internal Amp Type:	 RTI ML200V    
»»»  Internal Amp S/N:	 iAB2-0000     
»»»  Execution Count:	1
»»»»»»»»»»»»»»»»»»»»»»»»»»»»»»»»»»»»»»»»»»««««««««««««««««««««««««««««««««««««««««««

Stored:	5/16/2018 - 13:6:29
Configured:	05/16/18 12:56:13 PM
Executed:	05/16/18 01:06:12 PM

»»»»»»»»»»»»»»»»»»»»»»»»»»»»»»»»»»» Sample Info ««««««««««««««««««««««««««««««««««««
Sample Name:	Internal Reference Cap.
Lot Name:	N/A
Wafer Name:	N/A
Die Row/Column:	0/0
Capacitor Number:	0
Sample Area (cm2):	7.85e-005
Sample Thickness (µm):	1.00e-001

Mux Loop Adjustment:	Disabled

Amplifier:	Internal

»»»»»»»»»»»»»»»»»»»»»»»»»»»»»»»»»»» Tester Info «««««««««««««««««««««««««««««««««««
Tester Name:	PPM21016-863
Tester Serial Number:	PPM21016-863
Return Signal Amp. Level:	1.79 [Index: 2]

»»»»»»»»»»»»»»»»»»»»»»»»»»»»»»»» Hysteresis Info ««««««««««««««««««««««««««««««««««
Task Name:	Hyst-1
Field (kV/cm):	0.03
Field:	300.00 (kV/cm)
Hysteresis Period (ms):	2.00e+000
Preset:	Enabled
Preset Delay (ms):	1.00e+003
Profile:	Double Bipolar

»»»»»»»»»»»»»»»»»»»»»»»»»»»»»»»»»»»»»» Data «««««««««««««««««««««««««««««««««««««««
Points:	2001

Valid Data

Point	Time (ms)	Field (kV/cm)	Measured Polarization
   1	1.0000e-003	-0.274658	-24.238974
   2	2.0000e-003	0.366211	-24.198399
   3	3.0000e-003	2.326965	-24.134020
   4	4.0000e-003	3.463745	-24.054493
   5	5.0000e-003	5.004883	-23.985245
   6	6.0000e-003	5.943298	-23.859192
   7	7.0000e-003	7.041931	-23.743418
   8	8.0000e-003	8.361816	-23.543789
   9	9.0000e-003	9.422302	-23.358226
  10	1.0000e-002	10.833740	-23.113153
  11	1.1000e-002	11.947632	-22.773946
  12	1.2000e-002	13.359070	-22.456379
  13	1.3000e-002	14.328003	-22.052251
  14	1.4000e-002	15.373230	-21.572384
  15	1.5000e-002	16.738892	-21.047614
  16	1.6000e-002	17.913818	-20.454678
  17	1.7000e-002	19.721985	-19.702687
  18	1.8000e-002	20.332336	-19.026437
  19	1.9000e-002	21.293640	-18.248479
  20	2.0000e-002	22.697449	-17.301728
  21	2.1000e-002	23.735046	-16.416111
  22	2.2000e-002	25.032043	-15.404441
  23	2.3000e-002	26.290894	-14.241290
  24	2.4000e-002	27.450562	-13.038647
  25	2.5000e-002	28.625488	-11.764591
  26	2.6000e-002	29.708862	-10.382876
  27	2.7000e-002	30.883789	-8.942193
  28	2.8000e-002	32.752991	-7.400342
  29	2.9000e-002	33.309937	-5.869311
  30	3.0000e-002	34.339905	-4.302034
  31	3.1000e-002	35.858154	-2.769921
  32	3.2000e-002	35.278320	-1.284876
  33	3.3000e-002	38.276672	0.446866
  34	3.4000e-002	39.344788	1.934617
  35	3.5000e-002	40.374756	3.373136
  36	3.6000e-002	41.755676	4.801918
  37	3.7000e-002	43.045044	6.078679
  38	3.8000e-002	44.189453	7.344619
  39	3.9000e-002	45.219421	8.533197
  40	4.0000e-002	46.653748	9.627099
  41	4.1000e-002	47.729492	10.652295
  42	4.2000e-002	49.079895	11.665588
  43	4.3000e-002	50.811768	12.577173
  44	4.4000e-002	51.612854	13.448184
  45	4.5000e-002	52.543640	14.233716
  46	4.6000e-002	53.955078	14.999231
  47	4.7000e-002	54.809570	15.739320
  48	4.8000e-002	55.313110	16.413406
  49	4.9000e-002	57.586670	17.097230
  50	5.0000e-002	58.738708	17.699364
  51	5.1000e-002	59.799194	18.317727
  52	5.2000e-002	61.447144	18.893351
  53	5.3000e-002	62.461853	19.433810
  54	5.4000e-002	63.591003	19.961285
  55	5.5000e-002	64.804077	20.484974
  56	5.6000e-002	66.009521	20.974038
  57	5.7000e-002	67.016602	21.473922
  58	5.8000e-002	68.496704	21.911591
  59	5.9000e-002	69.595337	22.389836
  60	6.0000e-002	70.808411	22.805865
  61	6.1000e-002	71.960449	23.219189
  62	6.2000e-002	73.043823	23.653071
  63	6.3000e-002	73.471069	24.030148
  64	6.4000e-002	75.614929	24.454292
  65	6.5000e-002	76.713562	24.846518
  66	6.6000e-002	77.629089	25.199250
  67	6.7000e-002	79.010010	25.561179
  68	6.8000e-002	80.108643	25.933928
  69	6.9000e-002	81.344604	26.320202
  70	7.0000e-002	82.702637	26.688623
  71	7.1000e-002	83.908081	27.018633
  72	7.2000e-002	85.105896	27.407613
  73	7.3000e-002	86.448669	27.730590
  74	7.4000e-002	87.043762	28.035714
  75	7.5000e-002	88.653564	28.413332
  76	7.6000e-002	90.522766	28.724407
  77	7.7000e-002	91.186523	29.070647
  78	7.8000e-002	92.193604	29.287047
  79	7.9000e-002	93.627930	29.642485
  80	8.0000e-002	94.894409	29.948150
  81	8.1000e-002	95.825195	30.193223
  82	8.2000e-002	97.496033	30.484281
  83	8.3000e-002	98.342896	30.772093
  84	8.4000e-002	99.594116	30.940344
  85	8.5000e-002	101.394653	31.220582
  86	8.6000e-002	101.867676	31.405604
  87	8.7000e-002	103.080750	31.639857
  88	8.8000e-002	104.537964	31.821634
  89	8.9000e-002	105.407715	32.020181
  90	9.0000e-002	106.735229	32.224138
  91	9.1000e-002	108.169556	32.367503
  92	9.2000e-002	109.085083	32.539541
  93	9.3000e-002	110.107422	32.709956
  94	9.4000e-002	111.801147	32.806254
  95	9.5000e-002	112.960815	32.999932
  96	9.6000e-002	114.006042	33.074590
  97	9.7000e-002	115.257263	33.211463
  98	9.8000e-002	116.439819	33.354287
  99	9.9000e-002	117.362976	33.430027
 100	1.0000e-001	118.782043	33.536063
 101	1.0100e-001	120.010376	33.629115
 102	1.0200e-001	121.147156	33.734610
 103	1.0300e-001	122.512817	33.846056
 104	1.0400e-001	123.374939	33.906107
 105	1.0500e-001	124.595642	34.013225
 106	1.0600e-001	125.991821	34.104114
 107	1.0700e-001	127.357483	34.156591
 108	1.0800e-001	128.532410	34.254512
 109	1.0900e-001	131.202698	34.428173
 110	1.1000e-001	130.783081	34.426009
 111	1.1100e-001	132.072449	34.480650
 112	1.1200e-001	133.224487	34.522307
 113	1.1300e-001	134.544373	34.626179
 114	1.1400e-001	135.345459	34.678115
 115	1.1500e-001	136.787415	34.705706
 116	1.1600e-001	137.901306	34.802004
 117	1.1700e-001	139.266968	34.867465
 118	1.1800e-001	140.441895	34.939959
 119	1.1900e-001	141.471863	34.982698
 120	1.2000e-001	143.798828	35.096308
 121	1.2100e-001	143.920898	35.109833
 122	1.2200e-001	145.622253	35.166097
 123	1.2300e-001	146.385193	35.192065
 124	1.2400e-001	147.590637	35.268346
 125	1.2500e-001	148.612976	35.365185
 126	1.2600e-001	150.032043	35.400350
 127	1.2700e-001	151.145935	35.440384
 128	1.2800e-001	152.549744	35.506927
 129	1.2900e-001	153.564453	35.555076
 130	1.3000e-001	154.792786	35.582667
 131	1.3100e-001	155.410767	35.630275
 132	1.3200e-001	157.325745	35.701687
 133	1.3300e-001	158.302307	35.748213
 134	1.3400e-001	159.553528	35.794198
 135	1.3500e-001	160.758972	35.837478
 136	1.3600e-001	162.010193	35.877512
 137	1.3700e-001	163.291931	35.951629
 138	1.3800e-001	164.360046	36.061452
 139	1.3900e-001	165.405273	36.041435
 140	1.4000e-001	166.664124	36.064698
 141	1.4100e-001	167.762756	36.131241
 142	1.4200e-001	169.128418	36.174521
 143	1.4300e-001	170.440674	36.285967
 144	1.4400e-001	171.447754	36.254589
 145	1.4500e-001	172.828674	36.310853
 146	1.4600e-001	174.156189	36.359543
 147	1.4700e-001	175.102234	36.394167
 148	1.4800e-001	176.109314	36.445022
 149	1.4900e-001	177.398682	36.447186
 150	1.5000e-001	178.993225	36.526713
 151	1.5100e-001	179.946899	36.550517
 152	1.5200e-001	181.152344	36.625175
 153	1.5300e-001	182.579041	36.698210
 154	1.5400e-001	183.540344	36.685767
 155	1.5500e-001	184.478760	36.733916
 156	1.5600e-001	186.058044	36.784770
 157	1.5700e-001	186.904907	36.801541
 158	1.5800e-001	188.270569	36.910823
 159	1.5900e-001	189.361572	36.857805
 160	1.6000e-001	190.521240	36.926512
 161	1.6100e-001	191.825867	36.937873
 162	1.6200e-001	193.099976	36.985481
 163	1.6300e-001	194.328308	37.020646
 164	1.6400e-001	195.663452	37.080697
 165	1.6500e-001	196.769714	37.112075
 166	1.6600e-001	197.525024	37.102337
 167	1.6700e-001	199.050903	37.189979
 168	1.6800e-001	200.424194	37.255981
 169	1.6900e-001	201.271057	37.250571
 170	1.7000e-001	202.430725	37.304671
 171	1.7100e-001	203.285217	37.277080
 172	1.7200e-001	204.994202	37.375001
 173	1.7300e-001	206.382751	37.462643
 174	1.7400e-001	207.733154	37.427478
 175	1.7500e-001	208.526611	37.463725
 176	1.7600e-001	209.899902	37.516743
 177	1.7700e-001	211.967468	37.563810
 178	1.7800e-001	212.196350	37.567056
 179	1.7900e-001	213.508606	37.618992
 180	1.8000e-001	214.889526	37.661731
 181	1.8100e-001	215.553284	37.643878
 182	1.8200e-001	217.308044	37.713667
 183	1.8300e-001	218.658447	37.763980
 184	1.8400e-001	219.299316	37.761816
 185	1.8500e-001	220.977783	37.840261
 186	1.8600e-001	223.182678	37.923034
 187	1.8700e-001	223.052979	37.890574
 188	1.8800e-001	224.273682	37.874885
 189	1.8900e-001	225.738525	37.922493
 190	1.9000e-001	226.684570	37.964150
 191	1.9100e-001	227.996826	38.012840
 192	1.9200e-001	229.072571	38.035021
 193	1.9300e-001	230.026245	38.080465
 194	1.9400e-001	231.613159	38.096695
 195	1.9500e-001	232.833862	38.134024
 196	1.9600e-001	233.528137	38.145926
 197	1.9700e-001	235.084534	38.198403
 198	1.9800e-001	236.541748	38.202190
 199	1.9900e-001	236.824036	38.216256
 200	2.0000e-001	238.517761	38.293078
 201	2.0100e-001	240.402222	38.372064
 202	2.0200e-001	241.065979	38.354211
 203	2.0300e-001	242.385864	38.305521
 204	2.0400e-001	243.560791	38.422918
 205	2.0500e-001	244.667053	38.447804
 206	2.0600e-001	246.070862	38.489461
 207	2.0700e-001	247.161865	38.464034
 208	2.0800e-001	248.291016	38.553299
 209	2.0900e-001	249.389648	38.577103
 210	2.1000e-001	250.602722	38.586841
 211	2.1100e-001	252.677917	38.629580
 212	2.1200e-001	253.074646	38.639859
 213	2.1300e-001	254.257202	38.677729
 214	2.1400e-001	255.256653	38.745895
 215	2.1500e-001	256.904602	38.706943
 216	2.1600e-001	257.781982	38.799996
 217	2.1700e-001	258.178711	38.800537
 218	2.1800e-001	260.078430	38.770240
 219	2.1900e-001	261.444092	38.858424
 220	2.2000e-001	262.855530	38.867621
 221	2.2100e-001	263.977051	38.948230
 222	2.2200e-001	265.068054	38.933623
 223	2.2300e-001	266.548157	38.982313
 224	2.2400e-001	267.616272	39.008281
 225	2.2500e-001	268.455505	39.023970
 226	2.2600e-001	270.240784	39.061299
 227	2.2700e-001	271.095276	39.071037
 228	2.2800e-001	272.338867	39.117563
 229	2.2900e-001	273.689270	39.141367
 230	2.3000e-001	274.688721	39.152728
 231	2.3100e-001	275.985718	39.201959
 232	2.3200e-001	277.252197	39.206287
 233	2.3300e-001	278.350830	39.192221
 234	2.3400e-001	279.533386	39.279863
 235	2.3500e-001	281.433105	39.323684
 236	2.3600e-001	281.906128	39.327471
 237	2.3700e-001	283.073425	39.348570
 238	2.3800e-001	284.431458	39.371833
 239	2.3900e-001	285.499573	39.465967
 240	2.4000e-001	286.697388	39.430261
 241	2.4100e-001	287.895203	39.462180
 242	2.4200e-001	289.100647	39.501673
 243	2.4300e-001	290.153503	39.517362
 244	2.4400e-001	291.755676	39.542248
 245	2.4500e-001	292.716980	39.568757
 246	2.4600e-001	293.899536	39.582823
 247	2.4700e-001	295.204163	39.609873
 248	2.4800e-001	296.485901	39.625021
 249	2.4900e-001	297.538757	39.657481
 250	2.5000e-001	298.858643	39.667219
 251	2.5100e-001	299.949646	39.724565
 252	2.5200e-001	298.698425	39.703466
 253	2.5300e-001	298.645020	39.697515
 254	2.5400e-001	296.440125	39.656399
 255	2.5500e-001	294.960022	39.635841
 256	2.5600e-001	294.197083	39.640710
 257	2.5700e-001	292.732239	39.565511
 258	2.5800e-001	291.519165	39.575249
 259	2.5900e-001	290.527344	39.574167
 260	2.6000e-001	287.986755	39.563888
 261	2.6100e-001	287.834167	39.515198
 262	2.6200e-001	286.895752	39.509788
 263	2.6300e-001	285.545349	39.493017
 264	2.6400e-001	284.271240	39.456770
 265	2.6500e-001	283.187866	39.458393
 266	2.6600e-001	281.944275	39.416195
 267	2.6700e-001	280.899048	39.417818
 268	2.6800e-001	279.609680	39.366964
 269	2.6900e-001	278.266907	39.366964
 270	2.7000e-001	276.420593	39.280404
 271	2.7100e-001	276.359558	39.267420
 272	2.7200e-001	274.696350	39.321520
 273	2.7300e-001	273.452759	39.274453
 274	2.7400e-001	272.392273	39.260387
 275	2.7500e-001	271.514893	39.231173
 276	2.7600e-001	269.828796	39.200336
 277	2.7700e-001	268.981934	39.183024
 278	2.7800e-001	267.372131	39.191139
 279	2.7900e-001	266.044617	39.114858
 280	2.8000e-001	265.228271	39.135957
 281	2.8100e-001	263.832092	39.108366
 282	2.8200e-001	262.466431	39.085644
 283	2.8300e-001	261.497498	39.059676
 284	2.8400e-001	260.360718	39.035331
 285	2.8500e-001	258.628845	39.014773
 286	2.8600e-001	257.827759	38.988264
 287	2.8700e-001	256.706238	38.980149
 288	2.8800e-001	256.065369	38.994215
 289	2.8900e-001	254.249573	38.869244
 290	2.9000e-001	252.540588	38.831374
 291	2.9100e-001	252.220154	38.885474
 292	2.9200e-001	250.679016	38.845440
 293	2.9300e-001	249.626160	38.949853
 294	2.9400e-001	248.435974	38.792422
 295	2.9500e-001	247.108459	38.804324
 296	2.9600e-001	245.918274	38.774027
 297	2.9700e-001	244.468689	38.682057
 298	2.9800e-001	243.537903	38.730747
 299	2.9900e-001	242.454529	38.699369
 300	3.0000e-001	241.378784	38.645269
 301	3.0100e-001	239.944458	38.658253
 302	3.0200e-001	238.952637	38.630121
 303	3.0300e-001	237.693787	38.614973
 304	3.0400e-001	236.343384	38.566283
 305	3.0500e-001	235.420227	38.554922
 306	3.0600e-001	233.901978	38.533823
 307	3.0700e-001	231.620789	38.465116
 308	3.0800e-001	231.590271	38.504068
 309	3.0900e-001	230.407715	38.455919
 310	3.1000e-001	228.927612	38.438066
 311	3.1100e-001	228.004456	38.376392
 312	3.1200e-001	226.776123	38.389376
 313	3.1300e-001	225.486755	38.359080
 314	3.1400e-001	224.372864	38.347178
 315	3.1500e-001	222.854614	38.287127
 316	3.1600e-001	221.656799	38.288209
 317	3.1700e-001	220.802307	38.278471
 318	3.1800e-001	219.543457	38.221666
 319	3.1900e-001	217.018127	38.083170
 320	3.2000e-001	217.155457	38.175681
 321	3.2100e-001	216.041565	38.169189
 322	3.2200e-001	214.492798	38.124827
 323	3.2300e-001	213.592529	38.147549
 324	3.2400e-001	212.364197	38.096695
 325	3.2500e-001	211.265564	38.121040
 326	3.2600e-001	209.907532	38.038267
 327	3.2700e-001	208.930969	38.022037
 328	3.2800e-001	207.328796	38.004184
 329	3.2900e-001	206.390381	37.930067
 330	3.3000e-001	205.223083	37.916001
 331	3.3100e-001	203.872681	37.911673
 332	3.3200e-001	202.796936	37.871639
 333	3.3300e-001	201.667786	37.824572
 334	3.3400e-001	199.165344	37.796981
 335	3.3500e-001	199.089050	37.785620
 336	3.3600e-001	198.036194	37.769931
 337	3.3700e-001	196.891785	37.742881
 338	3.3800e-001	195.518494	37.761275
 339	3.3900e-001	194.618225	37.697437
 340	3.4000e-001	193.038940	37.655239
 341	3.4100e-001	191.787720	37.635763
 342	3.4200e-001	190.887451	37.617369
 343	3.4300e-001	189.796448	37.627648
 344	3.4400e-001	188.545227	37.530809
 345	3.4500e-001	187.179565	37.512415
 346	3.4600e-001	185.859680	37.490775
 347	3.4700e-001	184.661865	37.509169
 348	3.4800e-001	183.738708	37.428560
 349	3.4900e-001	182.998657	37.451823
 350	3.5000e-001	181.213379	37.365263
 351	3.5100e-001	179.954529	37.325770
 352	3.5200e-001	178.550720	37.310622
 353	3.5300e-001	177.841187	37.309540
 354	3.5400e-001	176.597595	37.274375
 355	3.5500e-001	175.003052	37.224062
 356	3.5600e-001	174.110413	37.188356
 357	3.5700e-001	172.958374	37.193225
 358	3.5800e-001	171.371460	37.125600
 359	3.5900e-001	170.860291	37.115862
 360	3.6000e-001	169.342041	37.073664
 361	3.6100e-001	168.930054	37.059598
 362	3.6200e-001	166.381836	37.006580
 363	3.6300e-001	165.634155	36.984940
 364	3.6400e-001	164.115906	36.974661
 365	3.6500e-001	163.299561	36.942742
 366	3.6600e-001	162.078857	36.876740
 367	3.6700e-001	160.720825	36.844821
 368	3.6800e-001	159.721375	36.859969
 369	3.6900e-001	158.226013	36.803705
 370	3.7000e-001	157.035828	36.760966
 371	3.7100e-001	155.677795	36.709571
 372	3.7200e-001	154.769897	36.700915
 373	3.7300e-001	153.503418	36.650061
 374	3.7400e-001	152.481079	36.628421
 375	3.7500e-001	151.260376	36.590010
 376	3.7600e-001	149.787903	36.546189
 377	3.7700e-001	148.735046	36.511565
 378	3.7800e-001	148.124695	36.525090
 379	3.7900e-001	145.812988	36.369281
 380	3.8000e-001	145.278931	36.444481
 381	3.8100e-001	144.065857	36.359543
 382	3.8200e-001	142.883301	36.343854
 383	3.8300e-001	141.532898	36.334657
 384	3.8400e-001	140.396118	36.254048
 385	3.8500e-001	139.053345	36.212932
 386	3.8600e-001	137.992859	36.159373
 387	3.8700e-001	136.817932	36.150717
 388	3.8800e-001	135.284424	36.092289
 389	3.8900e-001	134.361267	36.080928
 390	3.9000e-001	133.041382	36.026287
 391	3.9100e-001	131.904602	35.978679
 392	3.9200e-001	130.790710	35.959203
 393	3.9300e-001	128.211975	35.830986
 394	3.9400e-001	128.669739	35.799067
 395	3.9500e-001	127.311707	35.841265
 396	3.9600e-001	125.968933	35.792575
 397	3.9700e-001	124.198914	35.721704
 398	3.9800e-001	123.588562	35.698441
 399	3.9900e-001	122.161865	35.652456
 400	4.0000e-001	121.269226	35.624865
 401	4.0100e-001	119.728088	35.566437
 402	4.0200e-001	118.667603	35.516124
 403	4.0300e-001	117.622375	35.528026
 404	4.0400e-001	116.378784	35.438761
 405	4.0500e-001	114.959717	35.408465
 406	4.0600e-001	114.036560	35.366808
 407	4.0700e-001	112.945557	35.299724
 408	4.0800e-001	112.037659	35.259690
 409	4.0900e-001	110.336304	35.218033
 410	4.1000e-001	109.016418	35.151490
 411	4.1100e-001	107.940674	35.147703
 412	4.1200e-001	106.872559	35.070340
 413	4.1300e-001	105.461121	35.018945
 414	4.1400e-001	104.316711	34.937254
 415	4.1500e-001	102.989197	34.944287
 416	4.1600e-001	101.997375	34.871252
 417	4.1700e-001	99.899292	34.823103
 418	4.1800e-001	99.777222	34.801463
 419	4.1900e-001	98.228455	34.734920
 420	4.2000e-001	97.213745	34.655393
 421	4.2100e-001	95.947266	34.626179
 422	4.2200e-001	94.764709	34.568833
 423	4.2300e-001	93.368530	34.512569
 424	4.2400e-001	92.300415	34.448190
 425	4.2500e-001	91.300964	34.340531
 426	4.2600e-001	90.103149	34.341613
 427	4.2700e-001	88.867188	34.263168
 428	4.2800e-001	87.570190	34.231249
 429	4.2900e-001	86.296082	34.250725
 430	4.3000e-001	85.487366	34.094376
 431	4.3100e-001	83.900452	34.057587
 432	4.3200e-001	82.664490	33.976978
 433	4.3300e-001	81.832886	33.917468
 434	4.3400e-001	80.200195	33.870942
 435	4.3500e-001	79.284668	33.775185
 436	4.3600e-001	77.980042	33.718921
 437	4.3700e-001	76.797485	33.733528
 438	4.3800e-001	75.531006	33.584212
 439	4.3900e-001	74.493408	33.540391
 440	4.4000e-001	73.181152	33.430027
 441	4.4100e-001	71.792603	33.373222
 442	4.4200e-001	70.922852	33.296400
 443	4.4300e-001	69.427490	33.209840
 444	4.4400e-001	68.367004	33.160609
 445	4.4500e-001	67.207336	33.055655
 446	4.4600e-001	65.910339	32.961521
 447	4.4700e-001	64.537048	32.896601
 448	4.4800e-001	63.728333	32.819238
 449	4.4900e-001	62.522888	32.713202
 450	4.5000e-001	61.103821	32.614199
 451	4.5100e-001	60.585022	32.550361
 452	4.5200e-001	57.922363	32.326387
 453	4.5300e-001	57.594299	32.323682
 454	4.5400e-001	57.174683	32.251729
 455	4.5500e-001	55.107117	32.119184
 456	4.5600e-001	53.878784	31.988262
 457	4.5700e-001	52.848816	31.887095
 458	4.5800e-001	51.406860	31.749140
 459	4.5900e-001	50.277710	31.645267
 460	4.6000e-001	49.247742	31.518673
 461	4.6100e-001	47.889709	31.343930
 462	4.6200e-001	46.897888	31.224369
 463	4.6300e-001	44.898987	31.043675
 464	4.6400e-001	44.456482	30.913835
 465	4.6500e-001	43.128967	30.733682
 466	4.6600e-001	41.908264	30.550824
 467	4.6700e-001	41.099548	30.346326
 468	4.6800e-001	39.573669	30.166173
 469	4.6900e-001	38.490295	29.938953
 470	4.7000e-001	37.200928	29.734996
 471	4.7100e-001	35.850525	29.574319
 472	4.7200e-001	34.904480	29.297326
 473	4.7300e-001	33.195496	29.003563
 474	4.7400e-001	32.272339	28.737932
 475	4.7500e-001	31.089783	28.425234
 476	4.7600e-001	30.067444	28.174751
 477	4.7700e-001	28.503418	27.842036
 478	4.7800e-001	27.648926	27.517977
 479	4.7900e-001	26.184082	27.176065
 480	4.8000e-001	25.337219	26.817922
 481	4.8100e-001	23.834229	26.432189
 482	4.8200e-001	23.345947	26.021029
 483	4.8300e-001	21.545410	25.600672
 484	4.8400e-001	20.423889	25.146232
 485	4.8500e-001	19.035339	24.730744
 486	4.8600e-001	17.967224	24.214088
 487	4.8700e-001	16.380310	23.727188
 488	4.8800e-001	15.441895	23.201877
 489	4.8900e-001	14.289856	22.636532
 490	4.9000e-001	13.084412	22.107433
 491	4.9100e-001	12.413025	21.539924
 492	4.9200e-001	10.803223	20.869625
 493	4.9300e-001	8.979797	20.186883
 494	4.9400e-001	8.354187	19.494943
 495	4.9500e-001	7.057190	18.836005
 496	4.9600e-001	6.019592	18.124049
 497	4.9700e-001	4.737854	17.383960
 498	4.9800e-001	3.692627	16.573001
 499	4.9900e-001	2.433777	15.724713
 500	5.0000e-001	1.251221	14.928360
 501	5.0100e-001	0.312805	14.057350
 502	5.0200e-001	-0.991821	13.128994
 503	5.0300e-001	-2.372742	12.243376
 504	5.0400e-001	-3.318787	11.254969
 505	5.0500e-001	-5.203247	10.316333
 506	5.0600e-001	-5.805969	9.211611
 507	5.0700e-001	-6.935120	8.208055
 508	5.0800e-001	-8.377075	7.177450
 509	5.0900e-001	-9.414673	5.984004
 510	5.1000e-001	-9.849548	4.918774
 511	5.1100e-001	-11.962891	3.699901
 512	5.1200e-001	-13.038635	2.510241
 513	5.1300e-001	-12.809753	1.277843
 514	5.1400e-001	-15.457153	-0.021099
 515	5.1500e-001	-16.708374	-1.269728
 516	5.1600e-001	-17.875671	-2.538914
 517	5.1700e-001	-18.943787	-3.811347
 518	5.1800e-001	-20.187378	-5.104878
 519	5.1900e-001	-21.430969	-6.459002
 520	5.2000e-001	-22.407532	-7.741713
 521	5.2100e-001	-23.971558	-9.008195
 522	5.2200e-001	-24.978638	-10.304972
 523	5.2300e-001	-26.336670	-11.526551
 524	5.2400e-001	-27.435303	-12.777884
 525	5.2500e-001	-28.671265	-13.995676
 526	5.2600e-001	-29.769897	-15.127989
 527	5.2700e-001	-31.097412	-16.267336
 528	5.2800e-001	-32.165527	-17.333647
 529	5.2900e-001	-32.173157	-18.332334
 530	5.3000e-001	-34.614563	-19.402973
 531	5.3100e-001	-35.697937	-20.332953
 532	5.3200e-001	-37.063599	-21.269965
 533	5.3300e-001	-38.223267	-22.149090
 534	5.3400e-001	-39.306641	-22.942197
 535	5.3500e-001	-40.916443	-23.732598
 536	5.3600e-001	-41.923523	-24.420209
 537	5.3700e-001	-43.235779	-25.186266
 538	5.3800e-001	-44.822693	-25.719692
 539	5.3900e-001	-45.593262	-26.276381
 540	5.4000e-001	-46.760559	-26.826578
 541	5.4100e-001	-47.836304	-27.281019
 542	5.4200e-001	-49.057007	-27.723016
 543	5.4300e-001	-50.338745	-28.121733
 544	5.4400e-001	-51.422119	-28.451743
 545	5.4500e-001	-53.062439	-28.809344
 546	5.4600e-001	-54.077148	-29.098779
 547	5.4700e-001	-55.107117	-29.349803
 548	5.4800e-001	-56.434631	-29.637616
 549	5.4900e-001	-57.746887	-29.811277
 550	5.5000e-001	-58.609009	-30.024972
 551	5.5100e-001	-60.073853	-30.211617
 552	5.5200e-001	-61.332703	-30.281406
 553	5.5300e-001	-62.019348	-30.584366
 554	5.5400e-001	-63.583374	-30.727190
 555	5.5500e-001	-64.865112	-30.885162
 556	5.5600e-001	-65.505981	-31.050708
 557	5.5700e-001	-67.070007	-31.161072
 558	5.5800e-001	-68.473816	-31.325536
 559	5.5900e-001	-69.091797	-31.370439
 560	5.6000e-001	-70.716858	-31.539772
 561	5.6100e-001	-72.448730	-31.723171
 562	5.6200e-001	-72.898865	-31.767534
 563	5.6300e-001	-74.325562	-31.897374
 564	5.6400e-001	-75.485229	-31.946064
 565	5.6500e-001	-76.675415	-32.074822
 566	5.6600e-001	-78.628540	-32.181940
 567	5.6700e-001	-79.254150	-32.253352
 568	5.6800e-001	-80.123901	-32.305288
 569	5.6900e-001	-81.726074	-32.459473
 570	5.7000e-001	-82.656860	-32.520065
 571	5.7100e-001	-83.763123	-32.607166
 572	5.7200e-001	-85.136414	-32.732137
 573	5.7300e-001	-86.410522	-32.768925
 574	5.7400e-001	-87.417603	-32.836009
 575	5.7500e-001	-89.141846	-32.922028
 576	5.7600e-001	-90.065002	-32.991276
 577	5.7700e-001	-91.087341	-33.055114
 578	5.7800e-001	-92.453003	-33.131395
 579	5.7900e-001	-93.574524	-33.167101
 580	5.8000e-001	-94.612122	-33.253661
 581	5.8100e-001	-95.962524	-33.309925
 582	5.8200e-001	-96.961975	-33.375927
 583	5.8300e-001	-98.327637	-33.450044
 584	5.8400e-001	-99.609375	-33.536063
 585	5.8500e-001	-100.753784	-33.557162
 586	5.8600e-001	-101.982117	-33.638853
 587	5.8700e-001	-103.134155	-33.711888
 588	5.8800e-001	-104.187012	-33.711888
 589	5.8900e-001	-105.354309	-33.814678
 590	5.9000e-001	-106.552124	-33.874188
 591	5.9100e-001	-107.994080	-33.936403
 592	5.9200e-001	-109.107971	-33.986175
 593	5.9300e-001	-110.565186	-34.052177
 594	5.9400e-001	-112.388611	-34.168493
 595	5.9500e-001	-112.655640	-34.124131
 596	5.9600e-001	-113.983154	-34.164165
 597	5.9700e-001	-115.051270	-34.271283
 598	5.9800e-001	-116.043091	-34.286431
 599	5.9900e-001	-117.584229	-34.376778
 600	6.0000e-001	-118.843079	-34.416812
 601	6.0100e-001	-120.109558	-34.466043
 602	6.0200e-001	-121.330261	-34.522848
 603	6.0300e-001	-123.123169	-34.604539
 604	6.0400e-001	-123.313904	-34.613736
 605	6.0500e-001	-124.755859	-34.681902
 606	6.0600e-001	-126.167297	-34.705706
 607	6.0700e-001	-127.243042	-34.766839
 608	6.0800e-001	-130.058289	-34.854481
 609	6.0900e-001	-129.669189	-34.852317
 610	6.1000e-001	-130.622864	-34.891810
 611	6.1100e-001	-131.896973	-34.922106
 612	6.1200e-001	-133.010864	-34.998387
 613	6.1300e-001	-134.460449	-35.021650
 614	6.1400e-001	-135.498047	-35.018945
 615	6.1500e-001	-136.642456	-35.136883
 616	6.1600e-001	-137.969971	-35.163392
 617	6.1700e-001	-139.129639	-35.226148
 618	6.1800e-001	-140.396118	-35.258608
 619	6.1900e-001	-141.471863	-35.292691
 620	6.2000e-001	-142.654419	-35.375464
 621	6.2100e-001	-144.149780	-35.386825
 622	6.2200e-001	-145.164490	-35.430646
 623	6.2300e-001	-146.438599	-35.484746
 624	6.2400e-001	-147.491455	-35.525862
 625	6.2500e-001	-148.933411	-35.570765
 626	6.2600e-001	-149.948120	-35.597815
 627	6.2700e-001	-151.161194	-35.647587
 628	6.2800e-001	-152.687073	-35.708179
 629	6.2900e-001	-153.572083	-35.789870
 630	6.3000e-001	-154.655457	-35.794198
 631	6.3100e-001	-157.104492	-35.846675
 632	6.3200e-001	-157.150269	-35.842888
 633	6.3300e-001	-158.248901	-35.896988
 634	6.3400e-001	-159.690857	-35.915382
 635	6.3500e-001	-160.720825	-35.978679
 636	6.3600e-001	-161.804199	-36.018713
 637	6.3700e-001	-163.345337	-36.054419
 638	6.3800e-001	-164.596558	-36.121503
 639	6.3900e-001	-165.458679	-36.113929
 640	6.4000e-001	-167.083740	-36.157209
 641	6.4100e-001	-168.052673	-36.190751
 642	6.4200e-001	-169.189453	-36.253507
 643	6.4300e-001	-170.394897	-36.304361
 644	6.4400e-001	-171.730042	-36.326542
 645	6.4500e-001	-172.744751	-36.388216
 646	6.4600e-001	-174.057007	-36.396872
 647	6.4700e-001	-175.079346	-36.435825
 648	6.4800e-001	-176.498413	-36.496417
 649	6.4900e-001	-177.322388	-36.505614
 650	6.5000e-001	-178.489685	-36.545107
 651	6.5100e-001	-179.306030	-36.532664
 652	6.5200e-001	-181.449890	-36.627880
 653	6.5300e-001	-182.273865	-36.665750
 654	6.5400e-001	-183.471680	-36.697669
 655	6.5500e-001	-184.867859	-36.740408
 656	6.5600e-001	-186.058044	-36.778278
 657	6.5700e-001	-187.088013	-36.796672
 658	6.5800e-001	-188.781738	-36.843739
 659	6.5900e-001	-189.254761	-36.844280
 660	6.6000e-001	-190.795898	-36.889724
 661	6.6100e-001	-192.085266	-36.944365
 662	6.6200e-001	-193.336487	-36.968710
 663	6.6300e-001	-194.358826	-37.023351
 664	6.6400e-001	-195.762634	-37.046614
 665	6.6500e-001	-196.868896	-37.082861
 666	6.6600e-001	-198.005676	-37.131551
 667	6.6700e-001	-198.669434	-37.080156
 668	6.6800e-001	-200.134277	-37.134797
 669	6.6900e-001	-201.538086	-37.213783
 670	6.7000e-001	-202.827454	-37.243538
 671	6.7100e-001	-203.842163	-37.308458
 672	6.7200e-001	-204.910278	-37.332262
 673	6.7300e-001	-206.764221	-37.372837
 674	6.7400e-001	-207.611084	-37.386903
 675	6.7500e-001	-209.007263	-37.458315
 676	6.7600e-001	-210.258484	-37.457774
 677	6.7700e-001	-211.105347	-37.501595
 678	6.7800e-001	-212.501526	-37.535678
 679	6.7900e-001	-213.623047	-37.562187
 680	6.8000e-001	-214.897156	-37.574630
 681	6.8100e-001	-215.835571	-37.613041
 682	6.8200e-001	-217.300415	-37.659567
 683	6.8300e-001	-218.513489	-37.686076
 684	6.8400e-001	-219.451904	-37.719077
 685	6.8500e-001	-221.832275	-37.769390
 686	6.8600e-001	-221.969604	-37.779669
 687	6.8700e-001	-222.152710	-37.738012
 688	6.8800e-001	-224.632263	-37.864606
 689	6.8900e-001	-225.631714	-37.884623
 690	6.9000e-001	-226.646423	-37.926280
 691	6.9100e-001	-228.210449	-37.938182
 692	6.9200e-001	-229.286194	-37.979839
 693	6.9300e-001	-230.484009	-37.977134
 694	6.9400e-001	-231.620789	-38.042054
 695	6.9500e-001	-232.696533	-38.050169
 696	6.9600e-001	-233.695984	-38.107515
 697	6.9700e-001	-235.351563	-38.144844
 698	6.9800e-001	-236.419678	-38.138893
 699	6.9900e-001	-237.365723	-38.188665
 700	7.0000e-001	-238.967896	-38.222748
 701	7.0100e-001	-240.066528	-38.217879
 702	7.0200e-001	-241.210938	-38.262782
 703	7.0300e-001	-242.225647	-38.325538
 704	7.0400e-001	-243.659973	-38.347178
 705	7.0500e-001	-244.972229	-38.377474
 706	7.0600e-001	-246.276855	-38.408852
 707	7.0700e-001	-247.253418	-38.424000
 708	7.0800e-001	-248.458862	-38.464034
 709	7.0900e-001	-249.603271	-38.490002
 710	7.1000e-001	-251.007080	-38.503527
 711	7.1100e-001	-252.159119	-38.531659
 712	7.1200e-001	-253.204346	-38.577103
 713	7.1300e-001	-254.447937	-38.601989
 714	7.1400e-001	-255.958557	-38.625252
 715	7.1500e-001	-257.247925	-38.673401
 716	7.1600e-001	-258.224487	-38.692877
 717	7.1700e-001	-259.246826	-38.722091
 718	7.1800e-001	-260.307312	-38.727501
 719	7.1900e-001	-261.810303	-38.796750
 720	7.2000e-001	-262.977600	-38.799996
 721	7.2100e-001	-262.847900	-38.847063
 722	7.2200e-001	-265.167236	-38.860588
 723	7.2300e-001	-266.525269	-38.886015
 724	7.2400e-001	-268.188477	-38.939574
 725	7.2500e-001	-268.798828	-38.977985
 726	7.2600e-001	-270.141602	-38.978526
 727	7.2700e-001	-271.209717	-39.022347
 728	7.2800e-001	-272.460938	-39.029921
 729	7.2900e-001	-273.796082	-39.046151
 730	7.3000e-001	-275.634766	-39.130547
 731	7.3100e-001	-276.329041	-39.111612
 732	7.3200e-001	-277.076721	-39.154351
 733	7.3300e-001	-278.388977	-39.164630
 734	7.3400e-001	-279.884338	-39.196008
 735	7.3500e-001	-280.502319	-39.334504
 736	7.3600e-001	-281.829834	-39.238206
 737	7.3700e-001	-283.279419	-39.273371
 738	7.3800e-001	-284.484863	-39.319897
 739	7.3900e-001	-285.507202	-39.290683
 740	7.4000e-001	-286.834717	-39.366964
 741	7.4100e-001	-288.070679	-39.393473
 742	7.4200e-001	-289.100647	-39.424851
 743	7.4300e-001	-289.840698	-39.434048
 744	7.4400e-001	-291.564941	-39.496804
 745	7.4500e-001	-292.686462	-39.515198
 746	7.4600e-001	-294.487000	-39.541707
 747	7.4700e-001	-295.181274	-39.553068
 748	7.4800e-001	-296.127319	-39.596889
 749	7.4900e-001	-297.775269	-39.599053
 750	7.5000e-001	-298.927307	-39.622857
 751	7.5100e-001	-300.003052	-39.689941
 752	7.5200e-001	-298.614502	-39.632054
 753	7.5300e-001	-297.462463	-39.623398
 754	7.5400e-001	-296.318054	-39.602840
 755	7.5500e-001	-295.257568	-39.589856
 756	7.5600e-001	-293.807983	-39.555773
 757	7.5700e-001	-292.778015	-39.616365
 758	7.5800e-001	-291.488647	-39.557937
 759	7.5900e-001	-290.527344	-39.508165
 760	7.6000e-001	-288.963318	-39.549281
 761	7.6100e-001	-287.887573	-39.483820
 762	7.6200e-001	-286.804199	-39.437294
 763	7.6300e-001	-285.430908	-39.430802
 764	7.6400e-001	-284.416199	-39.417818
 765	7.6500e-001	-283.126831	-39.392391
 766	7.6600e-001	-281.852722	-39.373997
 767	7.6700e-001	-280.830383	-39.338832
 768	7.6800e-001	-279.708862	-39.343160
 769	7.6900e-001	-278.327942	-39.310700
 770	7.7000e-001	-277.412415	-39.276076
 771	7.7100e-001	-275.802612	-39.269043
 772	7.7200e-001	-274.757385	-39.250108
 773	7.7300e-001	-273.704529	-39.218730
 774	7.7400e-001	-272.560120	-39.198172
 775	7.7500e-001	-271.202087	-39.139744
 776	7.7600e-001	-270.111084	-39.148400
 777	7.7700e-001	-268.951416	-39.126760
 778	7.7800e-001	-267.494202	-39.106743
 779	7.7900e-001	-266.403198	-39.081316
 780	7.8000e-001	-264.869690	-39.047233
 781	7.8100e-001	-263.908386	-39.057512
 782	7.8200e-001	-263.618469	-39.111071
 783	7.8300e-001	-261.672974	-38.981231
 784	7.8400e-001	-260.261536	-38.988264
 785	7.8500e-001	-259.155273	-38.956345
 786	7.8600e-001	-257.789612	-38.928213
 787	7.8700e-001	-256.721497	-38.916311
 788	7.8800e-001	-255.622864	-38.900081
 789	7.8900e-001	-253.906250	-38.880605
 790	7.9000e-001	-253.189087	-38.853014
 791	7.9100e-001	-251.922607	-38.831915
 792	7.9200e-001	-250.762939	-38.800537
 793	7.9300e-001	-249.740601	-38.808652
 794	7.9400e-001	-248.161316	-38.721009
 795	7.9500e-001	-247.055054	-38.745895
 796	7.9600e-001	-245.803833	-38.703697
 797	7.9700e-001	-244.880676	-38.682057
 798	7.9800e-001	-242.713928	-38.629039
 799	7.9900e-001	-242.416382	-38.655548
 800	8.0000e-001	-241.264343	-38.619842
 801	8.0100e-001	-239.906311	-38.576562
 802	8.0200e-001	-238.616943	-38.559791
 803	8.0300e-001	-237.609863	-38.533282
 804	8.0400e-001	-236.480713	-38.512724
 805	8.0500e-001	-235.282898	-38.486756
 806	8.0600e-001	-233.879089	-38.439689
 807	8.0700e-001	-232.910156	-38.455919
 808	8.0800e-001	-232.406616	-38.393163
 809	8.0900e-001	-230.308533	-38.333653
 810	8.1000e-001	-229.141235	-38.356916
 811	8.1100e-001	-228.012085	-38.333112
 812	8.1200e-001	-226.547241	-38.304980
 813	8.1300e-001	-225.418091	-38.297406
 814	8.1400e-001	-224.586487	-38.275225
 815	8.1500e-001	-222.900391	-38.233568
 816	8.1600e-001	-221.771240	-38.210846
 817	8.1700e-001	-221.725464	-38.220043
 818	8.1800e-001	-219.360352	-38.159992
 819	8.1900e-001	-218.437195	-38.137811
 820	8.2000e-001	-217.201233	-38.116171
 821	8.2100e-001	-215.888977	-38.088039
 822	8.2200e-001	-214.660645	-38.080465
 823	8.2300e-001	-213.714600	-38.015004
 824	8.2400e-001	-212.310791	-37.967937
 825	8.2500e-001	-211.280823	-37.976593
 826	8.2600e-001	-210.144043	-37.942510
 827	8.2700e-001	-208.999634	-37.945215
 828	8.2800e-001	-207.397461	-37.903017
 829	8.2900e-001	-206.512451	-37.871639
 830	8.3000e-001	-205.101013	-37.834851
 831	8.3100e-001	-203.880310	-37.802932
 832	8.3200e-001	-202.919006	-37.780210
 833	8.3300e-001	-201.461792	-37.773177
 834	8.3400e-001	-200.279236	-37.692027
 835	8.3500e-001	-199.211121	-37.720700
 836	8.3600e-001	-197.372437	-37.651993
 837	8.3700e-001	-196.777344	-37.646583
 838	8.3800e-001	-195.655823	-37.610336
 839	8.3900e-001	-194.915771	-37.606549
 840	8.4000e-001	-193.016052	-37.567597
 841	8.4100e-001	-192.298889	-37.548662
 842	8.4200e-001	-190.719604	-37.517825
 843	8.4300e-001	-189.559937	-37.475627
 844	8.4400e-001	-189.002991	-37.491316
 845	8.4500e-001	-187.377930	-37.412871
 846	8.4600e-001	-186.012268	-37.401510
 847	8.4700e-001	-184.791565	-37.373919
 848	8.4800e-001	-183.380127	-37.359853
 849	8.4900e-001	-182.540894	-37.296556
 850	8.5000e-001	-181.259155	-37.266801
 851	8.5100e-001	-179.962158	-37.254358
 852	8.5200e-001	-178.863525	-37.230554
 853	8.5300e-001	-177.589417	-37.226226
 854	8.5400e-001	-176.345825	-37.185651
 855	8.5500e-001	-174.789429	-37.145617
 856	8.5600e-001	-174.079895	-37.105583
 857	8.5700e-001	-172.744751	-37.067713
 858	8.5800e-001	-171.524048	-37.059057
 859	8.5900e-001	-170.959473	-37.028220
 860	8.6000e-001	-169.052124	-37.003334
 861	8.6100e-001	-167.816162	-36.965464
 862	8.6200e-001	-166.786194	-36.931381
 863	8.6300e-001	-165.512085	-36.905413
 864	8.6400e-001	-164.512634	-36.855100
 865	8.6500e-001	-163.208008	-36.836165
 866	8.6600e-001	-161.911011	-36.817771
 867	8.6700e-001	-160.560608	-36.771786
 868	8.6800e-001	-159.484863	-36.718768
 869	8.6900e-001	-159.362793	-36.738785
 870	8.7000e-001	-157.302856	-36.660340
 871	8.7100e-001	-155.982971	-36.647356
 872	8.7200e-001	-154.754639	-36.605158
 873	8.7300e-001	-153.427124	-36.546730
 874	8.7400e-001	-151.870728	-36.496417
 875	8.7500e-001	-151.382446	-36.498581
 876	8.7600e-001	-149.955750	-36.487761
 877	8.7700e-001	-148.918152	-36.455842
 878	8.7800e-001	-147.491455	-36.412020
 879	8.7900e-001	-146.408081	-36.381724
 880	8.8000e-001	-145.133972	-36.353592
 881	8.8100e-001	-144.020081	-36.324919
 882	8.8200e-001	-142.646790	-36.323296
 883	8.8300e-001	-141.555786	-36.238900
 884	8.8400e-001	-140.495300	-36.216719
 885	8.8500e-001	-139.282227	-36.166947
 886	8.8600e-001	-138.130188	-36.163160
 887	8.8700e-001	-136.787415	-36.103109
 888	8.8800e-001	-135.490417	-36.066321
 889	8.8900e-001	-132.728577	-35.998696
 890	8.9000e-001	-133.407593	-36.000319
 891	8.9100e-001	-132.133484	-35.963531
 892	8.9200e-001	-130.584717	-35.938645
 893	8.9300e-001	-129.615784	-35.880758
 894	8.9400e-001	-128.448486	-35.871020
 895	8.9500e-001	-127.059937	-35.833150
 896	8.9600e-001	-125.816345	-35.782837
 897	8.9700e-001	-125.068665	-35.766607
 898	8.9800e-001	-123.718262	-35.716835
 899	8.9900e-001	-122.428894	-35.683834
 900	9.0000e-001	-121.017456	-35.635144
 901	9.0100e-001	-119.766235	-35.604848
 902	9.0200e-001	-118.835449	-35.577798
 903	9.0300e-001	-117.706299	-35.514501
 904	9.0400e-001	-116.363525	-35.501517
 905	9.0500e-001	-115.509033	-35.462565
 906	9.0600e-001	-114.173889	-35.376005
 907	9.0700e-001	-112.686157	-35.389530
 908	9.0800e-001	-111.419678	-35.324610
 909	9.0900e-001	-110.328674	-35.301347
 910	9.1000e-001	-108.421326	-35.233722
 911	9.1100e-001	-107.757568	-35.225066
 912	9.1200e-001	-106.765747	-35.227230
 913	9.1300e-001	-105.552673	-35.149326
 914	9.1400e-001	-104.385376	-35.083865
 915	9.1500e-001	-103.202820	-35.038962
 916	9.1600e-001	-101.974487	-35.022191
 917	9.1700e-001	-100.631714	-34.957271
 918	9.1800e-001	-99.647522	-34.910745
 919	9.1900e-001	-98.175049	-34.921024
 920	9.2000e-001	-97.427368	-34.848530
 921	9.2100e-001	-96.115112	-34.784692
 922	9.2200e-001	-94.711304	-34.765216
 923	9.2300e-001	-93.360901	-34.719772
 924	9.2400e-001	-92.414856	-34.640786
 925	9.2500e-001	-91.140747	-34.627802
 926	9.2600e-001	-89.820862	-34.566669
 927	9.2700e-001	-88.928223	-34.605621
 928	9.2800e-001	-87.463379	-34.480109
 929	9.2900e-001	-86.502075	-34.438993
 930	9.3000e-001	-84.846497	-34.387598
 931	9.3100e-001	-83.938599	-34.336203
 932	9.3200e-001	-82.740784	-34.306448
 933	9.3300e-001	-81.672668	-34.241528
 934	9.3400e-001	-80.307007	-34.196625
 935	9.3500e-001	-79.681396	-34.170116
 936	9.3600e-001	-78.063965	-34.087884
 937	9.3700e-001	-76.789856	-34.062456
 938	9.3800e-001	-75.469971	-34.012143
 939	9.3900e-001	-74.333191	-33.939649
 940	9.4000e-001	-73.089600	-33.897992
 941	9.4100e-001	-71.960449	-33.835777
 942	9.4200e-001	-70.762634	-33.802235
 943	9.4300e-001	-69.465637	-33.738938
 944	9.4400e-001	-68.420410	-33.676723
 945	9.4500e-001	-67.680359	-33.644804
 946	9.4600e-001	-65.757751	-33.567441
 947	9.4700e-001	-64.140320	-33.486832
 948	9.4800e-001	-63.552856	-33.462487
 949	9.4900e-001	-62.301636	-33.392157
 950	9.5000e-001	-61.157227	-33.311548
 951	9.5100e-001	-60.211182	-33.298564
 952	9.5200e-001	-58.937073	-33.242841
 953	9.5300e-001	-57.502747	-33.169806
 954	9.5400e-001	-56.228638	-33.097312
 955	9.5500e-001	-55.381775	-33.056737
 956	9.5600e-001	-54.580688	-33.057819
 957	9.5700e-001	-52.742004	-32.918241
 958	9.5800e-001	-51.750183	-32.867387
 959	9.5900e-001	-50.552368	-32.788401
 960	9.6000e-001	-49.018860	-32.705087
 961	9.6100e-001	-48.057556	-32.657479
 962	9.6200e-001	-46.669006	-32.581198
 963	9.6300e-001	-45.486450	-32.515196
 964	9.6400e-001	-44.380188	-32.448112
 965	9.6500e-001	-43.495178	-32.340453
 966	9.6600e-001	-42.152405	-32.302583
 967	9.6700e-001	-40.763855	-32.237122
 968	9.6800e-001	-39.680481	-32.144611
 969	9.6900e-001	-38.391113	-32.087806
 970	9.7000e-001	-37.536621	-31.985557
 971	9.7100e-001	-36.270142	-31.891423
 972	9.7200e-001	-34.828186	-31.838946
 973	9.7300e-001	-33.699036	-31.736156
 974	9.7400e-001	-32.646179	-31.668530
 975	9.7500e-001	-31.074524	-31.544641
 976	9.7600e-001	-30.181885	-31.475934
 977	9.7700e-001	-28.823853	-31.387751
 978	9.7800e-001	-27.648926	-31.244927
 979	9.7900e-001	-26.489258	-31.182171
 980	9.8000e-001	-24.589539	-30.993903
 981	9.8100e-001	-24.528503	-30.961443
 982	9.8200e-001	-22.827148	-30.850538
 983	9.8300e-001	-21.591187	-30.725026
 984	9.8400e-001	-20.301819	-30.662270
 985	9.8500e-001	-19.630432	-30.484281
 986	9.8600e-001	-18.165588	-30.305751
 987	9.8700e-001	-16.746521	-30.212158
 988	9.8800e-001	-15.922546	-30.073662
 989	9.8900e-001	-14.595032	-29.930838
 990	9.9000e-001	-13.153076	-29.733914
 991	9.9100e-001	-12.069702	-29.577565
 992	9.9200e-001	-10.749817	-29.408232
 993	9.9300e-001	-9.796143	-29.204274
 994	9.9400e-001	-8.293152	-29.034400
 995	9.9500e-001	-8.338928	-28.890494
 996	9.9600e-001	-5.889893	-28.513958
 997	9.9700e-001	-4.844666	-28.352199
 998	9.9800e-001	-3.646851	-28.076289
 999	9.9900e-001	-2.113342	-27.833921
1000	1.0000e+000	-1.068115	-27.532584
1001	1.0010e+000	-0.068665	-27.207443
1002	1.0020e+000	1.197815	-26.945598
1003	1.0030e+000	2.326965	-26.563652
1004	1.0040e+000	3.402710	-26.215789
1005	1.0050e+000	4.936218	-25.835466
1006	1.0060e+000	5.928040	-25.401043
1007	1.0070e+000	7.064819	-24.991506
1008	1.0080e+000	8.247375	-24.521376
1009	1.0090e+000	9.544373	-24.071264
1010	1.0100e+000	10.520935	-23.566511
1011	1.0110e+000	11.947632	-22.970870
1012	1.0120e+000	12.901306	-22.452051
1013	1.0130e+000	14.297485	-21.840720
1014	1.0140e+000	15.335083	-21.142830
1015	1.0150e+000	16.777039	-20.498499
1016	1.0160e+000	17.906189	-19.741639
1017	1.0170e+000	19.134521	-18.941500
1018	1.0180e+000	20.065308	-17.985553
1019	1.0190e+000	21.102905	-17.069639
1020	1.0200e+000	22.483826	-16.038493
1021	1.0210e+000	24.063110	-14.860194
1022	1.0220e+000	25.093079	-13.754390
1023	1.0230e+000	26.008606	-12.471137
1024	1.0240e+000	27.160645	-11.106735
1025	1.0250e+000	28.610229	-9.727184
1026	1.0260e+000	29.769897	-8.203186
1027	1.0270e+000	31.051636	-6.752224
1028	1.0280e+000	32.157898	-5.169257
1029	1.0290e+000	33.393860	-3.645801
1030	1.0300e+000	34.240723	-2.112065
1031	1.0310e+000	35.682678	-0.498802
1032	1.0320e+000	36.933899	1.024654
1033	1.0330e+000	38.276672	2.504290
1034	1.0340e+000	39.497375	3.941187
1035	1.0350e+000	40.504456	5.302884
1036	1.0360e+000	41.481018	6.614269
1037	1.0370e+000	43.014526	7.863438
1038	1.0380e+000	44.319153	9.028753
1039	1.0390e+000	45.608521	10.193526
1040	1.0400e+000	46.691895	11.131080
1041	1.0410e+000	47.515869	12.118946
1042	1.0420e+000	49.133301	13.015384
1043	1.0430e+000	50.163269	13.883148
1044	1.0440e+000	51.445007	14.689779
1045	1.0450e+000	52.734375	15.473689
1046	1.0460e+000	53.863525	16.200252
1047	1.0470e+000	54.847717	16.835386
1048	1.0480e+000	56.144714	17.458618
1049	1.0490e+000	57.540894	18.157050
1050	1.0500e+000	58.616638	18.706706
1051	1.0510e+000	59.272766	19.264477
1052	1.0520e+000	61.012268	19.868233
1053	1.0530e+000	62.141418	20.377856
1054	1.0540e+000	63.629150	20.928053
1055	1.0550e+000	64.765930	21.390067
1056	1.0560e+000	65.589905	21.865065
1057	1.0570e+000	67.176819	22.326539
1058	1.0580e+000	68.130493	22.765831
1059	1.0590e+000	69.366455	23.215943
1060	1.0600e+000	70.899963	23.626021
1061	1.0610e+000	71.678162	23.973884
1062	1.0620e+000	72.898865	24.443472
1063	1.0630e+000	74.569702	24.815681
1064	1.0640e+000	75.508118	25.258760
1065	1.0650e+000	76.660156	25.533047
1066	1.0660e+000	77.980042	25.973421
1067	1.0670e+000	78.994751	26.385122
1068	1.0680e+000	80.162048	26.683213
1069	1.0690e+000	81.642151	27.058127
1070	1.0700e+000	82.725525	27.393006
1071	1.0710e+000	84.861755	27.845282
1072	1.0720e+000	85.197449	28.103339
1073	1.0730e+000	86.357117	28.385200
1074	1.0740e+000	87.417603	28.705472
1075	1.0750e+000	88.745117	29.031695
1076	1.0760e+000	90.270996	29.368738
1077	1.0770e+000	90.927124	29.633288
1078	1.0780e+000	92.338562	29.885394
1079	1.0790e+000	93.429565	30.181321
1080	1.0800e+000	94.566345	30.453985
1081	1.0810e+000	96.069336	30.724485
1082	1.0820e+000	97.175598	30.970640
1083	1.0830e+000	98.236084	31.198942
1084	1.0840e+000	99.769592	31.408309
1085	1.0850e+000	100.631714	31.598741
1086	1.0860e+000	101.181030	31.836241
1087	1.0870e+000	103.263855	32.026132
1088	1.0880e+000	104.263306	32.212236
1089	1.0890e+000	105.445862	32.369667
1090	1.0900e+000	106.758118	32.520606
1091	1.0910e+000	107.902527	32.679119
1092	1.0920e+000	109.077454	32.827894
1093	1.0930e+000	110.412598	32.953406
1094	1.0940e+000	111.701965	33.083787
1095	1.0950e+000	112.663269	33.202807
1096	1.0960e+000	114.212036	33.322909
1097	1.0970e+000	115.196228	33.382419
1098	1.0980e+000	116.355896	33.571228
1099	1.0990e+000	117.774963	33.654542
1100	1.1000e+000	119.132996	33.783841
1101	1.1010e+000	120.674133	33.890418
1102	1.1020e+000	121.231079	33.918009
1103	1.1030e+000	122.253418	34.008897
1104	1.1040e+000	123.695374	34.086802
1105	1.1050e+000	124.938965	34.177149
1106	1.1060e+000	126.022339	34.252889
1107	1.1070e+000	127.250671	34.301038
1108	1.1080e+000	128.456116	34.410320
1109	1.1090e+000	129.760742	34.472535
1110	1.1100e+000	130.729675	34.524471
1111	1.1110e+000	132.064819	34.608326
1112	1.1120e+000	133.781433	34.661885
1113	1.1130e+000	133.598328	34.752232
1114	1.1140e+000	135.498047	34.810660
1115	1.1150e+000	136.718750	34.860432
1116	1.1160e+000	137.969971	34.958353
1117	1.1170e+000	139.228821	34.987567
1118	1.1180e+000	140.586853	35.071963
1119	1.1190e+000	141.647339	35.104964
1120	1.1200e+000	142.936707	35.159605
1121	1.1210e+000	143.974304	35.233181
1122	1.1220e+000	144.493103	35.211541
1123	1.1230e+000	146.354675	35.334348
1124	1.1240e+000	147.789001	35.417121
1125	1.1250e+000	148.635864	35.416039
1126	1.1260e+000	150.047302	35.512878
1127	1.1270e+000	151.206970	35.536682
1128	1.1280e+000	152.328491	35.577798
1129	1.1290e+000	153.480530	35.642718
1130	1.1300e+000	154.777527	35.677342
1131	1.1310e+000	155.838013	35.748213
1132	1.1320e+000	158.691406	35.902398
1133	1.1330e+000	158.332825	35.838560
1134	1.1340e+000	159.820557	35.893201
1135	1.1350e+000	160.621643	35.924038
1136	1.1360e+000	161.941528	36.004647
1137	1.1370e+000	163.291931	36.040894
1138	1.1380e+000	164.154053	36.066862
1139	1.1390e+000	165.649414	36.133946
1140	1.1400e+000	166.801453	36.123667
1141	1.1410e+000	168.197632	36.242146
1142	1.1420e+000	169.204712	36.242146
1143	1.1430e+000	170.494080	36.255130
1144	1.1440e+000	171.501160	36.338444
1145	1.1450e+000	172.935486	36.392003
1146	1.1460e+000	174.316406	36.413643
1147	1.1470e+000	174.949646	36.464498
1148	1.1480e+000	176.406860	36.528877
1149	1.1490e+000	177.612305	36.568370
1150	1.1500e+000	179.161072	36.581895
1151	1.1510e+000	180.107117	36.637077
1152	1.1520e+000	181.068420	36.665209
1153	1.1530e+000	182.464600	36.709030
1154	1.1540e+000	183.479309	36.777196
1155	1.1550e+000	184.745789	36.781524
1156	1.1560e+000	185.821533	36.848608
1157	1.1570e+000	187.377930	36.864297
1158	1.1580e+000	188.301086	36.890265
1159	1.1590e+000	189.010620	36.940578
1160	1.1600e+000	190.689087	36.933545
1161	1.1610e+000	191.841125	37.004416
1162	1.1620e+000	193.008423	37.049319
1163	1.1630e+000	194.541931	37.166716
1164	1.1640e+000	195.739746	37.154814
1165	1.1650e+000	196.861267	37.187274
1166	1.1660e+000	197.959900	37.189438
1167	1.1670e+000	199.211121	37.221898
1168	1.1680e+000	200.805664	37.252735
1169	1.1690e+000	201.370239	37.326852
1170	1.1700e+000	202.690125	37.340918
1171	1.1710e+000	203.842163	37.369591
1172	1.1720e+000	205.154419	37.414494
1173	1.1730e+000	206.497192	37.445872
1174	1.1740e+000	207.511902	37.476709
1175	1.1750e+000	208.610535	37.534055
1176	1.1760e+000	210.075378	37.607090
1177	1.1770e+000	211.219788	37.591942
1178	1.1780e+000	212.516785	37.591401
1179	1.1790e+000	212.882996	37.621697
1180	1.1800e+000	214.698792	37.691486
1181	1.1810e+000	215.888977	37.727192
1182	1.1820e+000	217.102051	37.752619
1183	1.1830e+000	218.299866	37.813211
1184	1.1840e+000	219.490051	37.821867
1185	1.1850e+000	220.680237	37.853245
1186	1.1860e+000	221.862793	37.871639
1187	1.1870e+000	222.694397	37.937641
1188	1.1880e+000	224.266052	37.946838
1189	1.1890e+000	225.517273	37.980921
1190	1.1900e+000	226.020813	37.995528
1191	1.1910e+000	228.065491	38.042054
1192	1.1920e+000	229.110718	38.086416
1193	1.1930e+000	230.445862	38.118876
1194	1.1940e+000	231.536865	38.037185
1195	1.1950e+000	232.475281	38.172435
1196	1.1960e+000	234.527588	38.229781
1197	1.1970e+000	235.191345	38.202731
1198	1.1980e+000	236.320496	38.278471
1199	1.1990e+000	237.518311	38.306062
1200	1.2000e+000	238.830566	38.301734
1201	1.2010e+000	239.715576	38.356375
1202	1.2020e+000	240.852356	38.389917
1203	1.2030e+000	242.195129	38.403442
1204	1.2040e+000	243.408203	38.419672
1205	1.2050e+000	244.819641	38.478641
1206	1.2060e+000	245.910645	38.525708
1207	1.2070e+000	247.207642	38.530036
1208	1.2080e+000	248.321533	38.566283
1209	1.2090e+000	249.374390	38.581972
1210	1.2100e+000	250.526428	38.569529
1211	1.2110e+000	251.838684	38.688008
1212	1.2120e+000	253.303528	38.635531
1213	1.2130e+000	254.264832	38.709648
1214	1.2140e+000	255.645752	38.757797
1215	1.2150e+000	256.530762	38.751846
1216	1.2160e+000	257.926941	38.803783
1217	1.2170e+000	259.086609	38.814603
1218	1.2180e+000	260.101318	38.868703
1219	1.2190e+000	261.405945	38.895753
1220	1.2200e+000	262.603760	38.895753
1221	1.2210e+000	262.786865	38.887097
1222	1.2220e+000	265.251160	38.957968
1223	1.2230e+000	266.319275	38.995297
1224	1.2240e+000	267.120361	39.009363
1225	1.2250e+000	269.966125	39.031003
1226	1.2260e+000	269.546509	39.071578
1227	1.2270e+000	270.996094	39.076988
1228	1.2280e+000	272.552490	39.131629
1229	1.2290e+000	273.475647	39.179778
1230	1.2300e+000	274.688721	39.124055
1231	1.2310e+000	275.909424	39.218189
1232	1.2320e+000	277.122498	39.225222
1233	1.2330e+000	277.809143	39.252813
1234	1.2340e+000	279.655457	39.289601
1235	1.2350e+000	280.769348	39.261469
1236	1.2360e+000	281.639099	39.347488
1237	1.2370e+000	283.195496	39.375079
1238	1.2380e+000	284.233093	39.398342
1239	1.2390e+000	285.247803	39.453524
1240	1.2400e+000	286.727905	39.451360
1241	1.2410e+000	288.261414	39.490853
1242	1.2420e+000	288.940430	39.457311
1243	1.2430e+000	290.306091	39.503837
1244	1.2440e+000	291.496277	39.569298
1245	1.2450e+000	292.839050	39.555232
1246	1.2460e+000	294.029236	39.598512
1247	1.2470e+000	295.219421	39.623398
1248	1.2480e+000	296.325684	39.601217
1249	1.2490e+000	297.660828	39.672088
1250	1.2500e+000	298.652649	39.676416
1251	1.2510e+000	299.888611	39.748369
1252	1.2520e+000	299.293518	39.697515
1253	1.2530e+000	297.668457	39.687777
1254	1.2540e+000	296.493530	39.665596
1255	1.2550e+000	295.593262	39.718073
1256	1.2560e+000	293.556213	39.620152
1257	1.2570e+000	292.900085	39.628808
1258	1.2580e+000	291.427612	39.580659
1259	1.2590e+000	290.298462	39.602299
1260	1.2600e+000	289.222717	39.554691
1261	1.2610e+000	287.788391	39.517362
1262	1.2620e+000	286.819458	39.516280
1263	1.2630e+000	285.575867	39.501132
1264	1.2640e+000	284.477234	39.463262
1265	1.2650e+000	283.004761	39.446491
1266	1.2660e+000	281.982422	39.398342
1267	1.2670e+000	280.799866	39.418900
1268	1.2680e+000	279.609680	39.398883
1269	1.2690e+000	278.327942	39.355062
1270	1.2700e+000	277.679443	39.365882
1271	1.2710e+000	276.016235	39.226845
1272	1.2720e+000	274.765015	39.322061
1273	1.2730e+000	273.643494	39.280404
1274	1.2740e+000	272.201538	39.245239
1275	1.2750e+000	271.209717	39.241993
1276	1.2760e+000	270.225525	39.192762
1277	1.2770e+000	268.844604	39.174909
1278	1.2780e+000	267.509460	39.167876
1279	1.2790e+000	266.281128	39.096464
1280	1.2800e+000	265.151978	39.126219
1281	1.2810e+000	264.022827	39.092677
1282	1.2820e+000	262.969971	39.085644
1283	1.2830e+000	261.802673	39.100251
1284	1.2840e+000	260.292053	39.003953
1285	1.2850e+000	259.193420	39.007199
1286	1.2860e+000	257.820129	38.993674
1287	1.2870e+000	256.614685	38.948771
1288	1.2880e+000	255.531311	38.963919
1289	1.2890e+000	253.929138	38.927672
1290	1.2900e+000	253.196716	38.915770
1291	1.2910e+000	251.739502	38.880064
1292	1.2920e+000	250.778198	38.857883
1293	1.2930e+000	249.588013	38.840571
1294	1.2940e+000	248.344421	38.794045
1295	1.2950e+000	247.299194	38.797291
1296	1.2960e+000	245.956421	38.758338
1297	1.2970e+000	244.697571	38.745354
1298	1.2980e+000	243.980408	38.762125
1299	1.2990e+000	242.218018	38.697746
1300	1.3000e+000	241.172791	38.685303
1301	1.3010e+000	240.043640	38.662040
1302	1.3020e+000	238.754272	38.608481
1303	1.3030e+000	237.419128	38.637695
1304	1.3040e+000	236.587524	38.580349
1305	1.3050e+000	235.237122	38.547889
1306	1.3060e+000	233.741760	38.540315
1307	1.3070e+000	232.833862	38.500822
1308	1.3080e+000	231.399536	38.506232
1309	1.3090e+000	230.339050	38.468362
1310	1.3100e+000	229.072571	38.442935
1311	1.3110e+000	228.218079	38.418590
1312	1.3120e+000	226.501465	38.382884
1313	1.3130e+000	225.387573	38.376933
1314	1.3140e+000	224.281311	38.367195
1315	1.3150e+000	223.182678	38.315800
1316	1.3160e+000	221.244812	38.293619
1317	1.3170e+000	220.970154	38.270356
1318	1.3180e+000	219.383240	38.272520
1319	1.3190e+000	218.437195	38.208141
1320	1.3200e+000	217.163086	38.202731
1321	1.3210e+000	215.843201	38.180009
1322	1.3220e+000	214.591980	38.136729
1323	1.3230e+000	213.676453	38.118876
1324	1.3240e+000	212.211609	38.084252
1325	1.3250e+000	211.296082	38.068022
1326	1.3260e+000	210.289001	38.055579
1327	1.3270e+000	208.747864	38.025283
1328	1.3280e+000	207.679749	37.990659
1329	1.3290e+000	206.336975	37.964691
1330	1.3300e+000	204.933167	37.922493
1331	1.3310e+000	204.025269	37.908968
1332	1.3320e+000	202.827454	37.878672
1333	1.3330e+000	201.591492	37.816457
1334	1.3340e+000	200.309753	37.839179
1335	1.3350e+000	198.905945	37.816457
1336	1.3360e+000	197.998047	37.769931
1337	1.3370e+000	196.815491	37.752078
1338	1.3380e+000	195.472717	37.744504
1339	1.3390e+000	194.320679	37.697437
1340	1.3400e+000	193.183899	37.667141
1341	1.3410e+000	192.062378	37.641173
1342	1.3420e+000	190.742493	37.609795
1343	1.3430e+000	189.804077	37.587614
1344	1.3440e+000	188.796997	37.547039
1345	1.3450e+000	187.507629	37.567056
1346	1.3460e+000	186.141968	37.512956
1347	1.3470e+000	184.738159	37.469135
1348	1.3480e+000	183.387756	37.502677
1349	1.3490e+000	182.304382	37.413412
1350	1.3500e+000	181.411743	37.375001
1351	1.3510e+000	179.969788	37.346328
1352	1.3520e+000	178.886414	37.337131
1353	1.3530e+000	176.910400	37.290064
1354	1.3540e+000	176.406860	37.275998
1355	1.3550e+000	175.163269	37.231095
1356	1.3560e+000	174.087524	37.202963
1357	1.3570e+000	172.668457	37.171585
1358	1.3580e+000	171.447754	37.133174
1359	1.3590e+000	170.135498	37.102878
1360	1.3600e+000	169.319153	37.075287
1361	1.3610e+000	167.915344	37.029843
1362	1.3620e+000	167.282104	37.076369
1363	1.3630e+000	165.443420	36.936250
1364	1.3640e+000	164.360046	36.944365
1365	1.3650e+000	162.895203	36.914610
1366	1.3660e+000	161.621094	36.888101
1367	1.3670e+000	160.743713	36.865920
1368	1.3680e+000	159.690857	36.838329
1369	1.3690e+000	158.317566	36.785852
1370	1.3700e+000	157.165527	36.772327
1371	1.3710e+000	156.036377	36.716604
1372	1.3720e+000	154.426575	36.715522
1373	1.3730e+000	153.770447	36.675488
1374	1.3740e+000	152.236938	36.620306
1375	1.3750e+000	151.275635	36.589469
1376	1.3760e+000	150.398254	36.588928
1377	1.3770e+000	148.788452	36.531041
1378	1.3780e+000	147.430420	36.469908
1379	1.3790e+000	146.240234	36.434743
1380	1.3800e+000	145.164490	36.416348
1381	1.3810e+000	144.119263	36.367658
1382	1.3820e+000	142.662048	36.322755
1383	1.3830e+000	141.647339	36.323296
1384	1.3840e+000	140.304565	36.258376
1385	1.3850e+000	139.266968	36.225375
1386	1.3860e+000	137.901306	36.193997
1387	1.3870e+000	136.589050	36.166406
1388	1.3880e+000	135.307312	36.137733
1389	1.3890e+000	134.483337	36.102027
1390	1.3900e+000	133.338928	36.023582
1391	1.3910e+000	132.080078	35.962990
1392	1.3920e+000	130.622864	35.923497
1393	1.3930e+000	129.486084	35.935399
1394	1.3940e+000	128.356934	35.862905
1395	1.3950e+000	127.136230	35.831527
1396	1.3960e+000	125.045776	35.682752
1397	1.3970e+000	124.870300	35.754164
1398	1.3980e+000	123.382568	35.739016
1399	1.3990e+000	122.482300	35.724409
1400	1.4000e+000	121.368408	35.656784
1401	1.4010e+000	119.972229	35.599979
1402	1.4020e+000	118.698120	35.531272
1403	1.4030e+000	117.813110	35.518829
1404	1.4040e+000	116.279602	35.478795
1405	1.4050e+000	115.447998	35.426318
1406	1.4060e+000	113.983154	35.401432
1407	1.4070e+000	112.464905	35.297019
1408	1.4080e+000	111.732483	35.306757
1409	1.4090e+000	110.328674	35.260231
1410	1.4100e+000	109.016418	35.162851
1411	1.4110e+000	107.948303	35.166097
1412	1.4120e+000	106.239319	35.074668
1413	1.4130e+000	105.628967	35.048159
1414	1.4140e+000	104.354858	34.998387
1415	1.4150e+000	102.943420	34.955648
1416	1.4160e+000	101.875305	34.910745
1417	1.4170e+000	100.769043	34.843120
1418	1.4180e+000	99.357605	34.814988
1419	1.4190e+000	98.381042	34.738707
1420	1.4200e+000	97.114563	34.695968
1421	1.4210e+000	96.038818	34.670000
1422	1.4220e+000	94.688416	34.591014
1423	1.4230e+000	93.765259	34.527176
1424	1.4240e+000	92.376709	34.501749
1425	1.4250e+000	91.194153	34.421681
1426	1.4260e+000	90.026855	34.398418
1427	1.4270e+000	89.988708	34.394090
1428	1.4280e+000	87.409973	34.239364
1429	1.4290e+000	86.326599	34.197707
1430	1.4300e+000	85.075378	34.141443
1431	1.4310e+000	84.053040	34.087343
1432	1.4320e+000	82.748413	33.998618
1433	1.4330e+000	81.344604	33.969945
1434	1.4340e+000	80.436707	33.903402
1435	1.4350e+000	79.040527	33.804940
1436	1.4360e+000	78.254700	33.793579
1437	1.4370e+000	76.545715	33.710265
1438	1.4380e+000	75.538635	33.605852
1439	1.4390e+000	74.356079	33.486832
1440	1.4400e+000	73.127747	33.474389
1441	1.4410e+000	71.891785	33.402436
1442	1.4420e+000	69.450378	33.200643
1443	1.4430e+000	69.541931	33.260153
1444	1.4440e+000	68.511963	33.163855
1445	1.4450e+000	67.176819	33.110837
1446	1.4460e+000	65.986633	33.017785
1447	1.4470e+000	64.857483	32.926356
1448	1.4480e+000	63.385010	32.848993
1449	1.4490e+000	62.347412	32.781909
1450	1.4500e+000	61.248779	32.657479
1451	1.4510e+000	59.921265	32.606084
1452	1.4520e+000	58.685303	32.496802
1453	1.4530e+000	57.411194	32.378864
1454	1.4540e+000	56.488037	32.275533
1455	1.4550e+000	55.320740	32.163546
1456	1.4560e+000	53.833008	32.062379
1457	1.4570e+000	54.100037	32.020181
1458	1.4580e+000	51.277161	31.806486
1459	1.4590e+000	50.239563	31.708023
1460	1.4600e+000	48.919678	31.578183
1461	1.4610e+000	47.882080	31.418588
1462	1.4620e+000	46.646118	31.284961
1463	1.4630e+000	45.509338	31.122661
1464	1.4640e+000	44.662476	31.009592
1465	1.4650e+000	43.029785	30.824570
1466	1.4660e+000	42.076111	30.593563
1467	1.4670e+000	40.161133	30.409623
1468	1.4680e+000	39.466858	30.255438
1469	1.4690e+000	38.230896	30.101253
1470	1.4700e+000	37.147522	29.856180
1471	1.4710e+000	35.804749	29.618681
1472	1.4720e+000	34.034729	29.289211
1473	1.4730e+000	34.233093	29.165863
1474	1.4740e+000	32.218933	28.847214
1475	1.4750e+000	30.990601	28.578878
1476	1.4760e+000	29.884338	28.269967
1477	1.4770e+000	28.732300	27.976745
1478	1.4780e+000	27.557373	27.633210
1479	1.4790e+000	26.481628	27.303741
1480	1.4800e+000	24.856567	26.971566
1481	1.4810e+000	23.880005	26.569062
1482	1.4820e+000	23.704529	26.288824
1483	1.4830e+000	21.598816	25.759185
1484	1.4840e+000	20.515442	25.239825
1485	1.4850e+000	19.073486	24.895208
1486	1.4860e+000	17.921448	24.396946
1487	1.4870e+000	16.677856	23.840798
1488	1.4880e+000	15.449524	23.354439
1489	1.4890e+000	14.183044	22.815603
1490	1.4900e+000	13.336182	22.256208
1491	1.4910e+000	11.970520	21.652452
1492	1.4920e+000	11.283875	21.058434
1493	1.4930e+000	9.399414	20.403283
1494	1.4940e+000	8.712769	19.707556
1495	1.4950e+000	7.202148	18.979911
1496	1.4960e+000	6.004333	18.297710
1497	1.4970e+000	4.600525	17.529489
1498	1.4980e+000	4.081726	16.779122
1499	1.4990e+000	2.601624	15.958966
1500	1.5000e+000	1.403809	15.214549
1501	1.5010e+000	0.251770	14.301341
1502	1.5020e+000	-0.411987	13.414642
1503	1.5030e+000	-2.403259	12.440841
1504	1.5040e+000	-3.410339	11.480566
1505	1.5050e+000	-4.592896	10.524077
1506	1.5060e+000	-5.798340	9.485357
1507	1.5070e+000	-7.110596	8.468277
1508	1.5080e+000	-8.209229	7.381948
1509	1.5090e+000	-9.643555	6.242061
1510	1.5100e+000	-10.131836	5.133010
1511	1.5110e+000	-11.672974	3.950925
1512	1.5120e+000	-13.107300	2.755855
1513	1.5130e+000	-14.152527	1.547802
1514	1.5140e+000	-15.510559	0.288353
1515	1.5150e+000	-16.525269	-0.995981
1516	1.5160e+000	-18.142700	-2.278152
1517	1.5170e+000	-19.256592	-3.611177
1518	1.5180e+000	-20.088196	-4.817066
1519	1.5190e+000	-21.545410	-6.207437
1520	1.5200e+000	-22.216797	-7.467967
1521	1.5210e+000	-23.704529	-8.772319
1522	1.5220e+000	-25.016785	-10.069637
1523	1.5230e+000	-26.206970	-11.290675
1524	1.5240e+000	-27.267456	-12.516581
1525	1.5250e+000	-28.762817	-13.732209
1526	1.5260e+000	-29.876709	-14.881293
1527	1.5270e+000	-30.921936	-16.037952
1528	1.5280e+000	-32.150269	-17.093443
1529	1.5290e+000	-33.004761	-18.144066
1530	1.5300e+000	-34.683228	-19.191983
1531	1.5310e+000	-35.888672	-20.111684
1532	1.5320e+000	-37.445068	-21.085484
1533	1.5330e+000	-38.269043	-21.939182
1534	1.5340e+000	-39.497375	-22.729043
1535	1.5350e+000	-40.588379	-23.549199
1536	1.5360e+000	-41.748047	-24.163775
1537	1.5370e+000	-43.182373	-24.929291
1538	1.5380e+000	-44.914246	-25.622312
1539	1.5390e+000	-45.356750	-26.119491
1540	1.5400e+000	-46.798706	-26.679426
1541	1.5410e+000	-48.110962	-27.176606
1542	1.5420e+000	-49.018860	-27.586143
1543	1.5430e+000	-50.262451	-28.005959
1544	1.5440e+000	-51.361084	-28.346789
1545	1.5450e+000	-52.597046	-28.667061
1546	1.5460e+000	-53.909302	-28.987874
1547	1.5470e+000	-55.252075	-29.290834
1548	1.5480e+000	-56.259155	-29.541318
1549	1.5490e+000	-57.563782	-29.749062
1550	1.5500e+000	-58.776855	-29.988725
1551	1.5510e+000	-59.913635	-30.188354
1552	1.5520e+000	-61.050415	-30.349572
1553	1.5530e+000	-62.141418	-30.538381
1554	1.5540e+000	-63.613892	-30.654696
1555	1.5550e+000	-64.811707	-30.875965
1556	1.5560e+000	-65.994263	-30.990116
1557	1.5570e+000	-67.214966	-31.143760
1558	1.5580e+000	-68.397522	-31.305519
1559	1.5590e+000	-69.335938	-31.414801
1560	1.5600e+000	-70.907593	-31.569527
1561	1.5610e+000	-72.052002	-31.604151
1562	1.5620e+000	-73.280334	-31.779436
1563	1.5630e+000	-74.325562	-31.889259
1564	1.5640e+000	-75.408936	-31.981770
1565	1.5650e+000	-76.675415	-32.084019
1566	1.5660e+000	-78.132629	-32.208449
1567	1.5670e+000	-79.231262	-32.254975
1568	1.5680e+000	-80.444336	-32.357224
1569	1.5690e+000	-81.649780	-32.464342
1570	1.5700e+000	-82.893372	-32.530885
1571	1.5710e+000	-84.053040	-32.674791
1572	1.5720e+000	-84.915161	-32.634216
1573	1.5730e+000	-86.524963	-32.766761
1574	1.5740e+000	-87.799072	-32.836550
1575	1.5750e+000	-88.714600	-32.899847
1576	1.5760e+000	-89.385986	-32.931225
1577	1.5770e+000	-91.278076	-33.072967
1578	1.5780e+000	-92.636108	-33.149789
1579	1.5790e+000	-93.727112	-33.212004
1580	1.5800e+000	-94.642639	-33.276383
1581	1.5810e+000	-95.886230	-33.356451
1582	1.5820e+000	-97.297668	-33.400272
1583	1.5830e+000	-98.373413	-33.470602
1584	1.5840e+000	-99.563599	-33.543096
1585	1.5850e+000	-100.509644	-33.573933
1586	1.5860e+000	-101.898193	-33.637230
1587	1.5870e+000	-103.195190	-33.715675
1588	1.5880e+000	-104.309082	-33.771939
1589	1.5890e+000	-105.606079	-33.829285
1590	1.5900e+000	-106.407166	-33.961830
1591	1.5910e+000	-108.451843	-33.967240
1592	1.5920e+000	-109.161377	-34.017012
1593	1.5930e+000	-110.435486	-34.037029
1594	1.5940e+000	-111.892700	-34.178772
1595	1.5950e+000	-113.113403	-34.159837
1596	1.5960e+000	-114.006042	-34.231249
1597	1.5970e+000	-115.165710	-34.266955
1598	1.5980e+000	-116.516113	-34.310776
1599	1.5990e+000	-117.630005	-34.378401
1600	1.6000e+000	-118.698120	-34.408156
1601	1.6010e+000	-119.842529	-34.464961
1602	1.6020e+000	-121.353149	-34.535291
1603	1.6030e+000	-122.833252	-34.536914
1604	1.6040e+000	-123.283386	-34.615900
1605	1.6050e+000	-124.855042	-34.716526
1606	1.6060e+000	-126.014709	-34.688935
1607	1.6070e+000	-127.296448	-34.800381
1608	1.6080e+000	-128.280640	-34.875039
1609	1.6090e+000	-129.707336	-34.868006
1610	1.6100e+000	-130.599976	-34.921024
1611	1.6110e+000	-131.858826	-34.957271
1612	1.6120e+000	-133.407593	-35.021650
1613	1.6130e+000	-134.445190	-35.048700
1614	1.6140e+000	-135.612488	-35.108751
1615	1.6150e+000	-136.695862	-35.159064
1616	1.6160e+000	-138.053894	-35.169884
1617	1.6170e+000	-139.167786	-35.222902
1618	1.6180e+000	-140.388489	-35.295396
1619	1.6190e+000	-141.685486	-35.341381
1620	1.6200e+000	-142.883301	-35.360316
1621	1.6210e+000	-144.248962	-35.386825
1622	1.6220e+000	-145.530701	-35.489074
1623	1.6230e+000	-146.461487	-35.495566
1624	1.6240e+000	-147.613525	-35.532354
1625	1.6250e+000	-149.040222	-35.601602
1626	1.6260e+000	-150.009155	-35.671932
1627	1.6270e+000	-151.222229	-35.658948
1628	1.6280e+000	-152.259827	-35.697359
1629	1.6290e+000	-153.663635	-35.753623
1630	1.6300e+000	-154.861450	-35.795821
1631	1.6310e+000	-156.204224	-35.799608
1632	1.6320e+000	-156.997681	-35.869938
1633	1.6330e+000	-158.599854	-35.924038
1634	1.6340e+000	-159.698486	-35.965695
1635	1.6350e+000	-160.690308	-35.984089
1636	1.6360e+000	-161.926270	-36.021418
1637	1.6370e+000	-163.055420	-36.110142
1638	1.6380e+000	-164.474487	-36.120962
1639	1.6390e+000	-165.405273	-36.145307
1640	1.6400e+000	-166.870117	-36.155045
1641	1.6410e+000	-167.892456	-36.226998
1642	1.6420e+000	-169.143677	-36.262704
1643	1.6430e+000	-170.265198	-36.300574
1644	1.6440e+000	-171.424866	-36.412561
1645	1.6450e+000	-172.836304	-36.372527
1646	1.6460e+000	-174.209595	-36.409315
1647	1.6470e+000	-175.148010	-36.431497
1648	1.6480e+000	-176.277161	-36.546189
1649	1.6490e+000	-177.627563	-36.527254
1650	1.6500e+000	-179.229736	-36.605158
1651	1.6510e+000	-180.145264	-36.609486
1652	1.6520e+000	-180.984497	-36.571616
1653	1.6530e+000	-182.418823	-36.675488
1654	1.6540e+000	-183.769226	-36.700915
1655	1.6550e+000	-184.814453	-36.755015
1656	1.6560e+000	-186.141968	-36.799377
1657	1.6570e+000	-187.026978	-36.810197
1658	1.6580e+000	-188.186646	-36.864297
1659	1.6590e+000	-189.308167	-36.862133
1660	1.6600e+000	-191.040039	-36.914610
1661	1.6610e+000	-191.848755	-36.963841
1662	1.6620e+000	-193.130493	-37.053647
1663	1.6630e+000	-194.381714	-37.032007
1664	1.6640e+000	-195.693970	-37.067713
1665	1.6650e+000	-197.547913	-37.160765
1666	1.6660e+000	-197.990417	-37.145617
1667	1.6670e+000	-199.020386	-37.185110
1668	1.6680e+000	-200.248718	-37.205668
1669	1.6690e+000	-201.683044	-37.240833
1670	1.6700e+000	-202.781677	-37.277080
1671	1.6710e+000	-203.895569	-37.299802
1672	1.6720e+000	-205.238342	-37.327934
1673	1.6730e+000	-206.497192	-37.379329
1674	1.6740e+000	-207.550049	-37.403674
1675	1.6750e+000	-208.847046	-37.436675
1676	1.6760e+000	-210.098267	-37.451823
1677	1.6770e+000	-211.174011	-37.477791
1678	1.6780e+000	-212.730408	-37.561105
1679	1.6790e+000	-213.577271	-37.614664
1680	1.6800e+000	-214.141846	-37.622238
1681	1.6810e+000	-216.148376	-37.631435
1682	1.6820e+000	-217.124939	-37.673092
1683	1.6830e+000	-218.292236	-37.719618
1684	1.6840e+000	-219.879150	-37.740176
1685	1.6850e+000	-220.855713	-37.768849
1686	1.6860e+000	-221.832275	-37.795358
1687	1.6870e+000	-223.815918	-37.858655
1688	1.6880e+000	-224.716187	-37.860819
1689	1.6890e+000	-225.860596	-37.898148
1690	1.6900e+000	-226.928711	-37.914378
1691	1.6910e+000	-228.103638	-37.944133
1692	1.6920e+000	-229.103088	-37.978757
1693	1.6930e+000	-230.636597	-38.027988
1694	1.6940e+000	-231.491089	-38.037726
1695	1.6950e+000	-232.955933	-38.057202
1696	1.6960e+000	-234.191895	-38.139434
1697	1.6970e+000	-235.343933	-38.136729
1698	1.6980e+000	-236.343384	-38.216797
1699	1.6990e+000	-237.770081	-38.200026
1700	1.7000e+000	-238.769531	-38.218420
1701	1.7010e+000	-240.219116	-38.249798
1702	1.7020e+000	-241.394043	-38.281176
1703	1.7030e+000	-242.538452	-38.329866
1704	1.7040e+000	-243.774414	-38.355834
1705	1.7050e+000	-244.949341	-38.352588
1706	1.7060e+000	-245.849609	-38.375851
1707	1.7070e+000	-247.352600	-38.447804
1708	1.7080e+000	-248.413086	-38.466739
1709	1.7090e+000	-249.649048	-38.497576
1710	1.7100e+000	-250.602722	-38.447804
1711	1.7110e+000	-251.976013	-38.564119
1712	1.7120e+000	-253.341675	-38.604694
1713	1.7130e+000	-254.394531	-38.614973
1714	1.7140e+000	-255.630493	-38.696123
1715	1.7150e+000	-257.339478	-38.706402
1716	1.7160e+000	-257.827759	-38.748600
1717	1.7170e+000	-259.368896	-38.735075
1718	1.7180e+000	-260.620117	-38.754551
1719	1.7190e+000	-261.749268	-38.789717
1720	1.7200e+000	-262.672424	-38.826505
1721	1.7210e+000	-263.694763	-38.805406
1722	1.7220e+000	-265.274048	-38.896294
1723	1.7230e+000	-266.647339	-38.915770
1724	1.7240e+000	-267.166138	-38.898458
1725	1.7250e+000	-268.539429	-38.967165
1726	1.7260e+000	-270.172119	-38.994215
1727	1.7270e+000	-271.293640	-39.028298
1728	1.7280e+000	-272.422791	-39.055348
1729	1.7290e+000	-273.689270	-39.097005
1730	1.7300e+000	-274.879456	-39.102956
1731	1.7310e+000	-276.260376	-39.120809
1732	1.7320e+000	-277.160645	-39.165171
1733	1.7330e+000	-278.320313	-39.218189
1734	1.7340e+000	-279.556274	-39.278240
1735	1.7350e+000	-280.776978	-39.241452
1736	1.7360e+000	-282.653809	-39.260928
1737	1.7370e+000	-283.172607	-39.306372
1738	1.7380e+000	-284.469604	-39.336127
1739	1.7390e+000	-285.705566	-39.346406
1740	1.7400e+000	-286.857605	-39.378866
1741	1.7410e+000	-287.948608	-39.353439
1742	1.7420e+000	-289.207458	-39.431343
1743	1.7430e+000	-290.756226	-39.475705
1744	1.7440e+000	-291.679382	-39.487066
1745	1.7450e+000	-292.755127	-39.587151
1746	1.7460e+000	-293.884277	-39.539002
1747	1.7470e+000	-295.074463	-39.578495
1748	1.7480e+000	-296.730042	-39.640710
1749	1.7490e+000	-297.485352	-39.614742
1750	1.7500e+000	-298.683167	-39.669383
1751	1.7510e+000	-299.980164	-39.665596
1752	1.7520e+000	-299.240112	-39.748369
1753	1.7530e+000	-297.843933	-39.648284
1754	1.7540e+000	-296.524048	-39.620693
1755	1.7550e+000	-295.249939	-39.612037
1756	1.7560e+000	-293.792725	-39.528723
1757	1.7570e+000	-292.739868	-39.587692
1758	1.7580e+000	-291.885376	-39.560642
1759	1.7590e+000	-290.527344	-39.535215
1760	1.7600e+000	-289.062500	-39.515739
1761	1.7610e+000	-287.513733	-39.447032
1762	1.7620e+000	-286.697388	-39.475705
1763	1.7630e+000	-285.614014	-39.457852
1764	1.7640e+000	-284.355164	-39.418900
1765	1.7650e+000	-283.180237	-39.399965
1766	1.7660e+000	-281.875610	-39.372915
1767	1.7670e+000	-280.685425	-39.362095
1768	1.7680e+000	-279.441833	-39.338291
1769	1.7690e+000	-278.511047	-39.319356
1770	1.7700e+000	-277.221680	-39.360472
1771	1.7710e+000	-275.619507	-39.283109
1772	1.7720e+000	-274.955750	-39.200336
1773	1.7730e+000	-273.567200	-39.240370
1774	1.7740e+000	-272.254944	-39.219812
1775	1.7750e+000	-271.072388	-39.184106
1776	1.7760e+000	-270.034790	-39.145695
1777	1.7770e+000	-268.630981	-39.149482
1778	1.7780e+000	-267.623901	-39.130006
1779	1.7790e+000	-266.357422	-39.125137
1780	1.7800e+000	-265.510559	-39.093218
1781	1.7810e+000	-263.870239	-39.047774
1782	1.7820e+000	-262.924194	-39.046692
1783	1.7830e+000	-260.910034	-39.049938
1784	1.7840e+000	-260.574341	-39.007740
1785	1.7850e+000	-259.208679	-38.966624
1786	1.7860e+000	-258.003235	-38.942820
1787	1.7870e+000	-256.698608	-38.927131
1788	1.7880e+000	-255.821228	-38.922803
1789	1.7890e+000	-254.493713	-38.931459
1790	1.7900e+000	-253.059387	-38.864375
1791	1.7910e+000	-252.090454	-38.832456
1792	1.7920e+000	-250.732422	-38.881687
1793	1.7930e+000	-249.504089	-38.784307
1794	1.7940e+000	-248.260498	-38.795127
1795	1.7950e+000	-246.963501	-38.732911
1796	1.7960e+000	-246.040344	-38.705320
1797	1.7970e+000	-244.804382	-38.717222
1798	1.7980e+000	-243.743896	-38.661499
1799	1.7990e+000	-242.553711	-38.668532
1800	1.8000e+000	-241.340637	-38.623629
1801	1.8010e+000	-239.944458	-38.600366
1802	1.8020e+000	-238.342285	-38.596038
1803	1.8030e+000	-238.426208	-38.635531
1804	1.8040e+000	-236.396790	-38.550594
1805	1.8050e+000	-235.092163	-38.502986
1806	1.8060e+000	-234.130859	-38.409934
1807	1.8070e+000	-232.757568	-38.572775
1808	1.8080e+000	-231.880188	-38.432656
1809	1.8090e+000	-230.133057	-38.412098
1810	1.8100e+000	-229.034424	-38.383425
1811	1.8110e+000	-228.126526	-38.331489
1812	1.8120e+000	-226.615906	-38.345555
1813	1.8130e+000	-225.646973	-38.310931
1814	1.8140e+000	-224.212646	-38.280635
1815	1.8150e+000	-223.129272	-38.265487
1816	1.8160e+000	-221.817017	-38.248175
1817	1.8170e+000	-220.993042	-38.224371
1818	1.8180e+000	-219.558716	-38.185960
1819	1.8190e+000	-218.376160	-38.157828
1820	1.8200e+000	-216.651917	-38.092908
1821	1.8210e+000	-215.896606	-38.094531
1822	1.8220e+000	-214.767456	-38.079383
1823	1.8230e+000	-213.470459	-38.050710
1824	1.8240e+000	-212.295532	-37.963068
1825	1.8250e+000	-211.181641	-38.000397
1826	1.8260e+000	-210.617065	-37.973888
1827	1.8270e+000	-208.602905	-37.959281
1828	1.8280e+000	-207.710266	-37.914378
1829	1.8290e+000	-206.275940	-37.872180
1830	1.8300e+000	-204.971313	-37.941428
1831	1.8310e+000	-203.956604	-37.809424
1832	1.8320e+000	-202.606201	-37.831605
1833	1.8330e+000	-201.599121	-37.797522
1834	1.8340e+000	-200.447083	-37.710421
1835	1.8350e+000	-198.913574	-37.776964
1836	1.8360e+000	-198.127747	-37.695814
1837	1.8370e+000	-197.006226	-37.677420
1838	1.8380e+000	-195.434570	-37.652534
1839	1.8390e+000	-194.580078	-37.629812
1840	1.8400e+000	-193.115234	-37.608172
1841	1.8410e+000	-191.635132	-37.540547
1842	1.8420e+000	-190.711975	-37.484283
1843	1.8430e+000	-189.605713	-37.515661
1844	1.8440e+000	-188.209534	-37.478332
1845	1.8450e+000	-187.133789	-37.451823
1846	1.8460e+000	-186.119080	-37.432888
1847	1.8470e+000	-184.806824	-37.393936
1848	1.8480e+000	-183.540344	-37.390690
1849	1.8490e+000	-182.395935	-37.323606
1850	1.8500e+000	-180.030823	-37.290605
1851	1.8510e+000	-180.114746	-37.293310
1852	1.8520e+000	-178.894043	-37.255981
1853	1.8530e+000	-177.581787	-37.231636
1854	1.8540e+000	-176.063538	-37.229472
1855	1.8550e+000	-175.048828	-37.168880
1856	1.8560e+000	-174.507141	-37.120190
1857	1.8570e+000	-172.775269	-37.113157
1858	1.8580e+000	-171.539307	-37.080156
1859	1.8590e+000	-170.509338	-37.032548
1860	1.8600e+000	-169.357300	-36.973579
1861	1.8610e+000	-167.968750	-36.981153
1862	1.8620e+000	-166.931152	-36.956808
1863	1.8630e+000	-164.962769	-36.915692
1864	1.8640e+000	-164.520264	-36.884855
1865	1.8650e+000	-163.208008	-36.899462
1866	1.8660e+000	-161.857605	-36.852936
1867	1.8670e+000	-160.636902	-36.789639
1868	1.8680e+000	-159.606934	-36.760966
1869	1.8690e+000	-158.554077	-36.740408
1870	1.8700e+000	-157.318115	-36.688472
1871	1.8710e+000	-156.082153	-36.656553
1872	1.8720e+000	-154.914856	-36.639241
1873	1.8730e+000	-153.739929	-36.612191
1874	1.8740e+000	-152.214050	-36.578649
1875	1.8750e+000	-151.153564	-36.543484
1876	1.8760e+000	-149.795532	-36.515893
1877	1.8770e+000	-147.270203	-36.416348
1878	1.8780e+000	-147.346497	-36.388757
1879	1.8790e+000	-146.553040	-36.408233
1880	1.8800e+000	-145.179749	-36.366035
1881	1.8810e+000	-144.050598	-36.314640
1882	1.8820e+000	-142.318726	-36.300033
1883	1.8830e+000	-141.624451	-36.272983
1884	1.8840e+000	-140.274048	-36.245392
1885	1.8850e+000	-139.205933	-36.189128
1886	1.8860e+000	-138.122559	-36.163701
1887	1.8870e+000	-136.909485	-36.137733
1888	1.8880e+000	-135.528564	-36.101486
1889	1.8890e+000	-134.353638	-36.077682
1890	1.8900e+000	-133.018494	-36.007893
1891	1.8910e+000	-131.607056	-35.984630
1892	1.8920e+000	-130.172729	-35.962990
1893	1.8930e+000	-129.760742	-35.966236
1894	1.8940e+000	-128.532410	-35.888332
1895	1.8950e+000	-127.296448	-35.851003
1896	1.8960e+000	-125.900269	-35.806641
1897	1.8970e+000	-123.382568	-35.723868
1898	1.8980e+000	-123.687744	-35.740639
1899	1.8990e+000	-122.207642	-35.718999
1900	1.9000e+000	-121.284485	-35.702228
1901	1.9010e+000	-120.079041	-35.610258
1902	1.9020e+000	-118.835449	-35.607012
1903	1.9030e+000	-117.324829	-35.540469
1904	1.9040e+000	-116.462708	-35.518288
1905	1.9050e+000	-115.463257	-35.463647
1906	1.9060e+000	-114.143372	-35.441466
1907	1.9070e+000	-112.892151	-35.399809
1908	1.9080e+000	-111.701965	-35.356529
1909	1.9090e+000	-110.572815	-35.321364
1910	1.9100e+000	-108.634949	-35.249411
1911	1.9110e+000	-107.994080	-35.218574
1912	1.9120e+000	-106.719971	-35.203967
1913	1.9130e+000	-105.461121	-35.190983
1914	1.9140e+000	-104.484558	-35.036798
1915	1.9150e+000	-103.134155	-35.060061
1916	1.9160e+000	-101.989746	-34.974042
1917	1.9170e+000	-100.860596	-35.002715
1918	1.9180e+000	-99.433899	-34.954566
1919	1.9190e+000	-98.274231	-34.911827
1920	1.9200e+000	-97.076416	-34.870170
1921	1.9210e+000	-96.015930	-34.811201
1922	1.9220e+000	-94.772339	-34.769544
1923	1.9230e+000	-93.719482	-34.732756
1924	1.9240e+000	-91.041565	-34.605080
1925	1.9250e+000	-91.209412	-34.638081
1926	1.9260e+000	-89.996338	-34.574243
1927	1.9270e+000	-88.516235	-34.563423
1928	1.9280e+000	-86.479187	-34.478486
1929	1.9290e+000	-86.380005	-34.460092
1930	1.9300e+000	-85.121155	-34.420599
1931	1.9310e+000	-84.327698	-34.305907
1932	1.9320e+000	-82.687378	-34.249643
1933	1.9330e+000	-81.489563	-34.273447
1934	1.9340e+000	-80.429077	-34.200953
1935	1.9350e+000	-79.223633	-34.177149
1936	1.9360e+000	-77.941895	-34.110065
1937	1.9370e+000	-76.446533	-34.078687
1938	1.9380e+000	-75.737000	-34.040275
1939	1.9390e+000	-74.584961	-33.959666
1940	1.9400e+000	-73.471069	-33.946141
1941	1.9410e+000	-72.082520	-33.856335
1942	1.9420e+000	-70.617676	-33.820629
1943	1.9430e+000	-69.480896	-33.741102
1944	1.9440e+000	-68.458557	-33.724872
1945	1.9450e+000	-67.115784	-33.645886
1946	1.9460e+000	-65.452576	-33.545260
1947	1.9470e+000	-64.636230	-33.536063
1948	1.9480e+000	-63.575745	-33.479799
1949	1.9490e+000	-62.538147	-33.420289
1950	1.9500e+000	-61.126709	-33.312630
1951	1.9510e+000	-60.333252	-33.310466
1952	1.9520e+000	-58.692932	-33.228234
1953	1.9530e+000	-57.861328	-33.212545
1954	1.9540e+000	-56.335449	-33.123821
1955	1.9550e+000	-55.435181	-33.074049
1956	1.9560e+000	-54.077148	-32.989112
1957	1.9570e+000	-52.658081	-32.916618
1958	1.9580e+000	-51.727295	-32.890650
1959	1.9590e+000	-50.613403	-32.799762
1960	1.9600e+000	-50.224304	-32.770007
1961	1.9610e+000	-47.981262	-32.733760
1962	1.9620e+000	-46.813965	-32.588772
1963	1.9630e+000	-45.486450	-32.537918
1964	1.9640e+000	-44.021606	-32.455145
1965	1.9650e+000	-42.968750	-32.351273
1966	1.9660e+000	-41.915894	-32.341535
1967	1.9670e+000	-41.030884	-32.256057
1968	1.9680e+000	-39.634705	-32.154349
1969	1.9690e+000	-38.513184	-32.088888
1970	1.9700e+000	-37.414551	-32.008820
1971	1.9710e+000	-35.163879	-31.967704
1972	1.9720e+000	-35.079956	-31.833536
1973	1.9730e+000	-33.493042	-31.763747
1974	1.9740e+000	-32.447815	-31.668530
1975	1.9750e+000	-31.295776	-31.569527
1976	1.9760e+000	-30.151367	-31.471065
1977	1.9770e+000	-28.709412	-31.372062
1978	1.9780e+000	-27.595520	-31.276846
1979	1.9790e+000	-26.527405	-31.174597
1980	1.9800e+000	-25.199890	-31.056659
1981	1.9810e+000	-23.933411	-30.989034
1982	1.9820e+000	-22.613525	-30.874883
1983	1.9830e+000	-21.636963	-30.712583
1984	1.9840e+000	-20.339966	-30.605465
1985	1.9850e+000	-19.073486	-30.495642
1986	1.9860e+000	-17.875671	-30.303587
1987	1.9870e+000	-16.929626	-30.251110
1988	1.9880e+000	-15.487671	-30.056350
1989	1.9890e+000	-14.350891	-29.912444
1990	1.9900e+000	-13.153076	-29.736619
1991	1.9910e+000	-12.023926	-29.585139
1992	1.9920e+000	-10.795593	-29.374689
1993	1.9930e+000	-9.399414	-29.222668
1994	1.9940e+000	-8.308411	-29.019793
1995	1.9950e+000	-6.942749	-28.767687
1996	1.9960e+000	-6.011963	-28.568599
1997	1.9970e+000	-5.088806	-28.338674
1998	1.9980e+000	-3.334045	-28.066551
1999	1.9990e+000	-2.761841	-27.815527
2000	2.0000e+000	-0.938416	-27.515813
2001	2.0010e+000	-0.053406	-27.164163

Center data before PMax,±Pr and ±Vc Calc.

PMax (µC/cm2):	3.97e+001
Pr (µC/cm2):	1.40e+001
-Pr (µC/cm2):	-2.72e+001
Ec:	3.61e-003
-Ec:	-1.57e-003
C (Max-Eff) (nF):	1.04e+000
K (Eff):	1.50e+003
Vert. (±Pr) Shift (µC/cm2):	-6.60e+000
Horiz. Shift (±Ec):	1.02e-003
Offset (µC/cm2):	2.42e+001

A (Loop Area - µC/cm2·Volts):	3.74e+003



Hysteresis Version: 5.16.2 - Radiant Technologies, Inc., 1999 - 3/20/18

