»»»»»»»»»»»»»»»»»»»»»»»»»»»»»»»»»»»» Hysteresis ««««««««««««««««««««««««««««««««««««
»»»  Executed Version:	5.12.0
»»»  Vision Version:	5.12.5 (R)
»»»  Vision Compiled:	2/24/17
»»»  Driver Version:	5.12.4
»»»  Windows Version:	Windows 7
»»»  Processor Information:	x86 (AMD or Intel) - 2 Processors
»»»  Tester Name:	PMF0910-256
»»»  Tester S/N:	PMF0910-256
»»»  Internal Amp Type:	 RTI 100V      
»»»  Internal Amp S/N:	 iAB1-0000     
»»»  Execution Count:	1
»»»»»»»»»»»»»»»»»»»»»»»»»»»»»»»»»»»»»»»»»»««««««««««««««««««««««««««««««««««««««««««

Stored:	6/27/2017 - 9:24:22
Configured:	06/24/17 10:58:24 AM
Executed:	06/27/17 09:23:40 AM

»»»»»»»»»»»»»»»»»»»»»»»»»»»»»»»»»»» Sample Info ««««««««««««««««««««««««««««««««««««
Sample Name:	
Lot Name:	
Wafer Name:	
Die Row/Column:	0/0
Capacitor Number:	0
Sample Area (cm2):	1.96e-005
Sample Thickness (µm):	1.00e-001

Mux Loop Adjustment:	Disabled

Amplifier:	Internal

»»»»»»»»»»»»»»»»»»»»»»»»»»»»»»»»»»» Tester Info «««««««««««««««««««««««««««««««««««
Tester Name:	PMF0910-256
Tester Serial Number:	PMF0910-256
Return Signal Amp. Level:	1.79 [Index: 2]

»»»»»»»»»»»»»»»»»»»»»»»»»»»»»»»» Hysteresis Info ««««««««««««««««««««««««««««««««««
Task Name:	 
Volts:	4.00
Field:	400.00 (kV/cm)
Hysteresis Period (ms):	2.00e+000
Preset:	Enabled
Preset Delay (ms):	1.00e+003
Profile:	Double Bipolar

»»»»»»»»»»»»»»»»»»»»»»»»»»»»»»»»»»»»»» Data «««««««««««««««««««««««««««««««««««««««
Points:	2001

Valid Data

Point	Time (ms)	Field (kV/cm)	Measured Polarization
   1	1.0000e-003	-0.167847	-24.157803
   2	2.0000e-003	1.739502	-24.134130
   3	3.0000e-003	3.219604	-24.048044
   4	4.0000e-003	4.699707	-23.953350
   5	5.0000e-003	6.507874	-23.862960
   6	6.0000e-003	7.934570	-23.785483
   7	7.0000e-003	9.452820	-23.660658
   8	8.0000e-003	11.070251	-23.486335
   9	9.0000e-003	12.779236	-23.299099
  10	1.0000e-002	14.045715	-23.120471
  11	1.1000e-002	16.136169	-22.905256
  12	1.2000e-002	17.425537	-22.707259
  13	1.3000e-002	19.134521	-22.504958
  14	1.4000e-002	20.645142	-22.240244
  15	1.5000e-002	22.148132	-22.005661
  16	1.6000e-002	23.994446	-21.704361
  17	1.7000e-002	25.527954	-21.480538
  18	1.8000e-002	27.091980	-21.162021
  19	1.9000e-002	28.701782	-20.910220
  20	2.0000e-002	30.471802	-20.602464
  21	2.1000e-002	31.822205	-20.354967
  22	2.2000e-002	33.828735	-20.029994
  23	2.3000e-002	35.057068	-19.748063
  24	2.4000e-002	36.758423	-19.427394
  25	2.5000e-002	38.177490	-19.119637
  26	2.6000e-002	40.107727	-18.807576
  27	2.7000e-002	41.473389	-18.495516
  28	2.8000e-002	43.113708	-18.241563
  29	2.9000e-002	44.769287	-17.923046
  30	3.0000e-002	46.318054	-17.608833
  31	3.1000e-002	47.927856	-17.273099
  32	3.2000e-002	49.575806	-16.945973
  33	3.3000e-002	51.078796	-16.640369
  34	3.4000e-002	52.673340	-16.330460
  35	3.5000e-002	54.229736	-16.082964
  36	3.6000e-002	55.831909	-15.702034
  37	3.7000e-002	57.601929	-15.366300
  38	3.8000e-002	59.181213	-15.108043
  39	3.9000e-002	60.569763	-14.843329
  40	4.0000e-002	62.385559	-14.488226
  41	4.1000e-002	63.880920	-14.133122
  42	4.2000e-002	65.483093	-13.816757
  43	4.3000e-002	67.100525	-13.515457
  44	4.4000e-002	68.748474	-13.196940
  45	4.5000e-002	70.335388	-12.863358
  46	4.6000e-002	72.105408	-12.581427
  47	4.7000e-002	73.242188	-12.262910
  48	4.8000e-002	75.279236	-11.961610
  49	4.9000e-002	76.637268	-11.621571
  50	5.0000e-002	78.392029	-11.315967
  51	5.1000e-002	80.062866	-10.943646
  52	5.2000e-002	81.436157	-10.689694
  53	5.3000e-002	83.221436	-10.369024
  54	5.4000e-002	84.785461	-10.078485
  55	5.5000e-002	86.479187	-9.792250
  56	5.6000e-002	87.913513	-9.460820
  57	5.7000e-002	89.385986	-9.157368
  58	5.8000e-002	91.232300	-8.830242
  59	5.9000e-002	92.750549	-8.500964
  60	6.0000e-002	94.322205	-8.141556
  61	6.1000e-002	96.008301	-7.833800
  62	6.2000e-002	97.473145	-7.498066
  63	6.3000e-002	99.235535	-7.147266
  64	6.4000e-002	100.532532	-6.813684
  65	6.5000e-002	102.470398	-6.488711
  66	6.6000e-002	103.965759	-6.140064
  67	6.7000e-002	105.484009	-5.821546
  68	6.8000e-002	107.269287	-5.483660
  69	6.9000e-002	109.054565	-5.117796
  70	7.0000e-002	110.305786	-4.784214
  71	7.1000e-002	111.900330	-4.362394
  72	7.2000e-002	113.777161	-4.033116
  73	7.3000e-002	114.990234	-3.647882
  74	7.4000e-002	116.706848	-3.269105
  75	7.5000e-002	118.438721	-2.937675
  76	7.6000e-002	119.903564	-2.528768
  77	7.7000e-002	121.711731	-2.113404
  78	7.8000e-002	123.329163	-1.741084
  79	7.9000e-002	124.740601	-1.293438
  80	8.0000e-002	126.228333	-0.835031
  81	8.1000e-002	127.929688	-0.443341
  82	8.2000e-002	129.585266	0.064564
  83	8.3000e-002	131.256104	0.531579
  84	8.4000e-002	132.568359	1.007203
  85	8.5000e-002	134.490967	1.472066
  86	8.6000e-002	135.902405	2.048840
  87	8.7000e-002	137.474060	2.573963
  88	8.8000e-002	139.122009	3.174411
  89	8.9000e-002	140.502930	3.888922
  90	9.0000e-002	142.395020	4.508739
  91	9.1000e-002	143.959045	5.190969
  92	9.2000e-002	145.500183	5.987261
  93	9.3000e-002	147.186279	6.727599
  94	9.4000e-002	148.880005	7.648716
  95	9.5000e-002	150.398254	8.552616
  96	9.6000e-002	151.679993	9.553362
  97	9.7000e-002	153.518677	10.620825
  98	9.8000e-002	155.174255	11.782982
  99	9.9000e-002	156.898499	12.970965
 100	1.0000e-001	158.393860	14.311750
 101	1.0100e-001	159.812927	15.760142
 102	1.0200e-001	161.506653	17.242969
 103	1.0300e-001	163.276672	18.732251
 104	1.0400e-001	164.733887	20.367880
 105	1.0500e-001	166.595459	22.111116
 106	1.0600e-001	167.701721	23.796243
 107	1.0700e-001	169.395447	25.588978
 108	1.0800e-001	171.302795	27.308541
 109	1.0900e-001	172.706604	29.041016
 110	1.1000e-001	174.362183	30.747665
 111	1.1100e-001	175.804138	32.318729
 112	1.1200e-001	177.719116	33.795099
 113	1.1300e-001	179.214478	35.067016
 114	1.1400e-001	180.816650	36.162456
 115	1.1500e-001	182.395935	37.161051
 116	1.1600e-001	183.921814	37.901388
 117	1.1700e-001	185.890198	38.493227
 118	1.1800e-001	187.385559	39.020502
 119	1.1900e-001	188.568115	39.534864
 120	1.2000e-001	190.307617	39.881359
 121	1.2100e-001	191.841125	40.189116
 122	1.2200e-001	193.641663	40.455981
 123	1.2300e-001	195.129395	40.662587
 124	1.2400e-001	196.929932	40.903627
 125	1.2500e-001	198.295593	41.086559
 126	1.2600e-001	199.981689	41.213536
 127	1.2700e-001	201.522827	41.353425
 128	1.2800e-001	203.254700	41.452423
 129	1.2900e-001	204.887390	41.564335
 130	1.3000e-001	206.626892	41.691311
 131	1.3100e-001	208.099365	41.742963
 132	1.3200e-001	209.541321	41.872091
 133	1.3300e-001	210.998535	41.958177
 134	1.3400e-001	212.921143	42.020589
 135	1.3500e-001	214.530945	42.089458
 136	1.3600e-001	216.033936	42.218586
 137	1.3700e-001	217.720032	42.255173
 138	1.3800e-001	219.390869	42.341258
 139	1.3900e-001	220.642090	42.423040
 140	1.4000e-001	222.328186	42.392910
 141	1.4100e-001	223.968506	42.500517
 142	1.4200e-001	225.433350	42.552168
 143	1.4300e-001	227.088928	42.633950
 144	1.4400e-001	228.675842	42.698514
 145	1.4500e-001	230.354309	42.767383
 146	1.4600e-001	231.819153	42.803969
 147	1.4700e-001	233.688354	42.849164
 148	1.4800e-001	235.237122	42.881446
 149	1.4900e-001	236.671448	42.935250
 150	1.5000e-001	238.548279	42.980445
 151	1.5100e-001	240.074158	43.001966
 152	1.5200e-001	241.683960	43.060074
 153	1.5300e-001	243.095398	43.083748
 154	1.5400e-001	244.888306	43.202116
 155	1.5500e-001	246.505737	43.195659
 156	1.5600e-001	248.153687	43.223637
 157	1.5700e-001	249.450684	43.288201
 158	1.5800e-001	251.289368	43.298962
 159	1.5900e-001	252.853394	43.456068
 160	1.6000e-001	254.554749	43.417330
 161	1.6100e-001	256.072998	43.503416
 162	1.6200e-001	257.667542	43.477590
 163	1.6300e-001	259.040833	43.546458
 164	1.6400e-001	260.589600	43.578741
 165	1.6500e-001	262.390137	43.628240
 166	1.6600e-001	264.015198	43.647609
 167	1.6700e-001	265.663147	43.694956
 168	1.6800e-001	267.250061	43.755216
 169	1.6900e-001	268.829346	43.804716
 170	1.7000e-001	270.629883	43.905866
 171	1.7100e-001	272.125244	43.815476
 172	1.7200e-001	273.620605	43.901562
 173	1.7300e-001	275.199890	43.910171
 174	1.7400e-001	276.885986	44.022082
 175	1.7500e-001	278.602600	44.011321
 176	1.7600e-001	280.006409	44.028538
 177	1.7700e-001	281.639099	44.140450
 178	1.7800e-001	283.378601	44.133993
 179	1.7900e-001	284.957886	44.192101
 180	1.8000e-001	286.392212	44.187797
 181	1.8100e-001	288.131714	44.267426
 182	1.8200e-001	289.543152	44.243753
 183	1.8300e-001	291.107178	44.325534
 184	1.8400e-001	292.968750	44.323382
 185	1.8500e-001	294.609070	44.377186
 186	1.8600e-001	296.066284	44.439598
 187	1.8700e-001	297.714233	44.482641
 188	1.8800e-001	299.369812	44.491249
 189	1.8900e-001	300.834656	44.512771
 190	1.9000e-001	302.474976	44.601008
 191	1.9100e-001	304.092407	44.635443
 192	1.9200e-001	305.625916	44.663421
 193	1.9300e-001	307.167053	44.676333
 194	1.9400e-001	309.097290	44.747354
 195	1.9500e-001	310.516357	44.824831
 196	1.9600e-001	312.049866	44.788245
 197	1.9700e-001	313.987732	44.852809
 198	1.9800e-001	315.261841	44.863570
 199	1.9900e-001	316.787720	44.975481
 200	2.0000e-001	318.687439	44.938895
 201	2.0100e-001	320.129395	44.988394
 202	2.0200e-001	321.640015	44.994851
 203	2.0300e-001	323.135376	45.027133
 204	2.0400e-001	324.783325	45.074480
 205	2.0500e-001	326.622009	45.108914
 206	2.0600e-001	328.010559	45.177783
 207	2.0700e-001	330.039978	45.162718
 208	2.0800e-001	331.352234	45.233738
 209	2.0900e-001	332.824707	45.235891
 210	2.1000e-001	334.426880	45.319824
 211	2.1100e-001	336.059570	45.328433
 212	2.1200e-001	337.608337	45.367171
 213	2.1300e-001	339.370728	45.343498
 214	2.1400e-001	340.911865	45.459713
 215	2.1500e-001	342.384338	45.481235
 216	2.1600e-001	344.139099	45.485539
 217	2.1700e-001	345.535278	45.580233
 218	2.1800e-001	347.290039	45.539343
 219	2.1900e-001	348.915100	45.646950
 220	2.2000e-001	350.357056	45.621124
 221	2.2100e-001	352.012634	45.677080
 222	2.2200e-001	353.637695	45.756709
 223	2.2300e-001	355.682373	45.791143
 224	2.2400e-001	356.842041	45.821273
 225	2.2500e-001	358.573914	45.844947
 226	2.2600e-001	359.886169	45.924576
 227	2.2700e-001	361.763000	45.915968
 228	2.2800e-001	363.357544	45.989141
 229	2.2900e-001	364.959717	45.995597
 230	2.3000e-001	366.523743	46.092443
 231	2.3100e-001	367.912292	46.040792
 232	2.3200e-001	369.857788	46.109661
 233	2.3300e-001	371.246338	46.131182
 234	2.3400e-001	372.825623	46.144095
 235	2.3500e-001	374.458313	46.212963
 236	2.3600e-001	376.365662	46.238789
 237	2.3700e-001	377.769470	46.311962
 238	2.3800e-001	379.348755	46.299049
 239	2.3900e-001	380.699158	46.365766
 240	2.4000e-001	382.476807	46.367918
 241	2.4100e-001	384.010315	46.441091
 242	2.4200e-001	385.917664	46.454003
 243	2.4300e-001	387.245178	46.499198
 244	2.4400e-001	388.870239	46.512111
 245	2.4500e-001	390.327454	46.563763
 246	2.4600e-001	392.097473	46.639088
 247	2.4700e-001	393.928528	46.688587
 248	2.4800e-001	395.164490	46.723021
 249	2.4900e-001	396.820068	46.772521
 250	2.5000e-001	398.529053	46.772521
 251	2.5100e-001	400.062561	46.815563
 252	2.5200e-001	398.551941	46.778977
 253	2.5300e-001	396.827698	46.783281
 254	2.5400e-001	395.301819	46.800498
 255	2.5500e-001	393.562317	46.787586
 256	2.5600e-001	392.242432	46.753151
 257	2.5700e-001	390.403748	46.766064
 258	2.5800e-001	388.633728	46.763912
 259	2.5900e-001	387.680054	46.794042
 260	2.6000e-001	385.650635	46.768216
 261	2.6100e-001	383.895874	46.714413
 262	2.6200e-001	382.415771	46.701500
 263	2.6300e-001	380.867004	46.660609
 264	2.6400e-001	379.333496	46.707956
 265	2.6500e-001	377.723694	46.671370
 266	2.6600e-001	376.243591	46.682131
 267	2.6700e-001	374.450684	46.660609
 268	2.6800e-001	372.947693	46.656305
 269	2.6900e-001	371.368408	46.634783
 270	2.7000e-001	369.895935	46.583132
 271	2.7100e-001	368.103027	46.589588
 272	2.7200e-001	366.241455	46.535785
 273	2.7300e-001	364.913940	46.578828
 274	2.7400e-001	363.403320	46.520720
 275	2.7500e-001	361.732483	46.503503
 276	2.7600e-001	360.183716	46.505655
 277	2.7700e-001	358.711243	46.514263
 278	2.7800e-001	356.819153	46.438938
 279	2.7900e-001	355.255127	46.488438
 280	2.8000e-001	353.820801	46.438938
 281	2.8100e-001	352.188110	46.432482
 282	2.8200e-001	350.624084	46.406656
 283	2.8300e-001	348.823547	46.361461
 284	2.8400e-001	347.114563	46.402352
 285	2.8500e-001	345.756531	46.385135
 286	2.8600e-001	344.001770	46.376526
 287	2.8700e-001	342.185974	46.322723
 288	2.8800e-001	340.988159	46.294745
 289	2.8900e-001	339.187622	46.294745
 290	2.9000e-001	337.814331	46.271071
 291	2.9100e-001	336.189270	46.262463
 292	2.9200e-001	334.320068	46.215116
 293	2.9300e-001	332.824707	46.243093
 294	2.9400e-001	331.260681	46.159160
 295	2.9500e-001	329.841614	46.157008
 296	2.9600e-001	328.186035	46.103204
 297	2.9700e-001	326.568604	46.122573
 298	2.9800e-001	324.661255	46.129030
 299	2.9900e-001	323.463440	46.077378
 300	3.0000e-001	321.655273	46.025727
 301	3.0100e-001	320.075989	46.021423
 302	3.0200e-001	318.222046	45.999901
 303	3.0300e-001	316.658020	45.965467
 304	3.0400e-001	315.238953	45.984836
 305	3.0500e-001	313.537598	45.935337
 306	3.0600e-001	311.820984	45.943946
 307	3.0700e-001	310.363770	45.905207
 308	3.0800e-001	308.990479	45.855708
 309	3.0900e-001	307.159424	45.875077
 310	3.1000e-001	305.549622	45.825578
 311	3.1100e-001	304.031372	45.816969
 312	3.1200e-001	302.520752	45.786839
 313	3.1300e-001	300.712585	45.829882
 314	3.1400e-001	299.201965	45.724427
 315	3.1500e-001	297.714233	45.741644
 316	3.1600e-001	295.982361	45.748101
 317	3.1700e-001	294.433594	45.657711
 318	3.1800e-001	292.846680	45.677080
 319	3.1900e-001	290.962219	45.730883
 320	3.2000e-001	289.505005	45.623276
 321	3.2100e-001	287.994385	45.522126
 322	3.2200e-001	286.369324	45.599603
 323	3.2300e-001	284.797668	45.550103
 324	3.2400e-001	283.271790	45.567321
 325	3.2500e-001	281.578064	45.513517
 326	3.2600e-001	279.983521	45.461866
 327	3.2700e-001	278.434753	45.502756
 328	3.2800e-001	276.924133	45.418823
 329	3.2900e-001	275.192261	45.397301
 330	3.3000e-001	273.635864	45.401606
 331	3.3100e-001	272.224426	45.352106
 332	3.3200e-001	270.530701	45.311216
 333	3.3300e-001	268.730164	45.321976
 334	3.3400e-001	267.250061	45.315520
 335	3.3500e-001	265.670776	45.261716
 336	3.3600e-001	263.916016	45.248803
 337	3.3700e-001	262.626648	45.227282
 338	3.3800e-001	260.986328	45.225130
 339	3.3900e-001	259.323120	45.115371
 340	3.4000e-001	257.766724	45.136892
 341	3.4100e-001	256.134033	45.102458
 342	3.4200e-001	254.302979	45.160566
 343	3.4300e-001	252.845764	45.078784
 344	3.4400e-001	251.350403	45.059415
 345	3.4500e-001	249.519348	45.035741
 346	3.4600e-001	247.993469	45.035741
 347	3.4700e-001	246.284485	44.988394
 348	3.4800e-001	244.827271	44.958264
 349	3.4900e-001	243.019104	44.915221
 350	3.5000e-001	241.561890	44.859266
 351	3.5100e-001	240.081787	44.902308
 352	3.5200e-001	238.449097	44.852809
 353	3.5300e-001	236.732483	44.818375
 354	3.5400e-001	235.137939	44.824831
 355	3.5500e-001	233.520508	44.790397
 356	3.5600e-001	232.406616	44.788245
 357	3.5700e-001	230.308533	44.771028
 358	3.5800e-001	228.843689	44.648356
 359	3.5900e-001	227.111816	44.704311
 360	3.6000e-001	225.585938	44.680638
 361	3.6100e-001	223.937988	44.641899
 362	3.6200e-001	222.267151	44.598856
 363	3.6300e-001	220.848083	44.596704
 364	3.6400e-001	219.314575	44.583791
 365	3.6500e-001	217.582703	44.549357
 366	3.6600e-001	216.033936	44.512771
 367	3.6700e-001	214.492798	44.523531
 368	3.6800e-001	212.814331	44.446054
 369	3.6900e-001	211.006165	44.456815
 370	3.7000e-001	209.548950	44.409468
 371	3.7100e-001	208.198547	44.370729
 372	3.7200e-001	206.336975	44.359968
 373	3.7300e-001	205.047607	44.340599
 374	3.7400e-001	203.269958	44.299708
 375	3.7500e-001	201.644897	44.308317
 376	3.7600e-001	199.951172	44.278187
 377	3.7700e-001	198.333740	44.267426
 378	3.7800e-001	196.556091	44.179188
 379	3.7900e-001	194.976807	44.181341
 380	3.8000e-001	193.634033	44.196406
 381	3.8100e-001	192.031860	44.112472
 382	3.8200e-001	190.704346	44.095255
 383	3.8300e-001	188.819885	44.099559
 384	3.8400e-001	187.072754	44.054364
 385	3.8500e-001	185.508728	44.002713
 386	3.8600e-001	184.097290	44.060821
 387	3.8700e-001	182.319641	44.026386
 388	3.8800e-001	180.732727	43.963974
 389	3.8900e-001	179.054260	43.955366
 390	3.9000e-001	177.703857	43.888649
 391	3.9100e-001	175.979614	43.856367
 392	3.9200e-001	174.324036	43.830541
 393	3.9300e-001	172.790527	43.824085
 394	3.9400e-001	171.325684	43.787498
 395	3.9500e-001	169.548035	43.746608
 396	3.9600e-001	168.060303	43.725086
 397	3.9700e-001	166.427612	43.690652
 398	3.9800e-001	164.733887	43.658370
 399	3.9900e-001	163.070679	43.654066
 400	4.0000e-001	161.476135	43.626088
 401	4.0100e-001	159.828186	43.589501
 402	4.0200e-001	158.386230	43.550763
 403	4.0300e-001	156.661987	43.492655
 404	4.0400e-001	155.212402	43.527089
 405	4.0500e-001	153.625488	43.462525
 406	4.0600e-001	151.893616	43.436699
 407	4.0700e-001	150.360107	43.430243
 408	4.0800e-001	148.727417	43.369983
 409	4.0900e-001	147.026062	43.385048
 410	4.1000e-001	145.805359	43.331244
 411	4.1100e-001	143.920898	43.270984
 412	4.1200e-001	142.326355	43.266680
 413	4.1300e-001	140.655518	43.208572
 414	4.1400e-001	139.236450	43.210724
 415	4.1500e-001	137.489319	43.169833
 416	4.1600e-001	135.932922	43.128943
 417	4.1700e-001	134.338379	43.116030
 418	4.1800e-001	133.117676	43.128943
 419	4.1900e-001	131.034851	43.042857
 420	4.2000e-001	129.547119	42.989053
 421	4.2100e-001	127.876282	42.971836
 422	4.2200e-001	126.304626	42.965380
 423	4.2300e-001	124.946594	42.885751
 424	4.2400e-001	123.344421	42.883598
 425	4.2500e-001	121.414185	42.838403
 426	4.2600e-001	119.918823	42.831947
 427	4.2700e-001	118.438721	42.780296
 428	4.2800e-001	116.706848	42.743709
 429	4.2900e-001	115.005493	42.683449
 430	4.3000e-001	113.624573	42.627493
 431	4.3100e-001	111.953735	42.627493
 432	4.3200e-001	110.214233	42.577994
 433	4.3300e-001	108.787537	42.629646
 434	4.3400e-001	107.162476	42.513430
 435	4.3500e-001	105.888367	42.500517
 436	4.3600e-001	103.889465	42.459626
 437	4.3700e-001	102.287292	42.425192
 438	4.3800e-001	100.624084	42.369236
 439	4.3900e-001	98.960876	42.328346
 440	4.4000e-001	97.618103	42.291759
 441	4.4100e-001	96.145630	42.229347
 442	4.4200e-001	94.245911	42.197065
 443	4.4300e-001	92.788696	42.126044
 444	4.4400e-001	91.094971	42.158326
 445	4.4500e-001	89.569092	42.083001
 446	4.4600e-001	87.776184	42.046415
 447	4.4700e-001	86.555481	41.981851
 448	4.4800e-001	84.800720	41.956025
 449	4.4900e-001	82.969666	41.897917
 450	4.5000e-001	81.390381	41.867787
 451	4.5100e-001	80.032349	41.818288
 452	4.5200e-001	78.292847	41.682703
 453	4.5300e-001	76.766968	41.751571
 454	4.5400e-001	75.134277	41.669790
 455	4.5500e-001	73.539734	41.639660
 456	4.5600e-001	71.716309	41.512683
 457	4.5700e-001	70.472717	41.484706
 458	4.5800e-001	68.611145	41.413685
 459	4.5900e-001	67.031860	41.359881
 460	4.6000e-001	65.574646	41.331903
 461	4.6100e-001	63.850403	41.267339
 462	4.6200e-001	62.248230	41.198471
 463	4.6300e-001	60.821533	41.120993
 464	4.6400e-001	59.188843	41.071494
 465	4.6500e-001	57.640076	40.940213
 466	4.6600e-001	55.824280	40.892866
 467	4.6700e-001	54.359436	40.796020
 468	4.6800e-001	52.886963	40.688413
 469	4.6900e-001	50.819397	40.664739
 470	4.7000e-001	49.621582	40.533458
 471	4.7100e-001	47.920227	40.455981
 472	4.7200e-001	46.325684	40.337613
 473	4.7300e-001	44.326782	40.279506
 474	4.7400e-001	43.014526	40.143921
 475	4.7500e-001	41.564941	40.038466
 476	4.7600e-001	39.901733	39.913641
 477	4.7700e-001	38.208008	39.775904
 478	4.7800e-001	36.689758	39.640319
 479	4.7900e-001	35.140991	39.502582
 480	4.8000e-001	33.531189	39.397127
 481	4.8100e-001	31.890869	39.240021
 482	4.8200e-001	30.387878	39.095827
 483	4.8300e-001	28.602600	38.846178
 484	4.8400e-001	27.328491	38.740723
 485	4.8500e-001	25.634766	38.495379
 486	4.8600e-001	23.895264	38.342577
 487	4.8700e-001	22.262573	38.155341
 488	4.8800e-001	20.805359	37.897083
 489	4.8900e-001	19.210815	37.703391
 490	4.9000e-001	17.440796	37.455894
 491	4.9100e-001	15.960693	37.266506
 492	4.9200e-001	14.328003	37.051291
 493	4.9300e-001	12.649536	36.810251
 494	4.9400e-001	11.131287	36.504647
 495	4.9500e-001	9.544373	36.285128
 496	4.9600e-001	7.926941	35.983828
 497	4.9700e-001	6.416321	35.706202
 498	4.9800e-001	4.745483	35.413511
 499	4.9900e-001	3.082275	35.054103
 500	5.0000e-001	1.693726	34.825976
 501	5.0100e-001	-0.053406	34.438590
 502	5.0200e-001	-1.617432	34.156659
 503	5.0300e-001	-3.143311	33.760665
 504	5.0400e-001	-4.592896	33.414170
 505	5.0500e-001	-6.210327	33.082740
 506	5.0600e-001	-7.919312	32.723332
 507	5.0700e-001	-9.552002	32.256317
 508	5.0800e-001	-11.123657	31.871083
 509	5.0900e-001	-13.038635	31.455720
 510	5.1000e-001	-14.411926	30.986553
 511	5.1100e-001	-16.143799	30.521690
 512	5.1200e-001	-17.807007	29.972893
 513	5.1300e-001	-19.325256	29.561834
 514	5.1400e-001	-20.835876	29.053928
 515	5.1500e-001	-22.247314	28.524501
 516	5.1600e-001	-23.750305	28.012291
 517	5.1700e-001	-25.566101	27.349431
 518	5.1800e-001	-27.122498	26.824308
 519	5.1900e-001	-29.052734	26.161448
 520	5.2000e-001	-30.448914	25.567457
 521	5.2100e-001	-31.990051	24.917510
 522	5.2200e-001	-33.500671	24.138434
 523	5.2300e-001	-35.133362	23.482031
 524	5.2400e-001	-36.743164	22.756759
 525	5.2500e-001	-38.246155	22.027182
 526	5.2600e-001	-40.100098	21.220129
 527	5.2700e-001	-41.534424	20.449661
 528	5.2800e-001	-43.190002	19.597413
 529	5.2900e-001	-44.898987	18.842011
 530	5.3000e-001	-46.615601	17.912285
 531	5.3100e-001	-47.805786	17.146122
 532	5.3200e-001	-49.468994	16.237918
 533	5.3300e-001	-51.124573	15.422256
 534	5.3400e-001	-52.734375	14.565703
 535	5.3500e-001	-54.412842	13.722063
 536	5.3600e-001	-56.129456	12.785881
 537	5.3700e-001	-57.655334	11.897046
 538	5.3800e-001	-59.181213	11.077079
 539	5.3900e-001	-60.897827	10.220526
 540	5.4000e-001	-62.347412	9.338148
 541	5.4100e-001	-63.957214	8.580594
 542	5.4200e-001	-65.559387	7.745562
 543	5.4300e-001	-67.253113	7.009529
 544	5.4400e-001	-68.733215	6.142216
 545	5.4500e-001	-70.564270	5.395422
 546	5.4600e-001	-71.960449	4.614194
 547	5.4700e-001	-73.532104	3.916900
 548	5.4800e-001	-75.233459	3.217454
 549	5.4900e-001	-76.766968	2.457747
 550	5.5000e-001	-78.414917	1.773366
 551	5.5100e-001	-80.291748	1.123419
 552	5.5200e-001	-81.695557	0.542340
 553	5.5300e-001	-83.274841	-0.144194
 554	5.5400e-001	-84.831238	-0.731729
 555	5.5500e-001	-86.357117	-1.358002
 556	5.5600e-001	-87.844849	-1.930472
 557	5.5700e-001	-89.477539	-2.485725
 558	5.5800e-001	-91.186523	-3.060347
 559	5.5900e-001	-92.819214	-3.609144
 560	5.6000e-001	-94.406128	-4.138571
 561	5.6100e-001	-95.947266	-4.650781
 562	5.6200e-001	-97.488403	-5.158686
 563	5.6300e-001	-99.220276	-5.735461
 564	5.6400e-001	-100.898743	-6.185259
 565	5.6500e-001	-102.378845	-6.656578
 566	5.6600e-001	-104.057312	-7.106376
 567	5.6700e-001	-105.781555	-7.622890
 568	5.6800e-001	-107.276917	-8.064079
 569	5.6900e-001	-109.077454	-8.509573
 570	5.7000e-001	-110.321045	-9.015326
 571	5.7100e-001	-112.152100	-9.391951
 572	5.7200e-001	-113.624573	-9.852510
 573	5.7300e-001	-115.341187	-10.341046
 574	5.7400e-001	-116.828918	-10.743497
 575	5.7500e-001	-118.270874	-11.137339
 576	5.7600e-001	-120.185852	-11.518269
 577	5.7700e-001	-121.559143	-11.914263
 578	5.7800e-001	-123.207092	-12.463059
 579	5.7900e-001	-124.954224	-12.822467
 580	5.8000e-001	-126.434326	-13.233526
 581	5.8100e-001	-128.036499	-13.661803
 582	5.8200e-001	-129.760742	-14.029819
 583	5.8300e-001	-131.156921	-14.447335
 584	5.8400e-001	-132.492065	-14.845481
 585	5.8500e-001	-134.147644	-15.213498
 586	5.8600e-001	-136.138916	-15.678361
 587	5.8700e-001	-137.542725	-16.003334
 588	5.8800e-001	-139.167786	-16.420850
 589	5.8900e-001	-140.747070	-16.836214
 590	5.9000e-001	-142.486572	-17.258034
 591	5.9100e-001	-143.959045	-17.669093
 592	5.9200e-001	-145.797729	-18.101674
 593	5.9300e-001	-146.911621	-18.441712
 594	5.9400e-001	-148.864746	-18.925944
 595	5.9500e-001	-150.329590	-19.328395
 596	5.9600e-001	-152.008057	-19.795410
 597	5.9700e-001	-153.701782	-20.230143
 598	5.9800e-001	-155.166626	-20.699310
 599	5.9900e-001	-156.990051	-21.170629
 600	6.0000e-001	-158.454895	-21.689296
 601	6.0100e-001	-160.041809	-22.266070
 602	6.0200e-001	-161.857605	-22.860061
 603	6.0300e-001	-163.169861	-23.464814
 604	6.0400e-001	-164.833069	-24.097543
 605	6.0500e-001	-166.549683	-24.812055
 606	6.0600e-001	-167.800903	-25.533023
 607	6.0700e-001	-169.654846	-26.368054
 608	6.0800e-001	-171.211243	-27.188021
 609	6.0900e-001	-172.897339	-28.096225
 610	6.1000e-001	-174.400330	-29.133558
 611	6.1100e-001	-176.040649	-30.048218
 612	6.1200e-001	-177.772522	-31.048965
 613	6.1300e-001	-179.130554	-32.107819
 614	6.1400e-001	-180.931091	-33.080588
 615	6.1500e-001	-182.365417	-34.070573
 616	6.1600e-001	-184.127808	-34.993843
 617	6.1700e-001	-185.585022	-35.800896
 618	6.1800e-001	-187.255859	-36.524016
 619	6.1900e-001	-188.850403	-37.201941
 620	6.2000e-001	-190.284729	-37.613001
 621	6.2100e-001	-191.932678	-38.217753
 622	6.2200e-001	-193.595886	-38.598682
 623	6.2300e-001	-195.228577	-38.975307
 624	6.2400e-001	-196.723938	-39.345476
 625	6.2500e-001	-198.478699	-39.586516
 626	6.2600e-001	-199.981689	-39.834012
 627	6.2700e-001	-201.705933	-40.115943
 628	6.2800e-001	-203.193665	-40.322548
 629	6.2900e-001	-204.940796	-40.524850
 630	6.3000e-001	-206.489563	-40.666891
 631	6.3100e-001	-208.168030	-40.821846
 632	6.3200e-001	-209.739685	-41.017691
 633	6.3300e-001	-211.181641	-41.136058
 634	6.3400e-001	-212.905884	-41.308230
 635	6.3500e-001	-214.653015	-41.467488
 636	6.3600e-001	-215.995789	-41.562183
 637	6.3700e-001	-217.613220	-41.749419
 638	6.3800e-001	-219.123840	-41.773093
 639	6.3900e-001	-221.160889	-41.960329
 640	6.4000e-001	-222.381592	-42.063632
 641	6.4100e-001	-224.128723	-42.190608
 642	6.4200e-001	-225.700378	-42.278846
 643	6.4300e-001	-227.394104	-42.412279
 644	6.4400e-001	-228.965759	-42.504821
 645	6.4500e-001	-230.079651	-42.580146
 646	6.4600e-001	-231.933594	-42.720036
 647	6.4700e-001	-233.627319	-42.795361
 648	6.4800e-001	-235.374451	-42.881446
 649	6.4900e-001	-236.785889	-42.943858
 650	6.5000e-001	-238.540649	-43.057922
 651	6.5100e-001	-240.058899	-43.096661
 652	6.5200e-001	-241.516113	-43.210724
 653	6.5300e-001	-243.530273	-43.288201
 654	6.5400e-001	-245.025635	-43.324788
 655	6.5500e-001	-246.406555	-43.466829
 656	6.5600e-001	-248.451233	-43.527089
 657	6.5700e-001	-249.687195	-43.557219
 658	6.5800e-001	-251.327515	-43.615327
 659	6.5900e-001	-252.899170	-43.712173
 660	6.6000e-001	-254.425049	-43.761673
 661	6.6100e-001	-256.164551	-43.809020
 662	6.6200e-001	-257.377625	-43.869280
 663	6.6300e-001	-259.300232	-43.946757
 664	6.6400e-001	-260.734558	-43.987648
 665	6.6500e-001	-262.870789	-44.050060
 666	6.6600e-001	-264.038086	-44.121081
 667	6.6700e-001	-265.647888	-44.153363
 668	6.6800e-001	-267.150879	-44.209318
 669	6.6900e-001	-268.905640	-44.232992
 670	6.7000e-001	-270.439148	-44.355664
 671	6.7100e-001	-272.026062	-44.342751
 672	6.7200e-001	-273.765564	-44.430989
 673	6.7300e-001	-275.367737	-44.446054
 674	6.7400e-001	-277.107239	-44.484793
 675	6.7500e-001	-278.419495	-44.592400
 676	6.7600e-001	-280.197144	-44.609617
 677	6.7700e-001	-281.929016	-44.676333
 678	6.7800e-001	-283.416748	-44.732289
 679	6.7900e-001	-284.858704	-44.775332
 680	6.8000e-001	-286.422729	-44.837744
 681	6.8100e-001	-288.513184	-44.874331
 682	6.8200e-001	-289.772034	-44.878635
 683	6.8300e-001	-291.297913	-44.994851
 684	6.8400e-001	-292.846680	-44.973329
 685	6.8500e-001	-294.715881	-45.046502
 686	6.8600e-001	-296.089172	-45.087393
 687	6.8700e-001	-297.760010	-45.143348
 688	6.8800e-001	-299.179077	-45.192848
 689	6.8900e-001	-300.842285	-45.240195
 690	6.9000e-001	-302.299500	-45.296151
 691	6.9100e-001	-304.153442	-45.324128
 692	6.9200e-001	-305.885315	-45.334889
 693	6.9300e-001	-307.502747	-45.416671
 694	6.9400e-001	-308.807373	-45.436040
 695	6.9500e-001	-310.432434	-45.470474
 696	6.9600e-001	-312.156677	-45.515669
 697	6.9700e-001	-313.674927	-45.584538
 698	6.9800e-001	-315.399170	-45.634037
 699	6.9900e-001	-317.115784	-45.655558
 700	7.0000e-001	-318.550110	-45.722275
 701	7.0100e-001	-320.274353	-45.689993
 702	7.0200e-001	-321.662903	-45.788991
 703	7.0300e-001	-323.371887	-45.812665
 704	7.0400e-001	-324.829102	-45.870773
 705	7.0500e-001	-326.515198	-45.877229
 706	7.0600e-001	-328.079224	-46.010662
 707	7.0700e-001	-329.711914	-45.989141
 708	7.0800e-001	-331.512451	-46.023575
 709	7.0900e-001	-332.908630	-46.062313
 710	7.1000e-001	-334.747314	-46.101052
 711	7.1100e-001	-336.181641	-46.172073
 712	7.1200e-001	-337.699890	-46.146247
 713	7.1300e-001	-339.088440	-46.249550
 714	7.1400e-001	-340.827942	-46.256006
 715	7.1500e-001	-342.628479	-46.333483
 716	7.1600e-001	-344.139099	-46.333483
 717	7.1700e-001	-345.588684	-46.380831
 718	7.1800e-001	-347.198486	-46.387287
 719	7.1900e-001	-349.090576	-46.406656
 720	7.2000e-001	-350.738525	-46.484133
 721	7.2100e-001	-352.241516	-46.525024
 722	7.2200e-001	-353.775024	-46.606806
 723	7.2300e-001	-355.506897	-46.570219
 724	7.2400e-001	-356.796265	-46.701500
 725	7.2500e-001	-358.322144	-46.695043
 726	7.2600e-001	-360.145569	-46.731630
 727	7.2700e-001	-361.579895	-46.791890
 728	7.2800e-001	-363.281250	-46.834933
 729	7.2900e-001	-364.952087	-46.837085
 730	7.3000e-001	-366.676331	-46.852150
 731	7.3100e-001	-368.125916	-46.953301
 732	7.3200e-001	-369.575500	-46.968366
 733	7.3300e-001	-371.330261	-47.035082
 734	7.3400e-001	-372.909546	-47.041538
 735	7.3500e-001	-374.473572	-47.039386
 736	7.3600e-001	-375.984192	-47.190036
 737	7.3700e-001	-377.662659	-47.110407
 738	7.3800e-001	-379.386902	-47.192188
 739	7.3900e-001	-381.103516	-47.170667
 740	7.4000e-001	-382.728577	-47.293339
 741	7.4100e-001	-384.025574	-47.304100
 742	7.4200e-001	-385.665894	-47.334230
 743	7.4300e-001	-387.336731	-47.329926
 744	7.4400e-001	-389.015198	-47.416011
 745	7.4500e-001	-390.426636	-47.435381
 746	7.4600e-001	-392.127991	-47.454750
 747	7.4700e-001	-393.646240	-47.532227
 748	7.4800e-001	-395.271301	-47.502097
 749	7.4900e-001	-397.003174	-47.553748
 750	7.5000e-001	-398.674011	-47.566661
 751	7.5100e-001	-399.848938	-47.689333
 752	7.5200e-001	-398.414612	-47.648443
 753	7.5300e-001	-396.888733	-47.654899
 754	7.5400e-001	-395.050049	-47.641986
 755	7.5500e-001	-393.714905	-47.661356
 756	7.5600e-001	-391.906738	-47.590335
 757	7.5700e-001	-390.815735	-47.611856
 758	7.5800e-001	-388.931274	-47.588183
 759	7.5900e-001	-387.344360	-47.517162
 760	7.6000e-001	-385.528564	-47.538683
 761	7.6100e-001	-384.223938	-47.495641
 762	7.6200e-001	-382.659912	-47.530075
 763	7.6300e-001	-380.905151	-47.471967
 764	7.6400e-001	-379.341125	-47.459054
 765	7.6500e-001	-377.792358	-47.474119
 766	7.6600e-001	-375.953674	-47.441837
 767	7.6700e-001	-374.412537	-47.433228
 768	7.6800e-001	-373.039246	-47.385881
 769	7.6900e-001	-371.215820	-47.388033
 770	7.7000e-001	-369.766235	-47.368664
 771	7.7100e-001	-368.156433	-47.360056
 772	7.7200e-001	-366.409302	-47.297643
 773	7.7300e-001	-364.967346	-47.332078
 774	7.7400e-001	-363.304138	-47.312708
 775	7.7500e-001	-361.747742	-47.254601
 776	7.7600e-001	-360.107422	-47.286883
 777	7.7700e-001	-358.314514	-47.237383
 778	7.7800e-001	-356.834412	-47.239536
 779	7.7900e-001	-355.316162	-47.198645
 780	7.8000e-001	-353.752136	-47.215862
 781	7.8100e-001	-352.081299	-47.179276
 782	7.8200e-001	-350.624084	-47.121168
 783	7.8300e-001	-348.815918	-47.136233
 784	7.8400e-001	-347.373962	-47.144841
 785	7.8500e-001	-345.771790	-47.129776
 786	7.8600e-001	-344.284058	-47.063060
 787	7.8700e-001	-342.651367	-47.054451
 788	7.8800e-001	-341.247559	-47.009256
 789	7.8900e-001	-339.103699	-46.992039
 790	7.9000e-001	-337.753296	-46.854302
 791	7.9100e-001	-336.044312	-46.903801
 792	7.9200e-001	-334.503174	-46.931779
 793	7.9300e-001	-332.939148	-46.914562
 794	7.9400e-001	-331.321716	-46.884432
 795	7.9500e-001	-329.689026	-46.854302
 796	7.9600e-001	-328.048706	-46.903801
 797	7.9700e-001	-326.583862	-46.776825
 798	7.9800e-001	-324.928284	-46.789738
 799	7.9900e-001	-323.089600	-46.733782
 800	8.0000e-001	-321.556091	-46.727326
 801	8.0100e-001	-320.175171	-46.766064
 802	8.0200e-001	-318.580627	-46.723021
 803	8.0300e-001	-316.833496	-46.699348
 804	8.0400e-001	-315.422058	-46.611110
 805	8.0500e-001	-313.728333	-46.664913
 806	8.0600e-001	-312.110901	-46.600349
 807	8.0700e-001	-310.531616	-46.626175
 808	8.0800e-001	-308.746338	-46.430330
 809	8.0900e-001	-307.426453	-46.512111
 810	8.1000e-001	-305.816650	-46.492742
 811	8.1100e-001	-304.267883	-46.481981
 812	8.1200e-001	-302.650452	-46.501351
 813	8.1300e-001	-300.735474	-46.408808
 814	8.1400e-001	-299.316406	-46.419569
 815	8.1500e-001	-297.752380	-46.367918
 816	8.1600e-001	-296.157837	-46.355005
 817	8.1700e-001	-294.509888	-46.299049
 818	8.1800e-001	-292.938232	-46.346396
 819	8.1900e-001	-291.282654	-46.271071
 820	8.2000e-001	-289.703369	-46.230181
 821	8.2100e-001	-288.276672	-46.197898
 822	8.2200e-001	-286.781311	-46.232333
 823	8.2300e-001	-284.721375	-46.172073
 824	8.2400e-001	-283.256531	-46.079531
 825	8.2500e-001	-281.692505	-46.172073
 826	8.2600e-001	-280.067444	-46.174225
 827	8.2700e-001	-278.579712	-46.038640
 828	8.2800e-001	-276.863098	-46.049401
 829	8.2900e-001	-275.398254	-46.008510
 830	8.3000e-001	-273.963928	-45.959011
 831	8.3100e-001	-271.934509	-45.952554
 832	8.3200e-001	-270.484924	-45.896598
 833	8.3300e-001	-268.867493	-45.907359
 834	8.3400e-001	-267.257690	-45.909511
 835	8.3500e-001	-265.960693	-45.847099
 836	8.3600e-001	-264.122009	-45.821273
 837	8.3700e-001	-262.275696	-45.769622
 838	8.3800e-001	-261.039734	-45.750253
 839	8.3900e-001	-259.353638	-45.743796
 840	8.4000e-001	-257.629395	-45.683536
 841	8.4100e-001	-255.859375	-45.752405
 842	8.4200e-001	-254.562378	-45.597451
 843	8.4300e-001	-253.028870	-45.653406
 844	8.4400e-001	-251.037598	-45.610363
 845	8.4500e-001	-249.649048	-45.593146
 846	8.4600e-001	-248.016357	-45.578081
 847	8.4700e-001	-246.269226	-45.455409
 848	8.4800e-001	-244.987488	-45.513517
 849	8.4900e-001	-243.309021	-45.418823
 850	8.5000e-001	-241.683960	-45.433888
 851	8.5100e-001	-240.119934	-45.414518
 852	8.5200e-001	-238.342285	-45.401606
 853	8.5300e-001	-236.907959	-45.354258
 854	8.5400e-001	-235.420227	-45.306911
 855	8.5500e-001	-233.901978	-45.306911
 856	8.5600e-001	-231.979370	-45.229434
 857	8.5700e-001	-230.484009	-45.270325
 858	8.5800e-001	-228.988647	-45.186391
 859	8.5900e-001	-227.272034	-45.164870
 860	8.6000e-001	-225.692749	-45.145501
 861	8.6100e-001	-224.075317	-45.158413
 862	8.6200e-001	-222.473145	-45.108914
 863	8.6300e-001	-220.893860	-45.093849
 864	8.6400e-001	-219.306946	-45.046502
 865	8.6500e-001	-217.628479	-45.005611
 866	8.6600e-001	-216.171265	-44.962568
 867	8.6700e-001	-214.485168	-44.895852
 868	8.6800e-001	-212.760925	-44.904461
 869	8.6900e-001	-211.181641	-44.854961
 870	8.7000e-001	-209.823608	-44.831288
 871	8.7100e-001	-208.007813	-44.777484
 872	8.7200e-001	-206.398010	-44.732289
 873	8.7300e-001	-204.574585	-44.747354
 874	8.7400e-001	-203.323364	-44.684942
 875	8.7500e-001	-201.637268	-44.656964
 876	8.7600e-001	-200.057983	-44.689246
 877	8.7700e-001	-198.303223	-44.631138
 878	8.7800e-001	-196.777344	-44.529988
 879	8.7900e-001	-195.289612	-44.529988
 880	8.8000e-001	-193.511963	-44.471880
 881	8.8100e-001	-192.123413	-44.478336
 882	8.8200e-001	-190.223694	-44.469728
 883	8.8300e-001	-188.812256	-44.403011
 884	8.8400e-001	-187.347412	-44.377186
 885	8.8500e-001	-185.493469	-44.353512
 886	8.8600e-001	-183.921814	-44.323382
 887	8.8700e-001	-182.609558	-44.243753
 888	8.8800e-001	-180.778503	-44.226536
 889	8.8900e-001	-179.069519	-44.164123
 890	8.9000e-001	-177.726746	-44.151211
 891	8.9100e-001	-175.918579	-44.080190
 892	8.9200e-001	-174.423218	-44.101711
 893	8.9300e-001	-172.775269	-44.078038
 894	8.9400e-001	-171.142578	-44.039299
 895	8.9500e-001	-169.731140	-43.957518
 896	8.9600e-001	-168.266296	-43.905866
 897	8.9700e-001	-166.465759	-43.914475
 898	8.9800e-001	-164.726257	-43.828389
 899	8.9900e-001	-163.169861	-43.811172
 900	9.0000e-001	-161.544800	-43.761673
 901	9.0100e-001	-160.110474	-43.742303
 902	9.0200e-001	-158.370972	-43.733695
 903	9.0300e-001	-156.761169	-43.654066
 904	9.0400e-001	-155.265808	-43.643305
 905	9.0500e-001	-153.709412	-43.598110
 906	9.0600e-001	-152.069092	-43.546458
 907	9.0700e-001	-150.520325	-43.512024
 908	9.0800e-001	-148.712158	-43.438851
 909	9.0900e-001	-147.171021	-43.445308
 910	9.1000e-001	-145.439148	-43.417330
 911	9.1100e-001	-144.142151	-43.354918
 912	9.1200e-001	-142.471313	-43.227941
 913	9.1300e-001	-140.998840	-43.234398
 914	9.1400e-001	-139.175415	-43.189203
 915	9.1500e-001	-137.786865	-43.139703
 916	9.1600e-001	-135.971069	-43.113878
 917	9.1700e-001	-134.368896	-43.006271
 918	9.1800e-001	-132.873535	-42.961076
 919	9.1900e-001	-131.172180	-42.926641
 920	9.2000e-001	-129.699707	-42.847012
 921	9.2100e-001	-128.005981	-42.801817
 922	9.2200e-001	-126.373291	-42.767383
 923	9.2300e-001	-124.801636	-42.687753
 924	9.2400e-001	-123.146057	-42.621037
 925	9.2500e-001	-121.887207	-42.580146
 926	9.2600e-001	-119.987488	-42.513430
 927	9.2700e-001	-118.743896	-42.496213
 928	9.2800e-001	-116.882324	-42.362780
 929	9.2900e-001	-115.158081	-42.293911
 930	9.3000e-001	-113.647461	-42.259477
 931	9.3100e-001	-112.190247	-42.182000
 932	9.3200e-001	-110.359192	-42.128196
 933	9.3300e-001	-108.993530	-42.001220
 934	9.3400e-001	-107.284546	-41.940960
 935	9.3500e-001	-105.590820	-41.891461
 936	9.3600e-001	-104.003906	-41.805375
 937	9.3700e-001	-102.134705	-41.680551
 938	9.3800e-001	-100.845337	-41.618138
 939	9.3900e-001	-99.563599	-41.534205
 940	9.4000e-001	-97.808838	-41.407228
 941	9.4100e-001	-96.038818	-41.316838
 942	9.4200e-001	-94.444275	-41.181253
 943	9.4300e-001	-92.590332	-41.131754
 944	9.4400e-001	-91.194153	-41.006930
 945	9.4500e-001	-89.500427	-40.770194
 946	9.4600e-001	-88.043213	-40.804628
 947	9.4700e-001	-86.524963	-40.714238
 948	9.4800e-001	-85.014343	-40.598023
 949	9.4900e-001	-82.992554	-40.434460
 950	9.5000e-001	-81.588745	-40.326853
 951	9.5100e-001	-79.971313	-40.219246
 952	9.5200e-001	-78.140259	-40.105182
 953	9.5300e-001	-76.805115	-39.941619
 954	9.5400e-001	-75.202942	-39.782361
 955	9.5500e-001	-73.562622	-39.642471
 956	9.5600e-001	-72.128296	-39.504734
 957	9.5700e-001	-70.411682	-39.369149
 958	9.5800e-001	-68.771362	-39.212043
 959	9.5900e-001	-67.108154	-39.033415
 960	9.6000e-001	-65.521240	-38.824657
 961	9.6100e-001	-64.163208	-38.665398
 962	9.6200e-001	-62.393188	-38.439423
 963	9.6300e-001	-60.981750	-38.224209
 964	9.6400e-001	-59.089661	-38.071407
 965	9.6500e-001	-57.609558	-37.873410
 966	9.6600e-001	-55.892944	-37.692630
 967	9.6700e-001	-54.573059	-37.451590
 968	9.6800e-001	-52.902222	-37.242832
 969	9.6900e-001	-51.071167	-37.006096
 970	9.7000e-001	-49.774170	-36.801643
 971	9.7100e-001	-47.714233	-36.493886
 972	9.7200e-001	-46.409607	-36.278672
 973	9.7300e-001	-44.738770	-36.041936
 974	9.7400e-001	-43.045044	-35.785831
 975	9.7500e-001	-41.343689	-35.538335
 976	9.7600e-001	-39.909363	-35.271469
 977	9.7700e-001	-38.146973	-34.978778
 978	9.7800e-001	-36.735535	-34.746346
 979	9.7900e-001	-35.232544	-34.457959
 980	9.8000e-001	-33.691406	-34.158811
 981	9.8100e-001	-32.592773	-33.915619
 982	9.8200e-001	-30.418396	-33.547603
 983	9.8300e-001	-28.907776	-33.276433
 984	9.8400e-001	-26.992798	-32.983741
 985	9.8500e-001	-25.932312	-32.665224
 986	9.8600e-001	-24.085999	-32.383293
 987	9.8700e-001	-22.453308	-32.038951
 988	9.8800e-001	-20.698547	-31.817280
 989	9.8900e-001	-19.332886	-31.449263
 990	9.9000e-001	-17.517090	-31.156572
 991	9.9100e-001	-15.953064	-30.833751
 992	9.9200e-001	-14.205933	-30.515233
 993	9.9300e-001	-13.008118	-30.254824
 994	9.9400e-001	-11.047363	-29.884656
 995	9.9500e-001	-9.468079	-29.583356
 996	9.9600e-001	-8.064270	-29.215339
 997	9.9700e-001	-6.446838	-28.907583
 998	9.9800e-001	-4.844666	-28.593370
 999	9.9900e-001	-3.143311	-28.268396
1000	1.0000e+000	-1.434326	-27.939118
1001	1.0010e+000	-0.228882	-27.594776
1002	1.0020e+000	1.663208	-27.314997
1003	1.0030e+000	3.128052	-27.041675
1004	1.0040e+000	4.806519	-26.718853
1005	1.0050e+000	6.240845	-26.309946
1006	1.0060e+000	7.972717	-26.032320
1007	1.0070e+000	9.330750	-25.672912
1008	1.0080e+000	11.054993	-25.365156
1009	1.0090e+000	12.832642	-25.059551
1010	1.0100e+000	14.259338	-24.715208
1011	1.0110e+000	15.853882	-24.388083
1012	1.0120e+000	17.478943	-24.011458
1013	1.0130e+000	19.134521	-23.690788
1014	1.0140e+000	20.568848	-23.339989
1015	1.0150e+000	22.224426	-23.090341
1016	1.0160e+000	24.078369	-22.743846
1017	1.0170e+000	25.527954	-22.382286
1018	1.0180e+000	27.099609	-22.046551
1019	1.0190e+000	28.564453	-21.788294
1020	1.0200e+000	30.441284	-21.422430
1021	1.0210e+000	31.967163	-21.000610
1022	1.0220e+000	33.287048	-20.705766
1023	1.0230e+000	35.194397	-20.387249
1024	1.0240e+000	36.949158	-20.029994
1025	1.0250e+000	38.261414	-19.666281
1026	1.0260e+000	40.023804	-19.384351
1027	1.0270e+000	41.503906	-19.007726
1028	1.0280e+000	42.907715	-18.695665
1029	1.0290e+000	44.921875	-18.340561
1030	1.0300e+000	46.302795	-18.024196
1031	1.0310e+000	48.149109	-17.662636
1032	1.0320e+000	49.781799	-17.309685
1033	1.0330e+000	51.246643	-16.989016
1034	1.0340e+000	52.581787	-16.558587
1035	1.0350e+000	54.450989	-16.268048
1036	1.0360e+000	56.030273	-15.962444
1037	1.0370e+000	57.739258	-15.618101
1038	1.0380e+000	59.265137	-15.265149
1039	1.0390e+000	60.867310	-14.914350
1040	1.0400e+000	62.309265	-14.587224
1041	1.0410e+000	63.957214	-14.206295
1042	1.0420e+000	65.483093	-13.900691
1043	1.0430e+000	67.008972	-13.560652
1044	1.0440e+000	68.801880	-13.343286
1045	1.0450e+000	70.297241	-12.874119
1046	1.0460e+000	72.082520	-12.546993
1047	1.0470e+000	73.616028	-12.226324
1048	1.0480e+000	74.989319	-11.886285
1049	1.0490e+000	77.033997	-11.580681
1050	1.0500e+000	78.681946	-11.191143
1051	1.0510e+000	80.162048	-10.876930
1052	1.0520e+000	81.558228	-10.558413
1053	1.0530e+000	83.282471	-10.246352
1054	1.0540e+000	84.716797	-9.902009
1055	1.0550e+000	86.189270	-9.579188
1056	1.0560e+000	88.081360	-9.234845
1057	1.0570e+000	89.706421	-8.901263
1058	1.0580e+000	90.995789	-8.584898
1059	1.0590e+000	92.613220	-8.210425
1060	1.0600e+000	94.612122	-7.934951
1061	1.0610e+000	96.054077	-7.558326
1062	1.0620e+000	97.366333	-7.259178
1063	1.0630e+000	99.250793	-6.929900
1064	1.0640e+000	100.677490	-6.527449
1065	1.0650e+000	102.439880	-6.191715
1066	1.0660e+000	103.897095	-5.819394
1067	1.0670e+000	105.789185	-5.503029
1068	1.0680e+000	107.208252	-5.141469
1069	1.0690e+000	108.505249	-4.773453
1070	1.0700e+000	110.542297	-4.396828
1071	1.0710e+000	111.961365	-4.063246
1072	1.0720e+000	113.571167	-3.660795
1073	1.0730e+000	115.310669	-3.294931
1074	1.0740e+000	116.638184	-2.961349
1075	1.0750e+000	118.392944	-2.483573
1076	1.0760e+000	120.063782	-2.134926
1077	1.0770e+000	121.475220	-1.698041
1078	1.0780e+000	123.138428	-1.312807
1079	1.0790e+000	124.847412	-0.794141
1080	1.0800e+000	126.281738	-0.413211
1081	1.0810e+000	127.952576	0.071021
1082	1.0820e+000	129.547119	0.499297
1083	1.0830e+000	131.172180	0.994290
1084	1.0840e+000	132.804871	1.532326
1085	1.0850e+000	134.109497	2.005797
1086	1.0860e+000	135.879517	2.614854
1087	1.0870e+000	137.512207	3.206693
1088	1.0880e+000	138.984680	3.826510
1089	1.0890e+000	140.480042	4.482914
1090	1.0900e+000	142.196655	5.165143
1091	1.0910e+000	143.722534	5.892567
1092	1.0920e+000	145.446777	6.673795
1093	1.0930e+000	146.797180	7.545413
1094	1.0940e+000	148.918152	8.414879
1095	1.0950e+000	150.260925	9.422081
1096	1.0960e+000	151.863098	10.397002
1097	1.0970e+000	153.656006	11.563464
1098	1.0980e+000	155.189514	12.727773
1099	1.0990e+000	156.738281	13.978168
1100	1.1000e+000	158.271790	15.325409
1101	1.1010e+000	159.652710	16.780258
1102	1.1020e+000	161.346436	18.338409
1103	1.1030e+000	163.253784	19.909474
1104	1.1040e+000	164.779663	21.609666
1105	1.1050e+000	166.213989	23.277577
1106	1.1060e+000	168.113708	25.066008
1107	1.1070e+000	169.502258	26.794178
1108	1.1080e+000	171.028137	28.657934
1109	1.1090e+000	172.546387	30.334453
1110	1.1100e+000	174.461365	31.929191
1111	1.1110e+000	175.819397	33.452908
1112	1.1120e+000	177.688599	34.778628
1113	1.1130e+000	179.016113	36.009654
1114	1.1140e+000	180.656433	37.025466
1115	1.1150e+000	182.579041	37.937974
1116	1.1160e+000	184.051514	38.613747
1117	1.1170e+000	185.600281	39.220651
1118	1.1180e+000	187.255859	39.672601
1119	1.1190e+000	188.858032	40.087965
1120	1.1200e+000	190.628052	40.453829
1121	1.1210e+000	191.879272	40.735760
1122	1.1220e+000	193.565369	40.968191
1123	1.1230e+000	195.205688	41.176949
1124	1.1240e+000	196.876526	41.390011
1125	1.1250e+000	198.371887	41.534205
1126	1.1260e+000	199.989319	41.676246
1127	1.1270e+000	201.660156	41.818288
1128	1.1280e+000	203.056335	41.945264
1129	1.1290e+000	204.750061	42.031350
1130	1.1300e+000	206.382751	42.136805
1131	1.1310e+000	208.030701	42.237956
1132	1.1320e+000	209.556580	42.308976
1133	1.1330e+000	211.318970	42.399366
1134	1.1340e+000	212.799072	42.476843
1135	1.1350e+000	214.454651	42.567233
1136	1.1360e+000	215.881348	42.601668
1137	1.1370e+000	217.597961	42.687753
1138	1.1380e+000	219.200134	42.765231
1139	1.1390e+000	220.954895	42.810426
1140	1.1400e+000	222.290039	42.885751
1141	1.1410e+000	224.060059	42.924489
1142	1.1420e+000	225.578308	42.989053
1143	1.1430e+000	227.203369	43.036401
1144	1.1440e+000	228.836060	43.088052
1145	1.1450e+000	230.468750	43.111726
1146	1.1460e+000	232.185364	43.234398
1147	1.1470e+000	233.543396	43.290353
1148	1.1480e+000	235.198975	43.247311
1149	1.1490e+000	236.763000	43.350613
1150	1.1500e+000	238.334656	43.415178
1151	1.1510e+000	240.043640	43.391504
1152	1.1520e+000	241.806030	43.481894
1153	1.1530e+000	243.225098	43.492655
1154	1.1540e+000	244.995117	43.563676
1155	1.1550e+000	246.170044	43.643305
1156	1.1560e+000	248.069763	43.679891
1157	1.1570e+000	249.763489	43.688500
1158	1.1580e+000	251.396179	43.757368
1159	1.1590e+000	252.838135	43.793955
1160	1.1600e+000	254.409790	43.824085
1161	1.1610e+000	255.859375	43.897258
1162	1.1620e+000	257.766724	43.981191
1163	1.1630e+000	259.040833	43.957518
1164	1.1640e+000	260.894775	43.957518
1165	1.1650e+000	262.481689	44.060821
1166	1.1660e+000	264.083862	44.075886
1167	1.1670e+000	265.663147	44.108168
1168	1.1680e+000	267.417908	44.142602
1169	1.1690e+000	268.836975	44.177036
1170	1.1700e+000	270.698547	44.252361
1171	1.1710e+000	271.926880	44.297556
1172	1.1720e+000	273.696899	44.301861
1173	1.1730e+000	275.161743	44.385794
1174	1.1740e+000	276.954651	44.368577
1175	1.1750e+000	278.289795	44.377186
1176	1.1760e+000	280.036926	44.454663
1177	1.1770e+000	281.501770	44.510618
1178	1.1780e+000	283.241272	44.517075
1179	1.1790e+000	284.690857	44.566574
1180	1.1800e+000	286.407471	44.620378
1181	1.1810e+000	288.002014	44.659116
1182	1.1820e+000	289.855957	44.672029
1183	1.1830e+000	291.152954	44.717224
1184	1.1840e+000	292.968750	44.764571
1185	1.1850e+000	294.471741	44.803310
1186	1.1860e+000	295.928955	44.799006
1187	1.1870e+000	297.554016	44.803310
1188	1.1880e+000	299.209595	44.887243
1189	1.1890e+000	300.628662	44.971177
1190	1.1900e+000	302.543640	44.956112
1191	1.1910e+000	303.985596	45.027133
1192	1.1920e+000	305.618286	45.113218
1193	1.1930e+000	307.258606	45.106762
1194	1.1940e+000	309.234619	45.083088
1195	1.1950e+000	310.371399	45.158413
1196	1.1960e+000	312.141418	45.195000
1197	1.1970e+000	313.812256	45.261716
1198	1.1980e+000	315.216064	45.231586
1199	1.1990e+000	317.008972	45.296151
1200	1.2000e+000	318.420410	45.390845
1201	1.2010e+000	319.938660	45.373628
1202	1.2020e+000	321.655273	45.438192
1203	1.2030e+000	323.295593	45.433888
1204	1.2040e+000	324.920654	45.500604
1205	1.2050e+000	326.370239	45.498452
1206	1.2060e+000	328.247070	45.543647
1207	1.2070e+000	329.612732	45.616820
1208	1.2080e+000	331.352234	45.629733
1209	1.2090e+000	332.855225	45.683536
1210	1.2100e+000	334.312439	45.711514
1211	1.2110e+000	335.983276	45.737340
1212	1.2120e+000	337.760925	45.763166
1213	1.2130e+000	339.202881	45.832034
1214	1.2140e+000	340.751648	45.864316
1215	1.2150e+000	342.475891	45.881533
1216	1.2160e+000	344.215393	45.926728
1217	1.2170e+000	345.466614	45.924576
1218	1.2180e+000	347.129822	46.025727
1219	1.2190e+000	348.983765	46.036488
1220	1.2200e+000	350.616455	46.085987
1221	1.2210e+000	352.012634	46.135486
1222	1.2220e+000	353.622437	46.157008
1223	1.2230e+000	355.270386	46.154856
1224	1.2240e+000	356.964111	46.212963
1225	1.2250e+000	358.345032	46.215116
1226	1.2260e+000	360.115051	46.303353
1227	1.2270e+000	361.587524	46.378678
1228	1.2280e+000	363.433838	46.335636
1229	1.2290e+000	364.906311	46.426026
1230	1.2300e+000	366.470337	46.447547
1231	1.2310e+000	368.080139	46.507807
1232	1.2320e+000	369.659424	46.479829
1233	1.2330e+000	371.345520	46.555154
1234	1.2340e+000	373.146057	46.617566
1235	1.2350e+000	374.549866	46.613262
1236	1.2360e+000	376.060486	46.705804
1237	1.2370e+000	377.731323	46.750999
1238	1.2380e+000	379.425049	46.794042
1239	1.2390e+000	381.057739	46.746695
1240	1.2400e+000	382.530212	46.806955
1241	1.2410e+000	383.811951	46.843541
1242	1.2420e+000	385.787964	46.880128
1243	1.2430e+000	387.313843	46.946844
1244	1.2440e+000	388.999939	46.989887
1245	1.2450e+000	390.357971	47.004952
1246	1.2460e+000	392.127991	47.047995
1247	1.2470e+000	393.554688	47.119016
1248	1.2480e+000	395.141602	47.151298
1249	1.2490e+000	396.987915	47.174971
1250	1.2500e+000	398.544312	47.243840
1251	1.2510e+000	400.131226	47.230927
1252	1.2520e+000	398.559570	47.224471
1253	1.2530e+000	396.766663	47.224471
1254	1.2540e+000	395.332336	47.226623
1255	1.2550e+000	393.569946	47.177123
1256	1.2560e+000	391.921997	47.224471
1257	1.2570e+000	390.586853	47.185732
1258	1.2580e+000	388.839722	47.220166
1259	1.2590e+000	387.069702	47.159906
1260	1.2600e+000	385.665894	47.134081
1261	1.2610e+000	383.911133	47.194341
1262	1.2620e+000	382.789612	47.129776
1263	1.2630e+000	380.661011	47.164211
1264	1.2640e+000	379.173279	47.119016
1265	1.2650e+000	377.601624	47.112559
1266	1.2660e+000	375.999451	47.106103
1267	1.2670e+000	374.595642	47.069516
1268	1.2680e+000	372.756958	47.058756
1269	1.2690e+000	371.452332	47.080277
1270	1.2700e+000	369.934082	47.032930
1271	1.2710e+000	367.996216	46.992039
1272	1.2720e+000	366.615295	46.998496
1273	1.2730e+000	364.753723	46.976974
1274	1.2740e+000	363.166809	47.004952
1275	1.2750e+000	361.740112	46.961909
1276	1.2760e+000	359.924316	46.940388
1277	1.2770e+000	358.322144	47.022169
1278	1.2780e+000	356.903076	46.869367
1279	1.2790e+000	355.461121	46.901649
1280	1.2800e+000	353.675842	46.901649
1281	1.2810e+000	352.020264	46.862911
1282	1.2820e+000	350.440979	46.819868
1283	1.2830e+000	348.884583	46.731630
1284	1.2840e+000	347.343445	46.804803
1285	1.2850e+000	345.573425	46.794042
1286	1.2860e+000	344.276428	46.770368
1287	1.2870e+000	342.391968	46.746695
1288	1.2880e+000	341.232300	46.701500
1289	1.2890e+000	339.103699	46.660609
1290	1.2900e+000	337.623596	46.690739
1291	1.2910e+000	335.990906	46.656305
1292	1.2920e+000	334.510803	46.658457
1293	1.2930e+000	332.839966	46.636936
1294	1.2940e+000	331.214905	46.583132
1295	1.2950e+000	329.727173	46.608958
1296	1.2960e+000	328.041077	46.546546
1297	1.2970e+000	326.477051	46.559458
1298	1.2980e+000	324.928284	46.525024
1299	1.2990e+000	323.463440	46.501351
1300	1.3000e+000	321.754456	46.477677
1301	1.3010e+000	320.129395	46.484133
1302	1.3020e+000	318.519592	46.456156
1303	1.3030e+000	317.001343	46.430330
1304	1.3040e+000	315.155029	46.445395
1305	1.3050e+000	313.537598	46.389439
1306	1.3060e+000	312.698364	46.398048
1307	1.3070e+000	310.356140	46.348548
1308	1.3080e+000	308.876038	46.307658
1309	1.3090e+000	307.189941	46.260311
1310	1.3100e+000	305.366516	46.288288
1311	1.3110e+000	304.161072	46.234485
1312	1.3120e+000	302.436829	46.228028
1313	1.3130e+000	300.918579	46.271071
1314	1.3140e+000	299.163818	46.193594
1315	1.3150e+000	297.744751	46.182833
1316	1.3160e+000	296.051025	46.137638
1317	1.3170e+000	294.425964	46.131182
1318	1.3180e+000	292.808533	46.094596
1319	1.3190e+000	291.389465	46.081683
1320	1.3200e+000	289.581299	46.060161
1321	1.3210e+000	288.154602	46.040792
1322	1.3220e+000	286.430359	46.012814
1323	1.3230e+000	284.820557	45.984836
1324	1.3240e+000	283.096313	45.999901
1325	1.3250e+000	281.684875	45.986988
1326	1.3260e+000	280.113220	45.939641
1327	1.3270e+000	278.343201	45.911663
1328	1.3280e+000	276.557922	45.896598
1329	1.3290e+000	275.131226	45.855708
1330	1.3300e+000	273.826599	45.823426
1331	1.3310e+000	271.972656	45.832034
1332	1.3320e+000	270.484924	45.782535
1333	1.3330e+000	268.836975	45.797600
1334	1.3340e+000	267.372131	45.735188
1335	1.3350e+000	265.823364	45.745948
1336	1.3360e+000	263.946533	45.659863
1337	1.3370e+000	262.321472	45.674928
1338	1.3380e+000	261.032104	45.621124
1339	1.3390e+000	259.124756	45.582386
1340	1.3400e+000	257.896423	45.649102
1341	1.3410e+000	255.905151	45.541495
1342	1.3420e+000	254.516602	45.560864
1343	1.3430e+000	252.685547	45.567321
1344	1.3440e+000	250.961304	45.524278
1345	1.3450e+000	249.710083	45.457561
1346	1.3460e+000	248.100281	45.494148
1347	1.3470e+000	246.551514	45.416671
1348	1.3480e+000	244.804382	45.369323
1349	1.3490e+000	243.103027	45.388693
1350	1.3500e+000	241.600037	45.360715
1351	1.3510e+000	239.967346	45.356411
1352	1.3520e+000	238.334656	45.395149
1353	1.3530e+000	236.930847	45.313368
1354	1.3540e+000	235.221863	45.266021
1355	1.3550e+000	233.329773	45.246651
1356	1.3560e+000	231.994629	45.214369
1357	1.3570e+000	230.468750	45.175631
1358	1.3580e+000	228.858948	45.106762
1359	1.3590e+000	227.378845	45.141196
1360	1.3600e+000	225.723267	45.143348
1361	1.3610e+000	223.937988	45.070176
1362	1.3620e+000	222.465515	45.087393
1363	1.3630e+000	220.718384	45.063719
1364	1.3640e+000	219.116211	45.024981
1365	1.3650e+000	217.582703	45.014220
1366	1.3660e+000	216.262817	44.932438
1367	1.3670e+000	214.477539	44.994851
1368	1.3680e+000	212.760925	44.902308
1369	1.3690e+000	211.128235	44.915221
1370	1.3700e+000	209.754944	44.820527
1371	1.3710e+000	208.168030	44.850657
1372	1.3720e+000	206.382751	44.818375
1373	1.3730e+000	204.696655	44.796853
1374	1.3740e+000	203.216553	44.755963
1375	1.3750e+000	201.339722	44.727985
1376	1.3760e+000	200.042725	44.712920
1377	1.3770e+000	198.486328	44.663421
1378	1.3780e+000	196.784973	44.641899
1379	1.3790e+000	195.358276	44.568726
1380	1.3800e+000	193.687439	44.628986
1381	1.3810e+000	192.039490	44.566574
1382	1.3820e+000	190.574646	44.525683
1383	1.3830e+000	188.583374	44.504162
1384	1.3840e+000	187.088013	44.517075
1385	1.3850e+000	185.348511	44.426685
1386	1.3860e+000	184.127808	44.424533
1387	1.3870e+000	182.197571	44.467576
1388	1.3880e+000	180.725098	44.390098
1389	1.3890e+000	179.313660	44.370729
1390	1.3900e+000	177.734375	44.342751
1391	1.3910e+000	175.918579	44.286796
1392	1.3920e+000	174.377441	44.291100
1393	1.3930e+000	172.836304	44.263122
1394	1.3940e+000	171.218872	44.207166
1395	1.3950e+000	169.494629	44.196406
1396	1.3960e+000	167.953491	44.198558
1397	1.3970e+000	166.290283	44.123233
1398	1.3980e+000	164.657593	44.086646
1399	1.3990e+000	163.291931	44.097407
1400	1.4000e+000	161.750793	44.045756
1401	1.4010e+000	159.881592	44.034995
1402	1.4020e+000	158.363342	43.979039
1403	1.4030e+000	156.715393	43.918779
1404	1.4040e+000	155.181885	43.927388
1405	1.4050e+000	153.511047	43.942453
1406	1.4060e+000	151.901245	43.852063
1407	1.4070e+000	150.360107	43.862823
1408	1.4080e+000	148.864746	43.785346
1409	1.4090e+000	147.018433	43.781042
1410	1.4100e+000	145.614624	43.761673
1411	1.4110e+000	144.027710	43.697108
1412	1.4120e+000	142.440796	43.714326
1413	1.4130e+000	140.716553	43.634696
1414	1.4140e+000	139.297485	43.690652
1415	1.4150e+000	137.741089	43.598110
1416	1.4160e+000	135.757446	43.580893
1417	1.4170e+000	134.536743	43.574436
1418	1.4180e+000	132.919312	43.518481
1419	1.4190e+000	131.118774	43.438851
1420	1.4200e+000	129.562378	43.460373
1421	1.4210e+000	127.861023	43.438851
1422	1.4220e+000	126.327515	43.369983
1423	1.4230e+000	124.900818	43.374287
1424	1.4240e+000	123.138428	43.318331
1425	1.4250e+000	121.681213	43.281745
1426	1.4260e+000	119.888306	43.255919
1427	1.4270e+000	118.560791	43.238702
1428	1.4280e+000	116.607666	43.204268
1429	1.4290e+000	115.257263	43.131095
1430	1.4300e+000	113.533020	43.150464
1431	1.4310e+000	112.052917	43.075139
1432	1.4320e+000	110.374451	43.066531
1433	1.4330e+000	108.840942	43.029944
1434	1.4340e+000	107.070923	43.019183
1435	1.4350e+000	105.575562	42.913728
1436	1.4360e+000	103.981018	42.862077
1437	1.4370e+000	102.363586	42.881446
1438	1.4380e+000	100.845337	42.808273
1439	1.4390e+000	98.991394	42.765231
1440	1.4400e+000	97.503662	42.726492
1441	1.4410e+000	95.924377	42.711427
1442	1.4420e+000	94.161987	42.618885
1443	1.4430e+000	92.712402	42.629646
1444	1.4440e+000	91.102600	42.565081
1445	1.4450e+000	89.546204	42.513430
1446	1.4460e+000	88.165283	42.498365
1447	1.4470e+000	86.181641	42.433801
1448	1.4480e+000	84.678650	42.453170
1449	1.4490e+000	83.259583	42.334802
1450	1.4500e+000	81.596375	42.289607
1451	1.4510e+000	79.895020	42.265933
1452	1.4520e+000	78.178406	42.194913
1453	1.4530e+000	76.881409	42.166935
1454	1.4540e+000	75.035095	42.100218
1455	1.4550e+000	73.341370	42.046415
1456	1.4560e+000	71.792603	41.968938
1457	1.4570e+000	70.320129	41.953873
1458	1.4580e+000	68.733215	41.846266
1459	1.4590e+000	67.138672	41.835505
1460	1.4600e+000	65.498352	41.747267
1461	1.4610e+000	63.896179	41.691311
1462	1.4620e+000	62.286377	41.618138
1463	1.4630e+000	60.852051	41.516988
1464	1.4640e+000	59.013367	41.514836
1465	1.4650e+000	57.525635	41.407228
1466	1.4660e+000	55.770874	41.379251
1467	1.4670e+000	54.382324	41.247970
1468	1.4680e+000	52.619934	41.185558
1469	1.4690e+000	50.941467	41.103776
1470	1.4700e+000	49.545288	40.978952
1471	1.4710e+000	47.431946	40.886410
1472	1.4720e+000	46.623230	40.791716
1473	1.4730e+000	44.815063	40.722847
1474	1.4740e+000	43.121338	40.600175
1475	1.4750e+000	41.625977	40.533458
1476	1.4760e+000	39.894104	40.359135
1477	1.4770e+000	38.269043	40.236463
1478	1.4780e+000	36.659241	40.064291
1479	1.4790e+000	35.247803	39.930858
1480	1.4800e+000	33.660889	39.825403
1481	1.4810e+000	31.959534	39.620950
1482	1.4820e+000	30.097961	39.519799
1483	1.4830e+000	28.594971	39.298128
1484	1.4840e+000	26.992798	39.132413
1485	1.4850e+000	25.596619	38.966698
1486	1.4860e+000	23.689270	38.757941
1487	1.4870e+000	22.384644	38.531966
1488	1.4880e+000	20.683289	38.336121
1489	1.4890e+000	19.187927	38.101537
1490	1.4900e+000	17.585754	37.920757
1491	1.4910e+000	16.021729	37.707695
1492	1.4920e+000	14.419556	37.397786
1493	1.4930e+000	13.031006	37.214854
1494	1.4940e+000	11.047363	36.902793
1495	1.4950e+000	9.368896	36.668210
1496	1.4960e+000	7.804871	36.390583
1497	1.4970e+000	6.141663	36.065610
1498	1.4980e+000	4.676819	35.772918
1499	1.4990e+000	3.166199	35.490988
1500	1.5000e+000	1.731873	35.200448
1501	1.5010e+000	0.015259	34.849649
1502	1.5020e+000	-1.686096	34.539741
1503	1.5030e+000	-3.036499	34.216919
1504	1.5040e+000	-4.844666	33.795099
1505	1.5050e+000	-6.385803	33.442148
1506	1.5060e+000	-7.995605	33.056914
1507	1.5070e+000	-9.567261	32.648007
1508	1.5080e+000	-11.161804	32.239100
1509	1.5090e+000	-12.664795	31.821584
1510	1.5100e+000	-14.183044	31.384699
1511	1.5110e+000	-15.945435	30.947814
1512	1.5120e+000	-17.692566	30.446365
1513	1.5130e+000	-19.187927	29.959981
1514	1.5140e+000	-20.645142	29.452075
1515	1.5150e+000	-22.483826	28.950626
1516	1.5160e+000	-23.872375	28.358786
1517	1.5170e+000	-25.588989	27.777708
1518	1.5180e+000	-27.053833	27.185868
1519	1.5190e+000	-28.770447	26.561747
1520	1.5200e+000	-30.288696	25.918256
1521	1.5210e+000	-31.982422	25.257548
1522	1.5220e+000	-33.729553	24.581776
1523	1.5230e+000	-35.156250	23.830678
1524	1.5240e+000	-36.598206	23.161361
1525	1.5250e+000	-38.299561	22.399503
1526	1.5260e+000	-40.130615	21.661318
1527	1.5270e+000	-41.770935	20.804765
1528	1.5280e+000	-43.289185	20.045059
1529	1.5290e+000	-44.746399	19.349916
1530	1.5300e+000	-46.302795	18.372844
1531	1.5310e+000	-47.988892	17.546421
1532	1.5320e+000	-49.766541	16.666194
1533	1.5330e+000	-51.445007	15.829011
1534	1.5340e+000	-52.848816	14.976762
1535	1.5350e+000	-54.344177	14.130970
1536	1.5360e+000	-55.984497	13.218461
1537	1.5370e+000	-57.556152	12.340387
1538	1.5380e+000	-59.104919	11.496747
1539	1.5390e+000	-61.080933	10.638042
1540	1.5400e+000	-62.088013	9.809467
1541	1.5410e+000	-64.308167	8.916328
1542	1.5420e+000	-65.597534	8.180295
1543	1.5430e+000	-67.253113	7.409828
1544	1.5440e+000	-68.908691	6.598470
1545	1.5450e+000	-70.449829	5.819394
1546	1.5460e+000	-72.113037	5.046775
1547	1.5470e+000	-73.562622	4.414045
1548	1.5480e+000	-75.378418	3.639274
1549	1.5490e+000	-76.812744	2.948436
1550	1.5500e+000	-78.529358	2.264054
1551	1.5510e+000	-79.956055	1.590434
1552	1.5520e+000	-81.604004	0.964160
1553	1.5530e+000	-83.396912	0.309909
1554	1.5540e+000	-84.884644	-0.275474
1555	1.5550e+000	-86.357117	-0.910356
1556	1.5560e+000	-87.997437	-1.420414
1557	1.5570e+000	-89.530945	-2.044536
1558	1.5580e+000	-91.194153	-2.619158
1559	1.5590e+000	-92.819214	-3.107694
1560	1.5600e+000	-94.512939	-3.658643
1561	1.5610e+000	-95.886230	-4.213896
1562	1.5620e+000	-97.503662	-4.687367
1563	1.5630e+000	-99.273682	-5.197425
1564	1.5640e+000	-100.914001	-5.705331
1565	1.5650e+000	-102.386475	-6.094869
1566	1.5660e+000	-103.965759	-6.647969
1567	1.5670e+000	-105.468750	-7.078398
1568	1.5680e+000	-107.139587	-7.575543
1569	1.5690e+000	-109.153748	-8.059775
1570	1.5700e+000	-110.458374	-8.483747
1571	1.5710e+000	-112.136841	-8.946458
1572	1.5720e+000	-113.632202	-9.344604
1573	1.5730e+000	-115.394592	-9.830989
1574	1.5740e+000	-116.889954	-10.257113
1575	1.5750e+000	-118.606567	-10.668172
1576	1.5760e+000	-119.941711	-11.074927
1577	1.5770e+000	-122.009277	-11.557007
1578	1.5780e+000	-123.306274	-11.922871
1579	1.5790e+000	-124.801636	-12.288736
1580	1.5800e+000	-126.281738	-12.678274
1581	1.5810e+000	-128.044128	-13.179723
1582	1.5820e+000	-129.638672	-13.601543
1583	1.5830e+000	-131.271362	-13.900691
1584	1.5840e+000	-132.904053	-14.337576
1585	1.5850e+000	-134.574890	-14.770156
1586	1.5860e+000	-135.887146	-15.120956
1587	1.5870e+000	-137.672424	-15.525559
1588	1.5880e+000	-139.015198	-15.947379
1589	1.5890e+000	-140.823364	-16.332612
1590	1.5900e+000	-142.402649	-16.803931
1591	1.5910e+000	-144.226074	-17.171948
1592	1.5920e+000	-145.301819	-17.531356
1593	1.5930e+000	-147.193909	-17.983306
1594	1.5940e+000	-148.880005	-18.402974
1595	1.5950e+000	-150.161743	-18.760229
1596	1.5960e+000	-151.947021	-19.283200
1597	1.5970e+000	-153.625488	-19.722237
1598	1.5980e+000	-155.242920	-20.197861
1599	1.5990e+000	-156.799316	-20.707919
1600	1.6000e+000	-158.149719	-21.172781
1601	1.6010e+000	-159.950256	-21.749556
1602	1.6020e+000	-161.773682	-22.255309
1603	1.6030e+000	-163.246155	-22.943995
1604	1.6040e+000	-164.672852	-23.613311
1605	1.6050e+000	-166.511536	-24.299845
1606	1.6060e+000	-168.144226	-25.016508
1607	1.6070e+000	-169.502258	-25.823562
1608	1.6080e+000	-171.287537	-26.641376
1609	1.6090e+000	-173.027039	-27.594776
1610	1.6100e+000	-174.453735	-28.505132
1611	1.6110e+000	-176.109314	-29.529552
1612	1.6120e+000	-177.650452	-30.553972
1613	1.6130e+000	-179.351807	-31.627891
1614	1.6140e+000	-180.824280	-32.630790
1615	1.6150e+000	-182.258606	-33.569124
1616	1.6160e+000	-184.204102	-34.481633
1617	1.6170e+000	-185.668945	-35.301599
1618	1.6180e+000	-187.255859	-36.057001
1619	1.6190e+000	-188.781738	-36.857598
1620	1.6200e+000	-190.406799	-37.240680
1621	1.6210e+000	-192.016602	-37.737825
1622	1.6220e+000	-193.740845	-38.174710
1623	1.6230e+000	-195.236206	-38.521205
1624	1.6240e+000	-196.800232	-38.854787
1625	1.6250e+000	-198.745728	-39.108740
1626	1.6260e+000	-200.012207	-39.354084
1627	1.6270e+000	-201.751709	-39.582211
1628	1.6280e+000	-203.117371	-39.795273
1629	1.6290e+000	-204.803467	-40.010488
1630	1.6300e+000	-206.527710	-40.206333
1631	1.6310e+000	-208.236694	-40.428003
1632	1.6320e+000	-209.762573	-40.572197
1633	1.6330e+000	-211.235046	-40.666891
1634	1.6340e+000	-212.951660	-40.847671
1635	1.6350e+000	-214.454651	-40.985408
1636	1.6360e+000	-216.163635	-41.108081
1637	1.6370e+000	-217.704773	-41.273796
1638	1.6380e+000	-219.306946	-41.381403
1639	1.6390e+000	-220.695496	-41.525596
1640	1.6400e+000	-222.297668	-41.607378
1641	1.6410e+000	-224.044800	-41.714985
1642	1.6420e+000	-225.593567	-41.872091
1643	1.6430e+000	-227.210999	-41.919438
1644	1.6440e+000	-228.706360	-42.050719
1645	1.6450e+000	-230.621338	-42.156174
1646	1.6460e+000	-232.093811	-42.205673
1647	1.6470e+000	-233.650208	-42.321889
1648	1.6480e+000	-235.160828	-42.463931
1649	1.6490e+000	-237.312317	-42.550016
1650	1.6500e+000	-238.243103	-42.636102
1651	1.6510e+000	-240.028381	-42.689906
1652	1.6520e+000	-241.584778	-42.780296
1653	1.6530e+000	-243.225098	-42.851316
1654	1.6540e+000	-244.758606	-42.885751
1655	1.6550e+000	-246.688843	-42.941706
1656	1.6560e+000	-248.130798	-43.019183
1657	1.6570e+000	-249.534607	-43.105269
1658	1.6580e+000	-251.304626	-43.184898
1659	1.6590e+000	-252.769470	-43.275288
1660	1.6600e+000	-254.501343	-43.329092
1661	1.6610e+000	-256.050110	-43.380743
1662	1.6620e+000	-257.682800	-43.428091
1663	1.6630e+000	-259.414673	-43.445308
1664	1.6640e+000	-260.757446	-43.552915
1665	1.6650e+000	-262.710571	-43.567980
1666	1.6660e+000	-264.083862	-43.692804
1667	1.6670e+000	-265.617371	-43.608871
1668	1.6680e+000	-267.112732	-43.765977
1669	1.6690e+000	-268.760681	-43.819781
1670	1.6700e+000	-270.347595	-43.783194
1671	1.6710e+000	-272.010803	-43.940301
1672	1.6720e+000	-273.536682	-44.011321
1673	1.6730e+000	-275.299072	-44.116776
1674	1.6740e+000	-276.741028	-44.060821
1675	1.6750e+000	-278.648376	-44.168428
1676	1.6760e+000	-280.120850	-44.183493
1677	1.6770e+000	-281.738281	-44.243753
1678	1.6780e+000	-283.081055	-44.297556
1679	1.6790e+000	-284.820557	-44.331991
1680	1.6800e+000	-286.445618	-44.415924
1681	1.6810e+000	-288.093567	-44.359968
1682	1.6820e+000	-289.726257	-44.534292
1683	1.6830e+000	-291.145325	-44.502010
1684	1.6840e+000	-292.694092	-44.637595
1685	1.6850e+000	-294.631958	-44.598856
1686	1.6860e+000	-296.173096	-44.667725
1687	1.6870e+000	-297.843933	-44.712920
1688	1.6880e+000	-299.476624	-44.753811
1689	1.6890e+000	-300.979614	-44.781788
1690	1.6900e+000	-302.680969	-44.818375
1691	1.6910e+000	-304.145813	-44.986242
1692	1.6920e+000	-305.404663	-44.928134
1693	1.6930e+000	-307.479858	-44.999155
1694	1.6940e+000	-308.959961	-45.055111
1695	1.6950e+000	-310.600281	-45.061567
1696	1.6960e+000	-311.973572	-45.093849
1697	1.6970e+000	-313.774109	-45.119675
1698	1.6980e+000	-315.414429	-45.177783
1699	1.6990e+000	-316.879272	-45.192848
1700	1.7000e+000	-318.656921	-45.302607
1701	1.7010e+000	-319.938660	-45.311216
1702	1.7020e+000	-321.800232	-45.410214
1703	1.7030e+000	-323.707581	-45.420975
1704	1.7040e+000	-324.928284	-45.446801
1705	1.7050e+000	-326.446533	-45.522126
1706	1.7060e+000	-328.178406	-45.532886
1707	1.7070e+000	-329.689026	-45.590994
1708	1.7080e+000	-331.245422	-45.582386
1709	1.7090e+000	-333.114624	-45.726579
1710	1.7100e+000	-334.449768	-45.696449
1711	1.7110e+000	-336.006165	-45.735188
1712	1.7120e+000	-337.753296	-45.763166
1713	1.7130e+000	-339.485168	-45.812665
1714	1.7140e+000	-340.911865	-45.827730
1715	1.7150e+000	-342.788696	-45.832034
1716	1.7160e+000	-343.955994	-45.909511
1717	1.7170e+000	-345.733643	-45.918120
1718	1.7180e+000	-347.290039	-46.049401
1719	1.7190e+000	-348.785400	-45.969771
1720	1.7200e+000	-350.463867	-46.094596
1721	1.7210e+000	-352.149963	-46.118269
1722	1.7220e+000	-353.492737	-46.191442
1723	1.7230e+000	-355.560303	-46.217268
1724	1.7240e+000	-356.826782	-46.204355
1725	1.7250e+000	-358.413696	-46.294745
1726	1.7260e+000	-360.237122	-46.286136
1727	1.7270e+000	-361.564636	-46.449699
1728	1.7280e+000	-363.281250	-46.359309
1729	1.7290e+000	-364.990234	-46.413113
1730	1.7300e+000	-366.561890	-46.460460
1731	1.7310e+000	-368.080139	-46.488438
1732	1.7320e+000	-369.522095	-46.503503
1733	1.7330e+000	-371.284485	-46.546546
1734	1.7340e+000	-372.840881	-46.604653
1735	1.7350e+000	-374.580383	-46.600349
1736	1.7360e+000	-376.029968	-46.738086
1737	1.7370e+000	-377.754211	-46.695043
1738	1.7380e+000	-379.127502	-46.789738
1739	1.7390e+000	-380.859375	-46.778977
1740	1.7400e+000	-382.743835	-46.830628
1741	1.7410e+000	-384.063721	-46.828476
1742	1.7420e+000	-385.795593	-46.893041
1743	1.7430e+000	-387.260437	-46.929627
1744	1.7440e+000	-389.213562	-46.953301
1745	1.7450e+000	-390.602112	-47.030778
1746	1.7460e+000	-392.173767	-47.045843
1747	1.7470e+000	-393.623352	-47.103951
1748	1.7480e+000	-395.484924	-47.151298
1749	1.7490e+000	-396.797180	-47.177123
1750	1.7500e+000	-398.353577	-47.185732
1751	1.7510e+000	-400.222778	-47.205101
1752	1.7520e+000	-398.765564	-47.243840
1753	1.7530e+000	-396.873474	-47.069516
1754	1.7540e+000	-395.195007	-47.202949
1755	1.7550e+000	-393.775940	-47.179276
1756	1.7560e+000	-391.891479	-47.202949
1757	1.7570e+000	-390.609741	-47.170667
1758	1.7580e+000	-388.969421	-47.142689
1759	1.7590e+000	-387.367249	-47.125472
1760	1.7600e+000	-385.444641	-47.121168
1761	1.7610e+000	-384.216309	-47.125472
1762	1.7620e+000	-382.652283	-47.052299
1763	1.7630e+000	-380.996704	-47.056603
1764	1.7640e+000	-379.112244	-47.028626
1765	1.7650e+000	-377.784729	-47.116863
1766	1.7660e+000	-376.022339	-47.045843
1767	1.7670e+000	-374.549866	-47.056603
1768	1.7680e+000	-372.909546	-47.024321
1769	1.7690e+000	-371.559143	-46.998496
1770	1.7700e+000	-369.674683	-46.985583
1771	1.7710e+000	-368.087769	-46.901649
1772	1.7720e+000	-366.226196	-46.944692
1773	1.7730e+000	-364.883423	-46.897345
1774	1.7740e+000	-363.334656	-46.875823
1775	1.7750e+000	-361.640930	-46.871519
1776	1.7760e+000	-360.176086	-46.867215
1777	1.7770e+000	-358.421326	-46.854302
1778	1.7780e+000	-356.979370	-46.834933
1779	1.7790e+000	-355.331421	-46.781129
1780	1.7800e+000	-353.523254	-46.772521
1781	1.7810e+000	-352.119446	-46.783281
1782	1.7820e+000	-350.593567	-46.697196
1783	1.7830e+000	-349.037170	-46.695043
1784	1.7840e+000	-347.267151	-46.660609
1785	1.7850e+000	-345.909119	-46.684283
1786	1.7860e+000	-344.108582	-46.641240
1787	1.7870e+000	-342.567444	-46.617566
1788	1.7880e+000	-340.934753	-46.639088
1789	1.7890e+000	-339.332581	-46.533633
1790	1.7900e+000	-337.631226	-46.578828
1791	1.7910e+000	-335.815430	-46.509959
1792	1.7920e+000	-334.617615	-46.544393
1793	1.7930e+000	-332.977295	-46.428178
1794	1.7940e+000	-331.489563	-46.501351
1795	1.7950e+000	-329.673767	-46.456156
1796	1.7960e+000	-328.002930	-46.415265
1797	1.7970e+000	-326.683044	-46.417417
1798	1.7980e+000	-324.775696	-46.374374
1799	1.7990e+000	-323.455811	-46.393743
1800	1.8000e+000	-321.624756	-46.342092
1801	1.8010e+000	-320.075989	-46.324875
1802	1.8020e+000	-318.328857	-46.281832
1803	1.8030e+000	-317.054749	-46.260311
1804	1.8040e+000	-315.101624	-46.247398
1805	1.8050e+000	-313.819885	-46.232333
1806	1.8060e+000	-312.049866	-46.169921
1807	1.8070e+000	-310.531616	-46.141943
1808	1.8080e+000	-309.036255	-46.202203
1809	1.8090e+000	-307.212830	-46.116117
1810	1.8100e+000	-305.511475	-46.141943
1811	1.8110e+000	-303.985596	-46.060161
1812	1.8120e+000	-302.574158	-46.051553
1813	1.8130e+000	-300.514221	-46.047248
1814	1.8140e+000	-299.278259	-45.967619
1815	1.8150e+000	-297.912598	-45.982684
1816	1.8160e+000	-296.119690	-45.915968
1817	1.8170e+000	-294.479370	-45.950402
1818	1.8180e+000	-293.151855	-45.903055
1819	1.8190e+000	-291.458130	-45.868621
1820	1.8200e+000	-289.657593	-45.844947
1821	1.8210e+000	-288.261414	-45.812665
1822	1.8220e+000	-286.430359	-45.754557
1823	1.8230e+000	-285.049438	-45.748101
1824	1.8240e+000	-282.951355	-45.748101
1825	1.8250e+000	-281.799316	-45.677080
1826	1.8260e+000	-279.899597	-45.713666
1827	1.8270e+000	-278.549194	-45.670623
1828	1.8280e+000	-276.756287	-45.685688
1829	1.8290e+000	-275.054932	-45.621124
1830	1.8300e+000	-273.643494	-45.634037
1831	1.8310e+000	-272.079468	-45.580233
1832	1.8320e+000	-270.523071	-45.522126
1833	1.8330e+000	-268.943787	-45.530734
1834	1.8340e+000	-267.448425	-45.470474
1835	1.8350e+000	-265.663147	-45.457561
1836	1.8360e+000	-264.442444	-45.489843
1837	1.8370e+000	-262.458801	-45.427431
1838	1.8380e+000	-260.726929	-45.358563
1839	1.8390e+000	-259.445190	-45.330585
1840	1.8400e+000	-257.720947	-45.343498
1841	1.8410e+000	-256.072998	-45.293998
1842	1.8420e+000	-254.478455	-45.240195
1843	1.8430e+000	-252.769470	-45.233738
1844	1.8440e+000	-251.129150	-45.192848
1845	1.8450e+000	-249.679565	-45.173478
1846	1.8460e+000	-248.146057	-45.141196
1847	1.8470e+000	-246.406555	-45.126131
1848	1.8480e+000	-244.644165	-45.130436
1849	1.8490e+000	-243.217468	-45.061567
1850	1.8500e+000	-241.828918	-45.029285
1851	1.8510e+000	-240.058899	-45.003459
1852	1.8520e+000	-238.624573	-44.932438
1853	1.8530e+000	-236.854553	-45.003459
1854	1.8540e+000	-234.985352	-44.889396
1855	1.8550e+000	-233.589172	-44.900156
1856	1.8560e+000	-231.918335	-44.837744
1857	1.8570e+000	-230.453491	-44.846353
1858	1.8580e+000	-228.622437	-44.805462
1859	1.8590e+000	-227.226257	-44.740898
1860	1.8600e+000	-225.746155	-44.777484
1861	1.8610e+000	-224.037170	-44.687094
1862	1.8620e+000	-222.595215	-44.674181
1863	1.8630e+000	-220.695496	-44.631138
1864	1.8640e+000	-219.039917	-44.573031
1865	1.8650e+000	-217.742920	-44.570878
1866	1.8660e+000	-215.888977	-44.534292
1867	1.8670e+000	-214.553833	-44.549357
1868	1.8680e+000	-212.776184	-44.495553
1869	1.8690e+000	-211.120605	-44.456815
1870	1.8700e+000	-209.747314	-44.375033
1871	1.8710e+000	-208.160400	-44.446054
1872	1.8720e+000	-206.390381	-44.394403
1873	1.8730e+000	-205.039978	-44.353512
1874	1.8740e+000	-203.086853	-44.276035
1875	1.8750e+000	-201.545715	-44.273883
1876	1.8760e+000	-200.172424	-44.260970
1877	1.8770e+000	-198.547363	-44.183493
1878	1.8780e+000	-196.868896	-44.194253
1879	1.8790e+000	-195.060730	-44.116776
1880	1.8800e+000	-193.702698	-44.149058
1881	1.8810e+000	-192.047119	-44.037147
1882	1.8820e+000	-190.391541	-44.069429
1883	1.8830e+000	-189.094543	-44.050060
1884	1.8840e+000	-186.973572	-43.963974
1885	1.8850e+000	-185.691833	-43.966126
1886	1.8860e+000	-184.074402	-43.890801
1887	1.8870e+000	-182.189941	-43.871432
1888	1.8880e+000	-180.740356	-43.832693
1889	1.8890e+000	-179.168701	-43.776738
1890	1.8900e+000	-177.558899	-43.753064
1891	1.8910e+000	-176.155090	-43.740151
1892	1.8920e+000	-174.415588	-43.684196
1893	1.8930e+000	-172.889709	-43.651913
1894	1.8940e+000	-171.112061	-43.626088
1895	1.8950e+000	-169.509888	-43.593806
1896	1.8960e+000	-168.159485	-43.529241
1897	1.8970e+000	-166.481018	-43.484046
1898	1.8980e+000	-164.550781	-43.466829
1899	1.8990e+000	-163.162231	-43.380743
1900	1.9000e+000	-161.537170	-43.374287
1901	1.9010e+000	-159.912109	-43.350613
1902	1.9020e+000	-158.279419	-43.286049
1903	1.9030e+000	-156.906128	-43.273136
1904	1.9040e+000	-155.433655	-43.197811
1905	1.9050e+000	-153.541565	-43.187051
1906	1.9060e+000	-152.053833	-43.150464
1907	1.9070e+000	-150.405884	-43.105269
1908	1.9080e+000	-148.498535	-43.019183
1909	1.9090e+000	-147.132874	-43.029944
1910	1.9100e+000	-145.614624	-42.937402
1911	1.9110e+000	-143.775940	-42.926641
1912	1.9120e+000	-142.349243	-42.851316
1913	1.9130e+000	-140.678406	-42.823338
1914	1.9140e+000	-139.106750	-42.741557
1915	1.9150e+000	-137.763977	-42.657623
1916	1.9160e+000	-136.116028	-42.683449
1917	1.9170e+000	-134.277344	-42.590907
1918	1.9180e+000	-132.850647	-42.537103
1919	1.9190e+000	-131.095886	-42.438105
1920	1.9200e+000	-129.577637	-42.433801
1921	1.9210e+000	-127.983093	-42.463931
1922	1.9220e+000	-126.640320	-42.313281
1923	1.9230e+000	-124.908447	-42.319737
1924	1.9240e+000	-123.275757	-42.205673
1925	1.9250e+000	-121.696472	-42.164783
1926	1.9260e+000	-119.873047	-42.078697
1927	1.9270e+000	-118.698120	-42.044263
1928	1.9280e+000	-116.775513	-41.971090
1929	1.9290e+000	-115.303040	-41.928047
1930	1.9300e+000	-113.624573	-41.850570
1931	1.9310e+000	-112.037659	-41.760180
1932	1.9320e+000	-110.412598	-41.680551
1933	1.9330e+000	-108.772278	-41.609530
1934	1.9340e+000	-107.139587	-41.534205
1935	1.9350e+000	-105.613708	-41.439511
1936	1.9360e+000	-104.080200	-41.355577
1937	1.9370e+000	-102.462769	-41.280252
1938	1.9380e+000	-100.814819	-41.151123
1939	1.9390e+000	-99.174500	-41.127450
1940	1.9400e+000	-97.549438	-40.991865
1941	1.9410e+000	-96.008301	-40.920844
1942	1.9420e+000	-94.474792	-40.817541
1943	1.9430e+000	-92.803955	-40.716391
1944	1.9440e+000	-91.102600	-40.514089
1945	1.9450e+000	-89.790344	-40.542067
1946	1.9460e+000	-87.974548	-40.417243
1947	1.9470e+000	-86.257935	-40.266593
1948	1.9480e+000	-84.663391	-40.176203
1949	1.9490e+000	-83.122253	-40.021248
1950	1.9500e+000	-81.527710	-39.924402
1951	1.9510e+000	-80.169678	-39.758687
1952	1.9520e+000	-78.155518	-39.575755
1953	1.9530e+000	-76.866150	-39.534864
1954	1.9540e+000	-75.202942	-39.394975
1955	1.9550e+000	-73.463440	-39.220651
1956	1.9560e+000	-72.052002	-39.070001
1957	1.9570e+000	-70.281982	-38.889221
1958	1.9580e+000	-68.885803	-38.783766
1959	1.9590e+000	-67.047119	-38.568552
1960	1.9600e+000	-65.505981	-38.321056
1961	1.9610e+000	-64.300537	-38.258643
1962	1.9620e+000	-62.309265	-38.036973
1963	1.9630e+000	-60.897827	-37.864801
1964	1.9640e+000	-59.158325	-37.662500
1965	1.9650e+000	-57.777405	-37.451590
1966	1.9660e+000	-56.007385	-37.240680
1967	1.9670e+000	-54.328918	-37.062052
1968	1.9680e+000	-52.795410	-36.840381
1969	1.9690e+000	-51.132202	-36.603646
1970	1.9700e+000	-49.636841	-36.360453
1971	1.9710e+000	-47.973633	-36.108653
1972	1.9720e+000	-46.409607	-35.895591
1973	1.9730e+000	-44.700623	-35.630877
1974	1.9740e+000	-43.251038	-35.338186
1975	1.9750e+000	-41.679382	-35.097146
1976	1.9760e+000	-39.833069	-34.817367
1977	1.9770e+000	-38.223267	-34.591392
1978	1.9780e+000	-36.712646	-34.311613
1979	1.9790e+000	-35.194397	-34.029683
1980	1.9800e+000	-33.500671	-33.736991
1981	1.9810e+000	-31.929016	-33.470126
1982	1.9820e+000	-30.418396	-33.173130
1983	1.9830e+000	-28.976440	-32.843852
1984	1.9840e+000	-27.221680	-32.572682
1985	1.9850e+000	-25.619507	-32.262773
1986	1.9860e+000	-24.055481	-31.972234
1987	1.9870e+000	-22.468567	-31.696760
1988	1.9880e+000	-20.881653	-31.358873
1989	1.9890e+000	-19.264221	-31.057573
1990	1.9900e+000	-17.723083	-30.734752
1991	1.9910e+000	-15.922546	-30.422691
1992	1.9920e+000	-14.328003	-30.132152
1993	1.9930e+000	-12.702942	-29.811483
1994	1.9940e+000	-11.062622	-29.469292
1995	1.9950e+000	-9.666443	-29.127101
1996	1.9960e+000	-7.911682	-28.843018
1997	1.9970e+000	-6.523132	-28.498676
1998	1.9980e+000	-4.661560	-28.143572
1999	1.9990e+000	-3.189087	-27.859489
2000	2.0000e+000	-1.510620	-27.521603
2001	2.0010e+000	0.068665	-27.196629

Center data before PMax,±Pr and ±Vc Calc.

PMax (µC/cm2):	4.72e+001
Pr (µC/cm2):	3.48e+001
-Pr (µC/cm2):	-2.72e+001
Vc:	1.28e+000
-Vc:	-8.42e-001
C (Max-Eff) (nF):	2.32e-001
Vert. (±Pr) Shift (µC/cm2):	3.83e+000
Horiz. Shift (±Vc):	2.18e-001
Offset (µC/cm2):	2.41e+001

A (Loop Area - µC/cm2·Volts):	1.64e+002



Hysteresis Version: 5.12.0 - Radiant Technologies, Inc., 1999 - 11/30/16

