»»»»»»»»»»»»»»»»»»»»»»»»»»»»»»»»»»»» Hysteresis ««««««««««««««««««««««««««««««««««««
»»»  Executed Version:	5.9.3
»»»  Vision Version:	5.9.8 (R)
»»»  Vision Compiled:	3/30/16
»»»  Driver Version:	5.9.8
»»»  Windows Version:	Windows 7
»»»  Processor Information:	x86 (AMD or Intel) - 2 Processors
»»»  Tester Name:	PMF0910-256
»»»  Tester S/N:	PMF0910-256
»»»  Internal Amp Type:	 RTI 100V      
»»»  Internal Amp S/N:	 iAB1-0000     
»»»  Execution Count:	1
»»»»»»»»»»»»»»»»»»»»»»»»»»»»»»»»»»»»»»»»»»««««««««««««««««««««««««««««««««««««««««««

Stored:	11/14/2016 - 15:6:35
Configured:	11/14/16 02:58:19 PM
Executed:	11/14/16 03:05:20 PM

»»»»»»»»»»»»»»»»»»»»»»»»»»»»»»»»»»» Sample Info ««««««««««««««««««««««««««««««««««««
Sample Name:	
Lot Name:	
Wafer Name:	
Die Row/Column:	0/0
Capacitor Number:	0
Sample Area (cm2):	4.91e-006
Sample Thickness (µm):	1.75e-001

Mux Loop Adjustment:	Disabled

Amplifier:	Internal

»»»»»»»»»»»»»»»»»»»»»»»»»»»»»»»»»»» Tester Info «««««««««««««««««««««««««««««««««««
Tester Name:	PMF0910-256
Tester Serial Number:	PMF0910-256
Return Signal Amp. Level:	16.67 [Index: 1]

»»»»»»»»»»»»»»»»»»»»»»»»»»»»»»»» Hysteresis Info ««««««««««««««««««««««««««««««««««
Task Name:	Hyst-1
Volts:	2.50
Field:	142.86 (kV/cm)
Hysteresis Period (ms):	2.00e+000
Preset:	Enabled
Preset Delay (ms):	1.00e+003
Profile:	Double Bipolar

»»»»»»»»»»»»»»»»»»»»»»»»»»»»»»»»»»»»»» Data «««««««««««««««««««««««««««««««««««««««
Points:	2001

Valid Data

Point	Time (ms)	Drive Voltage	Measured Polarization
   1	1.0000e-003	-0.0035	-38.955163
   2	2.0000e-003	0.0058	-38.935696
   3	3.0000e-003	0.0171	-38.906031
   4	4.0000e-003	0.0248	-38.841139
   5	5.0000e-003	0.0361	-38.807765
   6	6.0000e-003	0.0463	-38.796641
   7	7.0000e-003	0.0553	-38.802203
   8	8.0000e-003	0.0684	-38.792006
   9	9.0000e-003	0.0800	-38.745655
  10	1.0000e-002	0.0867	-38.729895
  11	1.1000e-002	0.0961	-38.667784
  12	1.2000e-002	0.1063	-38.630703
  13	1.3000e-002	0.1164	-38.607527
  14	1.4000e-002	0.1270	-38.571373
  15	1.5000e-002	0.1369	-38.546343
  16	1.6000e-002	0.1465	-38.450859
  17	1.7000e-002	0.1559	-38.381332
  18	1.8000e-002	0.1676	-38.371135
  19	1.9000e-002	0.1772	-38.283994
  20	2.0000e-002	0.1887	-38.210759
  21	2.1000e-002	0.1975	-38.113421
  22	2.2000e-002	0.2050	-37.992907
  23	2.3000e-002	0.2146	-37.880736
  24	2.4000e-002	0.2281	-37.783398
  25	2.5000e-002	0.2345	-37.699038
  26	2.6000e-002	0.2483	-37.570181
  27	2.7000e-002	0.2591	-37.432054
  28	2.8000e-002	0.2673	-37.280948
  29	2.9000e-002	0.2765	-37.132623
  30	3.0000e-002	0.2873	-36.982445
  31	3.1000e-002	0.2966	-36.789623
  32	3.2000e-002	0.3059	-36.647787
  33	3.3000e-002	0.3179	-36.478141
  34	3.4000e-002	0.3239	-36.247310
  35	3.5000e-002	0.3364	-36.073956
  36	3.6000e-002	0.3481	-35.914507
  37	3.7000e-002	0.3562	-35.687385
  38	3.8000e-002	0.3677	-35.494563
  39	3.9000e-002	0.3765	-35.246119
  40	4.0000e-002	0.3864	-34.977280
  41	4.1000e-002	0.3970	-34.759428
  42	4.2000e-002	0.4064	-34.528598
  43	4.3000e-002	0.4166	-34.275519
  44	4.4000e-002	0.4272	-34.033564
  45	4.5000e-002	0.4368	-33.754529
  46	4.6000e-002	0.4483	-33.480128
  47	4.7000e-002	0.4580	-33.164011
  48	4.8000e-002	0.4675	-32.876632
  49	4.9000e-002	0.4776	-32.583691
  50	5.0000e-002	0.4877	-32.266647
  51	5.1000e-002	0.4984	-31.931989
  52	5.2000e-002	0.5062	-31.606602
  53	5.3000e-002	0.5166	-31.258966
  54	5.4000e-002	0.5267	-30.943776
  55	5.5000e-002	0.5380	-30.576672
  56	5.6000e-002	0.5468	-30.203079
  57	5.7000e-002	0.5565	-29.814654
  58	5.8000e-002	0.5663	-29.399345
  59	5.9000e-002	0.5776	-28.987744
  60	6.0000e-002	0.5851	-28.559456
  61	6.1000e-002	0.5956	-28.164542
  62	6.2000e-002	0.6103	-27.722349
  63	6.3000e-002	0.6141	-27.276448
  64	6.4000e-002	0.6279	-26.814787
  65	6.5000e-002	0.6352	-26.333659
  66	6.6000e-002	0.6469	-25.868290
  67	6.7000e-002	0.6576	-25.390870
  68	6.8000e-002	0.6666	-24.904180
  69	6.9000e-002	0.6776	-24.400803
  70	7.0000e-002	0.6867	-23.855709
  71	7.1000e-002	0.6967	-23.356968
  72	7.2000e-002	0.7039	-22.837831
  73	7.3000e-002	0.7188	-22.304789
  74	7.4000e-002	0.7272	-21.761550
  75	7.5000e-002	0.7384	-21.185865
  76	7.6000e-002	0.7474	-20.571244
  77	7.7000e-002	0.7559	-20.005757
  78	7.8000e-002	0.7647	-19.430071
  79	7.9000e-002	0.7784	-18.869219
  80	8.0000e-002	0.7869	-18.262014
  81	8.1000e-002	0.7970	-17.630707
  82	8.2000e-002	0.8060	-17.032773
  83	8.3000e-002	0.8161	-16.400539
  84	8.4000e-002	0.8244	-15.755327
  85	8.5000e-002	0.8369	-15.161101
  86	8.6000e-002	0.8495	-14.504764
  87	8.7000e-002	0.8560	-13.869749
  88	8.8000e-002	0.8651	-13.204142
  89	8.9000e-002	0.8755	-12.542243
  90	9.0000e-002	0.8863	-11.903520
  91	9.1000e-002	0.8990	-11.249964
  92	9.2000e-002	0.9048	-10.580649
  93	9.3000e-002	0.9171	-9.923386
  94	9.4000e-002	0.9286	-9.228114
  95	9.5000e-002	0.9367	-8.558798
  96	9.6000e-002	0.9483	-7.924710
  97	9.7000e-002	0.9569	-7.266519
  98	9.8000e-002	0.9674	-6.587007
  99	9.9000e-002	0.9760	-5.932524
 100	1.0000e-001	0.9877	-5.263209
 101	1.0100e-001	0.9966	-4.605018
 102	1.0200e-001	1.0067	-3.948681
 103	1.0300e-001	1.0160	-3.265461
 104	1.0400e-001	1.0255	-2.613759
 105	1.0500e-001	1.0381	-1.970401
 106	1.0600e-001	1.0475	-1.305721
 107	1.0700e-001	1.0572	-0.648457
 108	1.0800e-001	1.0669	0.001391
 109	1.0900e-001	1.0780	0.660508
 110	1.1000e-001	1.0858	1.289961
 111	1.1100e-001	1.0986	1.956495
 112	1.1200e-001	1.1062	2.604489
 113	1.1300e-001	1.1166	3.260826
 114	1.1400e-001	1.1272	3.891206
 115	1.1500e-001	1.1373	4.516950
 116	1.1600e-001	1.1453	5.151038
 117	1.1700e-001	1.1562	5.806448
 118	1.1800e-001	1.1694	6.447026
 119	1.1900e-001	1.1756	7.102435
 120	1.2000e-001	1.1869	7.739304
 121	1.2100e-001	1.1967	8.396568
 122	1.2200e-001	1.2083	9.061248
 123	1.2300e-001	1.2155	9.714804
 124	1.2400e-001	1.2292	10.349819
 125	1.2500e-001	1.2341	11.004302
 126	1.2600e-001	1.2475	11.653222
 127	1.2700e-001	1.2583	12.316975
 128	1.2800e-001	1.2664	12.980728
 129	1.2900e-001	1.2737	13.628722
 130	1.3000e-001	1.2878	14.294329
 131	1.3100e-001	1.2964	14.974768
 132	1.3200e-001	1.3066	15.606075
 133	1.3300e-001	1.3156	16.277245
 134	1.3400e-001	1.3261	16.953976
 135	1.3500e-001	1.3335	17.644613
 136	1.3600e-001	1.3467	18.354717
 137	1.3700e-001	1.3554	19.050916
 138	1.3800e-001	1.3680	19.764729
 139	1.3900e-001	1.3773	20.486885
 140	1.4000e-001	1.3872	21.210895
 141	1.4100e-001	1.3983	21.933978
 142	1.4200e-001	1.4081	22.692288
 143	1.4300e-001	1.4159	23.456160
 144	1.4400e-001	1.4281	24.235791
 145	1.4500e-001	1.4361	25.008007
 146	1.4600e-001	1.4426	25.820085
 147	1.4700e-001	1.4571	26.641433
 148	1.4800e-001	1.4680	27.507278
 149	1.4900e-001	1.4747	28.349948
 150	1.5000e-001	1.4866	29.238969
 151	1.5100e-001	1.4957	30.121501
 152	1.5200e-001	1.5063	31.040187
 153	1.5300e-001	1.5173	31.979267
 154	1.5400e-001	1.5282	32.952648
 155	1.5500e-001	1.5369	33.929737
 156	1.5600e-001	1.5467	34.904045
 157	1.5700e-001	1.5560	35.956223
 158	1.5800e-001	1.5678	36.959269
 159	1.5900e-001	1.5798	38.007739
 160	1.6000e-001	1.5884	39.050647
 161	1.6100e-001	1.5974	40.090774
 162	1.6200e-001	1.6091	41.113287
 163	1.6300e-001	1.6158	42.141363
 164	1.6400e-001	1.6263	43.129576
 165	1.6500e-001	1.6373	44.117790
 166	1.6600e-001	1.6457	45.030913
 167	1.6700e-001	1.6557	45.877291
 168	1.6800e-001	1.6664	46.673609
 169	1.6900e-001	1.6754	47.393911
 170	1.7000e-001	1.6876	48.027072
 171	1.7100e-001	1.6976	48.599049
 172	1.7200e-001	1.7057	49.097791
 173	1.7300e-001	1.7152	49.539984
 174	1.7400e-001	1.7272	49.898744
 175	1.7500e-001	1.7384	50.209299
 176	1.7600e-001	1.7489	50.492043
 177	1.7700e-001	1.7583	50.688573
 178	1.7800e-001	1.7684	50.906425
 179	1.7900e-001	1.7767	51.086269
 180	1.8000e-001	1.7876	51.241083
 181	1.8100e-001	1.7995	51.364378
 182	1.8200e-001	1.8053	51.517338
 183	1.8300e-001	1.8169	51.645268
 184	1.8400e-001	1.8263	51.774125
 185	1.8500e-001	1.8382	51.861266
 186	1.8600e-001	1.8462	51.963239
 187	1.8700e-001	1.8574	52.054088
 188	1.8800e-001	1.8679	52.136593
 189	1.8900e-001	1.8775	52.224661
 190	1.9000e-001	1.8872	52.319218
 191	1.9100e-001	1.8980	52.396161
 192	1.9200e-001	1.9081	52.468470
 193	1.9300e-001	1.9169	52.548194
 194	1.9400e-001	1.9267	52.624211
 195	1.9500e-001	1.9370	52.681687
 196	1.9600e-001	1.9492	52.741943
 197	1.9700e-001	1.9556	52.807763
 198	1.9800e-001	1.9680	52.869873
 199	1.9900e-001	1.9740	52.926422
 200	2.0000e-001	1.9857	52.965357
 201	2.0100e-001	1.9963	53.039520
 202	2.0200e-001	2.0061	53.133150
 203	2.0300e-001	2.0154	53.173939
 204	2.0400e-001	2.0265	53.230488
 205	2.0500e-001	2.0386	53.240685
 206	2.0600e-001	2.0464	53.317629
 207	2.0700e-001	2.0563	53.375104
 208	2.0800e-001	2.0657	53.422383
 209	2.0900e-001	2.0772	53.481713
 210	2.1000e-001	2.0865	53.479859
 211	2.1100e-001	2.0968	53.568854
 212	2.1200e-001	2.1066	53.613351
 213	2.1300e-001	2.1176	53.633746
 214	2.1400e-001	2.1266	53.690294
 215	2.1500e-001	2.1391	53.755186
 216	2.1600e-001	2.1466	53.774654
 217	2.1700e-001	2.1552	53.809881
 218	2.1800e-001	2.1665	53.861795
 219	2.1900e-001	2.1774	53.904438
 220	2.2000e-001	2.1870	54.002703
 221	2.2100e-001	2.1946	54.011047
 222	2.2200e-001	2.2077	54.050909
 223	2.2300e-001	2.2170	54.089844
 224	2.2400e-001	2.2270	54.101895
 225	2.2500e-001	2.2391	54.148247
 226	2.2600e-001	2.2486	54.183474
 227	2.2700e-001	2.2563	54.214993
 228	2.2800e-001	2.2690	54.239096
 229	2.2900e-001	2.2803	54.292863
 230	2.3000e-001	2.2869	54.340142
 231	2.3100e-001	2.2971	54.379077
 232	2.3200e-001	2.3079	54.408742
 233	2.3300e-001	2.3185	54.445823
 234	2.3400e-001	2.3271	54.483832
 235	2.3500e-001	2.3392	54.506080
 236	2.3600e-001	2.3466	54.553359
 237	2.3700e-001	2.3554	54.627521
 238	2.3800e-001	2.3680	54.639572
 239	2.3900e-001	2.3779	54.684070
 240	2.4000e-001	2.3880	54.711881
 241	2.4100e-001	2.3958	54.722078
 242	2.4200e-001	2.4083	54.765648
 243	2.4300e-001	2.4184	54.809219
 244	2.4400e-001	2.4271	54.814781
 245	2.4500e-001	2.4384	54.860205
 246	2.4600e-001	2.4463	54.881527
 247	2.4700e-001	2.4585	54.935295
 248	2.4800e-001	2.4681	54.968668
 249	2.4900e-001	2.4770	54.993698
 250	2.5000e-001	2.4863	55.050246
 251	2.5100e-001	2.4979	55.085474
 252	2.5200e-001	2.4882	55.084547
 253	2.5300e-001	2.4757	55.043757
 254	2.5400e-001	2.4699	55.042830
 255	2.5500e-001	2.4585	55.054882
 256	2.5600e-001	2.4466	55.046538
 257	2.5700e-001	2.4364	55.017800
 258	2.5800e-001	2.4270	54.998333
 259	2.5900e-001	2.4194	54.963106
 260	2.6000e-001	2.4089	54.973303
 261	2.6100e-001	2.3962	54.945492
 262	2.6200e-001	2.3860	54.943638
 263	2.6300e-001	2.3777	54.930660
 264	2.6400e-001	2.3670	54.923243
 265	2.6500e-001	2.3565	54.914900
 266	2.6600e-001	2.3479	54.924170
 267	2.6700e-001	2.3364	54.889870
 268	2.6800e-001	2.3298	54.884308
 269	2.6900e-001	2.3140	54.871330
 270	2.7000e-001	2.3078	54.846300
 271	2.7100e-001	2.2954	54.812000
 272	2.7200e-001	2.2894	54.805511
 273	2.7300e-001	2.2769	54.781408
 274	2.7400e-001	2.2660	54.788824
 275	2.7500e-001	2.2563	54.777700
 276	2.7600e-001	2.2472	54.747108
 277	2.7700e-001	2.2375	54.727640
 278	2.7800e-001	2.2267	54.714662
 279	2.7900e-001	2.2144	54.713735
 280	2.8000e-001	2.2067	54.676654
 281	2.8100e-001	2.1949	54.653478
 282	2.8200e-001	2.1867	54.643281
 283	2.8300e-001	2.1766	54.649770
 284	2.8400e-001	2.1671	54.624740
 285	2.8500e-001	2.1573	54.599710
 286	2.8600e-001	2.1481	54.609908
 287	2.8700e-001	2.1404	54.560775
 288	2.8800e-001	2.1276	54.539453
 289	2.8900e-001	2.1178	54.506080
 290	2.9000e-001	2.1095	54.498664
 291	2.9100e-001	2.0986	54.499591
 292	2.9200e-001	2.0872	54.494029
 293	2.9300e-001	2.0764	54.459729
 294	2.9400e-001	2.0650	54.478269
 295	2.9500e-001	2.0560	54.424502
 296	2.9600e-001	2.0483	54.410596
 297	2.9700e-001	2.0366	54.395764
 298	2.9800e-001	2.0260	54.378150
 299	2.9900e-001	2.0156	54.360537
 300	3.0000e-001	2.0075	54.316039
 301	3.0100e-001	1.9977	54.322528
 302	3.0200e-001	1.9846	54.291936
 303	3.0300e-001	1.9762	54.265980
 304	3.0400e-001	1.9658	54.310477
 305	3.0500e-001	1.9588	54.251147
 306	3.0600e-001	1.9478	54.209431
 307	3.0700e-001	1.9364	54.185328
 308	3.0800e-001	1.9266	54.167715
 309	3.0900e-001	1.9175	54.159371
 310	3.1000e-001	1.9054	54.166788
 311	3.1100e-001	1.8937	54.142685
 312	3.1200e-001	1.8863	54.111166
 313	3.1300e-001	1.8766	54.083355
 314	3.1400e-001	1.8659	54.062033
 315	3.1500e-001	1.8586	54.024025
 316	3.1600e-001	1.8496	54.013828
 317	3.1700e-001	1.8361	53.989725
 318	3.1800e-001	1.8262	53.969330
 319	3.1900e-001	1.8161	53.957279
 320	3.2000e-001	1.8041	53.927614
 321	3.2100e-001	1.7970	53.919271
 322	3.2200e-001	1.7870	53.913708
 323	3.2300e-001	1.7731	53.901657
 324	3.2400e-001	1.7677	53.871992
 325	3.2500e-001	1.7544	53.819152
 326	3.2600e-001	1.7458	53.807100
 327	3.2700e-001	1.7356	53.795976
 328	3.2800e-001	1.7279	53.766311
 329	3.2900e-001	1.7181	53.778362
 330	3.3000e-001	1.7082	53.738500
 331	3.3100e-001	1.6981	53.692148
 332	3.3200e-001	1.6866	53.687513
 333	3.3300e-001	1.6780	53.659702
 334	3.3400e-001	1.6668	53.648578
 335	3.3500e-001	1.6539	53.613351
 336	3.3600e-001	1.6470	53.593883
 337	3.3700e-001	1.6375	53.579051
 338	3.3800e-001	1.6261	53.567000
 339	3.3900e-001	1.6168	53.521575
 340	3.4000e-001	1.6051	53.551240
 341	3.4100e-001	1.5989	53.490983
 342	3.4200e-001	1.5878	53.467807
 343	3.4300e-001	1.5759	53.429799
 344	3.4400e-001	1.5674	53.405696
 345	3.4500e-001	1.5579	53.399207
 346	3.4600e-001	1.5467	53.374177
 347	3.4700e-001	1.5368	53.351929
 348	3.4800e-001	1.5285	53.329680
 349	3.4900e-001	1.5174	53.299088
 350	3.5000e-001	1.5069	53.254591
 351	3.5100e-001	1.4977	53.256445
 352	3.5200e-001	1.4870	53.231415
 353	3.5300e-001	1.4745	53.186917
 354	3.5400e-001	1.4688	53.176720
 355	3.5500e-001	1.4568	53.154471
 356	3.5600e-001	1.4474	53.131296
 357	3.5700e-001	1.4371	53.092361
 358	3.5800e-001	1.4259	53.119244
 359	3.5900e-001	1.4151	53.081236
 360	3.6000e-001	1.4055	53.036739
 361	3.6100e-001	1.3955	52.992241
 362	3.6200e-001	1.3882	52.997804
 363	3.6300e-001	1.3750	52.964430
 364	3.6400e-001	1.3683	52.944963
 365	3.6500e-001	1.3562	52.929203
 366	3.6600e-001	1.3480	52.880998
 367	3.6700e-001	1.3376	52.846698
 368	3.6800e-001	1.3262	52.820741
 369	3.6900e-001	1.3137	52.795711
 370	3.7000e-001	1.3058	52.761411
 371	3.7100e-001	1.2965	52.753068
 372	3.7200e-001	1.2867	52.718768
 373	3.7300e-001	1.2770	52.715060
 374	3.7400e-001	1.2686	52.669635
 375	3.7500e-001	1.2560	52.663146
 376	3.7600e-001	1.2471	52.656657
 377	3.7700e-001	1.2346	52.598254
 378	3.7800e-001	1.2283	52.577859
 379	3.7900e-001	1.2154	52.532435
 380	3.8000e-001	1.2076	52.497208
 381	3.8100e-001	1.1964	52.486083
 382	3.8200e-001	1.1893	52.458272
 383	3.8300e-001	1.1782	52.453637
 384	3.8400e-001	1.1673	52.409140
 385	3.8500e-001	1.1579	52.358153
 386	3.8600e-001	1.1486	52.332196
 387	3.8700e-001	1.1390	52.307167
 388	3.8800e-001	1.1261	52.274721
 389	3.8900e-001	1.1195	52.245983
 390	3.9000e-001	1.1066	52.219099
 391	3.9100e-001	1.0976	52.228369
 392	3.9200e-001	1.0872	52.190361
 393	3.9300e-001	1.0760	52.140301
 394	3.9400e-001	1.0658	52.162550
 395	3.9500e-001	1.0565	52.099512
 396	3.9600e-001	1.0505	52.068920
 397	3.9700e-001	1.0358	51.996612
 398	3.9800e-001	1.0246	51.977144
 399	3.9900e-001	1.0172	51.943771
 400	4.0000e-001	1.0083	51.922449
 401	4.0100e-001	0.9985	51.902055
 402	4.0200e-001	0.9874	51.884441
 403	4.0300e-001	0.9789	51.839017
 404	4.0400e-001	0.9685	51.801936
 405	4.0500e-001	0.9575	51.777833
 406	4.0600e-001	0.9442	51.733336
 407	4.0700e-001	0.9371	51.705525
 408	4.0800e-001	0.9281	51.661027
 409	4.0900e-001	0.9173	51.642487
 410	4.1000e-001	0.9084	51.619311
 411	4.1100e-001	0.8991	51.564616
 412	4.1200e-001	0.8871	51.560908
 413	4.1300e-001	0.8766	51.498797
 414	4.1400e-001	0.8671	51.458008
 415	4.1500e-001	0.8548	51.409802
 416	4.1600e-001	0.8470	51.386627
 417	4.1700e-001	0.8376	51.373648
 418	4.1800e-001	0.8270	51.320807
 419	4.1900e-001	0.8164	51.299486
 420	4.2000e-001	0.8061	51.270748
 421	4.2100e-001	0.7955	51.214199
 422	4.2200e-001	0.7879	51.200294
 423	4.2300e-001	0.7752	51.135402
 424	4.2400e-001	0.7657	51.099247
 425	4.2500e-001	0.7558	51.070510
 426	4.2600e-001	0.7466	51.014888
 427	4.2700e-001	0.7385	51.005617
 428	4.2800e-001	0.7281	50.958339
 429	4.2900e-001	0.7159	50.899936
 430	4.3000e-001	0.7043	50.895301
 431	4.3100e-001	0.6976	50.824847
 432	4.3200e-001	0.6860	50.789620
 433	4.3300e-001	0.6788	50.733071
 434	4.3400e-001	0.6683	50.704333
 435	4.3500e-001	0.6570	50.664471
 436	4.3600e-001	0.6470	50.625535
 437	4.3700e-001	0.6384	50.581038
 438	4.3800e-001	0.6246	50.543957
 439	4.3900e-001	0.6166	50.471649
 440	4.4000e-001	0.6049	50.421589
 441	4.4100e-001	0.5986	50.394705
 442	4.4200e-001	0.5880	50.338156
 443	4.4300e-001	0.5755	50.299221
 444	4.4400e-001	0.5646	50.230621
 445	4.4500e-001	0.5575	50.184269
 446	4.4600e-001	0.5483	50.142553
 447	4.4700e-001	0.5383	50.079515
 448	4.4800e-001	0.5258	50.031310
 449	4.4900e-001	0.5161	49.988666
 450	4.5000e-001	0.5042	49.895036
 451	4.5100e-001	0.4970	49.851466
 452	4.5200e-001	0.4848	49.807896
 453	4.5300e-001	0.4769	49.729098
 454	4.5400e-001	0.4671	49.662352
 455	4.5500e-001	0.4542	49.616928
 456	4.5600e-001	0.4458	49.526079
 457	4.5700e-001	0.4352	49.450062
 458	4.5800e-001	0.4253	49.394440
 459	4.5900e-001	0.4158	49.290613
 460	4.6000e-001	0.4046	49.226648
 461	4.6100e-001	0.3980	49.127456
 462	4.6200e-001	0.3857	49.043096
 463	4.6300e-001	0.3770	48.983766
 464	4.6400e-001	0.3664	48.855836
 465	4.6500e-001	0.3574	48.789090
 466	4.6600e-001	0.3461	48.676920
 467	4.6700e-001	0.3354	48.563822
 468	4.6800e-001	0.3262	48.432184
 469	4.6900e-001	0.3174	48.316305
 470	4.7000e-001	0.3062	48.190229
 471	4.7100e-001	0.2975	48.062299
 472	4.7200e-001	0.2859	47.900996
 473	4.7300e-001	0.2747	47.759161
 474	4.7400e-001	0.2692	47.593222
 475	4.7500e-001	0.2564	47.409671
 476	4.7600e-001	0.2450	47.211286
 477	4.7700e-001	0.2373	47.021245
 478	4.7800e-001	0.2264	46.798758
 479	4.7900e-001	0.2145	46.572563
 480	4.8000e-001	0.2068	46.351930
 481	4.8100e-001	0.1949	46.118319
 482	4.8200e-001	0.1871	45.823523
 483	4.8300e-001	0.1765	45.545415
 484	4.8400e-001	0.1676	45.223736
 485	4.8500e-001	0.1543	44.916889
 486	4.8600e-001	0.1481	44.556274
 487	4.8700e-001	0.1347	44.191952
 488	4.8800e-001	0.1244	43.814651
 489	4.8900e-001	0.1138	43.409539
 490	4.9000e-001	0.1060	42.993303
 491	4.9100e-001	0.0993	42.573359
 492	4.9200e-001	0.0866	42.082033
 493	4.9300e-001	0.0761	41.604613
 494	4.9400e-001	0.0661	41.069717
 495	4.9500e-001	0.0556	40.520916
 496	4.9600e-001	0.0464	39.935033
 497	4.9700e-001	0.0349	39.353786
 498	4.9800e-001	0.0258	38.734530
 499	4.9900e-001	0.0154	38.114348
 500	5.0000e-001	0.0069	37.441324
 501	5.0100e-001	-0.0027	36.736782
 502	5.0200e-001	-0.0129	35.954369
 503	5.0300e-001	-0.0258	35.187716
 504	5.0400e-001	-0.0319	34.376565
 505	5.0500e-001	-0.0410	33.537604
 506	5.0600e-001	-0.0529	32.693080
 507	5.0700e-001	-0.0617	31.784591
 508	5.0800e-001	-0.0733	30.817700
 509	5.0900e-001	-0.0829	29.880473
 510	5.1000e-001	-0.0934	28.852397
 511	5.1100e-001	-0.1032	27.791876
 512	5.1200e-001	-0.1134	26.747114
 513	5.1300e-001	-0.1219	25.641168
 514	5.1400e-001	-0.1328	24.516681
 515	5.1500e-001	-0.1416	23.359749
 516	5.1600e-001	-0.1505	22.184275
 517	5.1700e-001	-0.1622	20.991189
 518	5.1800e-001	-0.1722	19.749896
 519	5.1900e-001	-0.1817	18.548466
 520	5.2000e-001	-0.1922	17.317371
 521	5.2100e-001	-0.2035	16.053830
 522	5.2200e-001	-0.2120	14.780092
 523	5.2300e-001	-0.2222	13.518405
 524	5.2400e-001	-0.2316	12.264135
 525	5.2500e-001	-0.2408	11.001521
 526	5.2600e-001	-0.2543	9.782477
 527	5.2700e-001	-0.2622	8.534696
 528	5.2800e-001	-0.2708	7.323995
 529	5.2900e-001	-0.2814	6.122565
 530	5.3000e-001	-0.2934	4.920208
 531	5.3100e-001	-0.3014	3.768838
 532	5.3200e-001	-0.3135	2.617467
 533	5.3300e-001	-0.3245	1.473513
 534	5.3400e-001	-0.3322	0.377764
 535	5.3500e-001	-0.3428	-0.663289
 536	5.3600e-001	-0.3535	-1.729373
 537	5.3700e-001	-0.3616	-2.744470
 538	5.3800e-001	-0.3732	-3.733611
 539	5.3900e-001	-0.3816	-4.693086
 540	5.4000e-001	-0.3915	-5.671102
 541	5.4100e-001	-0.4041	-6.598131
 542	5.4200e-001	-0.4132	-7.460269
 543	5.4300e-001	-0.4249	-8.365049
 544	5.4400e-001	-0.4339	-9.170638
 545	5.4500e-001	-0.4456	-9.998475
 546	5.4600e-001	-0.4540	-10.822604
 547	5.4700e-001	-0.4649	-11.610579
 548	5.4800e-001	-0.4723	-12.381867
 549	5.4900e-001	-0.4849	-13.137396
 550	5.5000e-001	-0.4939	-13.859552
 551	5.5100e-001	-0.5043	-14.597467
 552	5.5200e-001	-0.5142	-15.289031
 553	5.5300e-001	-0.5231	-15.947222
 554	5.5400e-001	-0.5335	-16.587799
 555	5.5500e-001	-0.5412	-17.257115
 556	5.5600e-001	-0.5539	-17.880078
 557	5.5700e-001	-0.5626	-18.507677
 558	5.5800e-001	-0.5701	-19.118589
 559	5.5900e-001	-0.5845	-19.725794
 560	5.6000e-001	-0.5936	-20.285719
 561	5.6100e-001	-0.6015	-20.882726
 562	5.6200e-001	-0.6129	-21.448214
 563	5.6300e-001	-0.6229	-21.983110
 564	5.6400e-001	-0.6346	-22.552306
 565	5.6500e-001	-0.6444	-23.110378
 566	5.6600e-001	-0.6509	-23.639712
 567	5.6700e-001	-0.6633	-24.176462
 568	5.6800e-001	-0.6730	-24.691890
 569	5.6900e-001	-0.6825	-25.226786
 570	5.7000e-001	-0.6932	-25.712549
 571	5.7100e-001	-0.7050	-26.203875
 572	5.7200e-001	-0.7136	-26.685003
 573	5.7300e-001	-0.7226	-27.179110
 574	5.7400e-001	-0.7339	-27.661165
 575	5.7500e-001	-0.7471	-28.111701
 576	5.7600e-001	-0.7543	-28.590048
 577	5.7700e-001	-0.7615	-29.066541
 578	5.7800e-001	-0.7713	-29.492048
 579	5.7900e-001	-0.7838	-29.967614
 580	5.8000e-001	-0.7953	-30.388485
 581	5.8100e-001	-0.8036	-30.820481
 582	5.8200e-001	-0.8121	-31.273798
 583	5.8300e-001	-0.8239	-31.677983
 584	5.8400e-001	-0.8323	-32.108125
 585	5.8500e-001	-0.8459	-32.510455
 586	5.8600e-001	-0.8543	-32.915567
 587	5.8700e-001	-0.8636	-33.338292
 588	5.8800e-001	-0.8723	-33.703542
 589	5.8900e-001	-0.8835	-34.097529
 590	5.9000e-001	-0.8935	-34.466487
 591	5.9100e-001	-0.9018	-34.852131
 592	5.9200e-001	-0.9133	-35.218308
 593	5.9300e-001	-0.9242	-35.586339
 594	5.9400e-001	-0.9345	-35.943245
 595	5.9500e-001	-0.9424	-36.317765
 596	5.9600e-001	-0.9564	-36.645933
 597	5.9700e-001	-0.9592	-36.998204
 598	5.9800e-001	-0.9740	-37.311540
 599	5.9900e-001	-0.9843	-37.633219
 600	6.0000e-001	-0.9938	-37.968804
 601	6.0100e-001	-1.0025	-38.293264
 602	6.0200e-001	-1.0155	-38.592695
 603	6.0300e-001	-1.0227	-38.911593
 604	6.0400e-001	-1.0339	-39.226783
 605	6.0500e-001	-1.0451	-39.497475
 606	6.0600e-001	-1.0540	-39.793198
 607	6.0700e-001	-1.0629	-40.034225
 608	6.0800e-001	-1.0735	-40.325313
 609	6.0900e-001	-1.0836	-40.607129
 610	6.1000e-001	-1.0923	-40.888946
 611	6.1100e-001	-1.1044	-41.133682
 612	6.1200e-001	-1.1137	-41.394177
 613	6.1300e-001	-1.1239	-41.655600
 614	6.1400e-001	-1.1344	-41.892919
 615	6.1500e-001	-1.1454	-42.131166
 616	6.1600e-001	-1.1518	-42.348091
 617	6.1700e-001	-1.1637	-42.580775
 618	6.1800e-001	-1.1706	-42.796773
 619	6.1900e-001	-1.1853	-43.016479
 620	6.2000e-001	-1.1948	-43.238039
 621	6.2100e-001	-1.2048	-43.431788
 622	6.2200e-001	-1.2124	-43.642223
 623	6.2300e-001	-1.2236	-43.849878
 624	6.2400e-001	-1.2347	-44.036211
 625	6.2500e-001	-1.2446	-44.214201
 626	6.2600e-001	-1.2531	-44.395898
 627	6.2700e-001	-1.2619	-44.571107
 628	6.2800e-001	-1.2713	-44.778761
 629	6.2900e-001	-1.2832	-44.937283
 630	6.3000e-001	-1.2939	-45.125470
 631	6.3100e-001	-1.3027	-45.317365
 632	6.3200e-001	-1.3126	-45.467544
 633	6.3300e-001	-1.3229	-45.651096
 634	6.3400e-001	-1.3312	-45.794786
 635	6.3500e-001	-1.3430	-45.931059
 636	6.3600e-001	-1.3536	-46.096997
 637	6.3700e-001	-1.3649	-46.262935
 638	6.3800e-001	-1.3722	-46.410333
 639	6.3900e-001	-1.3849	-46.585542
 640	6.4000e-001	-1.3934	-46.720888
 641	6.4100e-001	-1.4052	-46.866431
 642	6.4200e-001	-1.4116	-47.004559
 643	6.4300e-001	-1.4230	-47.108386
 644	6.4400e-001	-1.4341	-47.269689
 645	6.4500e-001	-1.4452	-47.416160
 646	6.4600e-001	-1.4536	-47.537601
 647	6.4700e-001	-1.4610	-47.655333
 648	6.4800e-001	-1.4734	-47.801804
 649	6.4900e-001	-1.4838	-47.939931
 650	6.5000e-001	-1.4917	-48.074351
 651	6.5100e-001	-1.5050	-48.171689
 652	6.5200e-001	-1.5104	-48.295911
 653	6.5300e-001	-1.5256	-48.401592
 654	6.5400e-001	-1.5350	-48.520252
 655	6.5500e-001	-1.5431	-48.654671
 656	6.5600e-001	-1.5545	-48.775185
 657	6.5700e-001	-1.5625	-48.870669
 658	6.5800e-001	-1.5733	-49.001380
 659	6.5900e-001	-1.5827	-49.087594
 660	6.6000e-001	-1.5941	-49.195129
 661	6.6100e-001	-1.5997	-49.306373
 662	6.6200e-001	-1.6126	-49.397222
 663	6.6300e-001	-1.6223	-49.501976
 664	6.6400e-001	-1.6322	-49.611365
 665	6.6500e-001	-1.6456	-49.692944
 666	6.6600e-001	-1.6534	-49.787501
 667	6.6700e-001	-1.6621	-49.922847
 668	6.6800e-001	-1.6767	-49.997010
 669	6.6900e-001	-1.6839	-50.107326
 670	6.7000e-001	-1.6928	-50.156459
 671	6.7100e-001	-1.7025	-50.242672
 672	6.7200e-001	-1.7126	-50.327032
 673	6.7300e-001	-1.7205	-50.412319
 674	6.7400e-001	-1.7314	-50.521708
 675	6.7500e-001	-1.7422	-50.596798
 676	6.7600e-001	-1.7533	-50.681157
 677	6.7700e-001	-1.7630	-50.771079
 678	6.7800e-001	-1.7731	-50.837825
 679	6.7900e-001	-1.7816	-50.916623
 680	6.8000e-001	-1.7929	-51.000055
 681	6.8100e-001	-1.8043	-51.068655
 682	6.8200e-001	-1.8125	-51.157650
 683	6.8300e-001	-1.8270	-51.232740
 684	6.8400e-001	-1.8314	-51.286507
 685	6.8500e-001	-1.8435	-51.401459
 686	6.8600e-001	-1.8520	-51.446883
 687	6.8700e-001	-1.8630	-51.520119
 688	6.8800e-001	-1.8713	-51.595208
 689	6.8900e-001	-1.8848	-51.630435
 690	6.9000e-001	-1.8932	-51.710160
 691	6.9100e-001	-1.9037	-51.800082
 692	6.9200e-001	-1.9137	-51.873317
 693	6.9300e-001	-1.9237	-51.940990
 694	6.9400e-001	-1.9331	-52.021642
 695	6.9500e-001	-1.9436	-52.079117
 696	6.9600e-001	-1.9550	-52.137520
 697	6.9700e-001	-1.9623	-52.197777
 698	6.9800e-001	-1.9760	-52.257107
 699	6.9900e-001	-1.9854	-52.335905
 700	7.0000e-001	-1.9933	-52.396161
 701	7.0100e-001	-2.0028	-52.441586
 702	7.0200e-001	-2.0122	-52.512040
 703	7.0300e-001	-2.0219	-52.594546
 704	7.0400e-001	-2.0324	-52.664073
 705	7.0500e-001	-2.0438	-52.703008
 706	7.0600e-001	-2.0539	-52.754922
 707	7.0700e-001	-2.0635	-52.813325
 708	7.0800e-001	-2.0732	-52.880071
 709	7.0900e-001	-2.0850	-52.946817
 710	7.1000e-001	-2.0912	-53.013563
 711	7.1100e-001	-2.1017	-53.057133
 712	7.1200e-001	-2.1148	-53.135004
 713	7.1300e-001	-2.1237	-53.215655
 714	7.1400e-001	-2.1327	-53.244393
 715	7.1500e-001	-2.1423	-53.300015
 716	7.1600e-001	-2.1535	-53.353783
 717	7.1700e-001	-2.1658	-53.404769
 718	7.1800e-001	-2.1758	-53.471516
 719	7.1900e-001	-2.1827	-53.510451
 720	7.2000e-001	-2.1921	-53.573489
 721	7.2100e-001	-2.2045	-53.673608
 722	7.2200e-001	-2.2132	-53.708835
 723	7.2300e-001	-2.2243	-53.757041
 724	7.2400e-001	-2.2364	-53.813589
 725	7.2500e-001	-2.2425	-53.829349
 726	7.2600e-001	-2.2537	-53.911854
 727	7.2700e-001	-2.2647	-53.958206
 728	7.2800e-001	-2.2726	-54.024952
 729	7.2900e-001	-2.2849	-54.087990
 730	7.3000e-001	-2.2929	-54.141758
 731	7.3100e-001	-2.3023	-54.188109
 732	7.3200e-001	-2.3138	-54.231680
 733	7.3300e-001	-2.3247	-54.263199
 734	7.3400e-001	-2.3324	-54.318820
 735	7.3500e-001	-2.3424	-54.375369
 736	7.3600e-001	-2.3521	-54.442115
 737	7.3700e-001	-2.3629	-54.468072
 738	7.3800e-001	-2.3730	-54.551505
 739	7.3900e-001	-2.3841	-54.626594
 740	7.4000e-001	-2.3939	-54.668310
 741	7.4100e-001	-2.4046	-54.716516
 742	7.4200e-001	-2.4162	-54.752670
 743	7.4300e-001	-2.4245	-54.791605
 744	7.4400e-001	-2.4337	-54.815708
 745	7.4500e-001	-2.4445	-54.902849
 746	7.4600e-001	-2.4522	-54.956616
 747	7.4700e-001	-2.4662	-54.992771
 748	7.4800e-001	-2.4736	-55.061371
 749	7.4900e-001	-2.4812	-55.098452
 750	7.5000e-001	-2.4944	-55.131825
 751	7.5100e-001	-2.5023	-55.180031
 752	7.5200e-001	-2.4940	-55.183739
 753	7.5300e-001	-2.4837	-55.180958
 754	7.5400e-001	-2.4727	-55.198571
 755	7.5500e-001	-2.4637	-55.166125
 756	7.5600e-001	-2.4526	-55.201352
 757	7.5700e-001	-2.4450	-55.212477
 758	7.5800e-001	-2.4320	-55.179104
 759	7.5900e-001	-2.4238	-55.170760
 760	7.6000e-001	-2.4149	-55.133679
 761	7.6100e-001	-2.4043	-55.111430
 762	7.6200e-001	-2.3943	-55.106795
 763	7.6300e-001	-2.3840	-55.074349
 764	7.6400e-001	-2.3740	-55.081765
 765	7.6500e-001	-2.3627	-55.045611
 766	7.6600e-001	-2.3537	-55.024290
 767	7.6700e-001	-2.3440	-55.040049
 768	7.6800e-001	-2.3325	-55.002041
 769	7.6900e-001	-2.3243	-54.977938
 770	7.7000e-001	-2.3150	-54.968668
 771	7.7100e-001	-2.3027	-54.944565
 772	7.7200e-001	-2.2945	-54.940857
 773	7.7300e-001	-2.2844	-54.910265
 774	7.7400e-001	-2.2747	-54.912119
 775	7.7500e-001	-2.2649	-54.938076
 776	7.7600e-001	-2.2513	-54.883381
 777	7.7700e-001	-2.2430	-54.842592
 778	7.7800e-001	-2.2314	-54.825905
 779	7.7900e-001	-2.2227	-54.802730
 780	7.8000e-001	-2.2141	-54.765648
 781	7.8100e-001	-2.2057	-54.755451
 782	7.8200e-001	-2.1926	-54.731348
 783	7.8300e-001	-2.1830	-54.713735
 784	7.8400e-001	-2.1737	-54.711881
 785	7.8500e-001	-2.1635	-54.684997
 786	7.8600e-001	-2.1521	-54.683143
 787	7.8700e-001	-2.1418	-54.648843
 788	7.8800e-001	-2.1320	-54.620105
 789	7.8900e-001	-2.1239	-54.603418
 790	7.9000e-001	-2.1132	-54.584878
 791	7.9100e-001	-2.1033	-54.537599
 792	7.9200e-001	-2.0934	-54.554286
 793	7.9300e-001	-2.0847	-54.535745
 794	7.9400e-001	-2.0744	-54.496810
 795	7.9500e-001	-2.0649	-54.468072
 796	7.9600e-001	-2.0545	-54.418939
 797	7.9700e-001	-2.0433	-54.409669
 798	7.9800e-001	-2.0338	-54.392056
 799	7.9900e-001	-2.0258	-54.349412
 800	8.0000e-001	-2.0129	-54.354974
 801	8.0100e-001	-2.0031	-54.323455
 802	8.0200e-001	-1.9946	-54.297499
 803	8.0300e-001	-1.9834	-54.296572
 804	8.0400e-001	-1.9745	-54.247439
 805	8.0500e-001	-1.9619	-54.226117
 806	8.0600e-001	-1.9545	-54.208504
 807	8.0700e-001	-1.9434	-54.169569
 808	8.0800e-001	-1.9348	-54.159371
 809	8.0900e-001	-1.9247	-54.118582
 810	8.1000e-001	-1.9135	-54.111166
 811	8.1100e-001	-1.9024	-54.104677
 812	8.1200e-001	-1.8936	-54.045347
 813	8.1300e-001	-1.8842	-54.037930
 814	8.1400e-001	-1.8747	-53.995287
 815	8.1500e-001	-1.8665	-53.939665
 816	8.1600e-001	-1.8518	-53.937811
 817	8.1700e-001	-1.8439	-53.909073
 818	8.1800e-001	-1.8322	-53.877554
 819	8.1900e-001	-1.8211	-53.859941
 820	8.2000e-001	-1.8137	-53.836765
 821	8.2100e-001	-1.8038	-53.793195
 822	8.2200e-001	-1.7939	-53.779289
 823	8.2300e-001	-1.7826	-53.732938
 824	8.2400e-001	-1.7733	-53.714397
 825	8.2500e-001	-1.7643	-53.688440
 826	8.2600e-001	-1.7531	-53.667119
 827	8.2700e-001	-1.7423	-53.634673
 828	8.2800e-001	-1.7339	-53.631892
 829	8.2900e-001	-1.7243	-53.585540
 830	8.3000e-001	-1.7131	-53.553094
 831	8.3100e-001	-1.7011	-53.497472
 832	8.3200e-001	-1.6916	-53.468734
 833	8.3300e-001	-1.6824	-53.446486
 834	8.3400e-001	-1.6746	-53.399207
 835	8.3500e-001	-1.6605	-53.372323
 836	8.3600e-001	-1.6522	-53.363053
 837	8.3700e-001	-1.6420	-53.327826
 838	8.3800e-001	-1.6322	-53.284256
 839	8.3900e-001	-1.6231	-53.251810
 840	8.4000e-001	-1.6116	-53.234196
 841	8.4100e-001	-1.6026	-53.192480
 842	8.4200e-001	-1.5942	-53.142420
 843	8.4300e-001	-1.5833	-53.122025
 844	8.4400e-001	-1.5750	-53.091433
 845	8.4500e-001	-1.5645	-53.044155
 846	8.4600e-001	-1.5523	-53.053425
 847	8.4700e-001	-1.5408	-53.021906
 848	8.4800e-001	-1.5325	-52.957941
 849	8.4900e-001	-1.5236	-52.928276
 850	8.5000e-001	-1.5132	-52.880998
 851	8.5100e-001	-1.5026	-52.848552
 852	8.5200e-001	-1.4906	-52.804981
 853	8.5300e-001	-1.4833	-52.777171
 854	8.5400e-001	-1.4713	-52.752141
 855	8.5500e-001	-1.4632	-52.712278
 856	8.5600e-001	-1.4521	-52.675197
 857	8.5700e-001	-1.4433	-52.657584
 858	8.5800e-001	-1.4323	-52.607524
 859	8.5900e-001	-1.4224	-52.548194
 860	8.6000e-001	-1.4115	-52.515748
 861	8.6100e-001	-1.4023	-52.467543
 862	8.6200e-001	-1.3903	-52.437878
 863	8.6300e-001	-1.3823	-52.413775
 864	8.6400e-001	-1.3738	-52.388745
 865	8.6500e-001	-1.3616	-52.349810
 866	8.6600e-001	-1.3518	-52.313656
 867	8.6700e-001	-1.3448	-52.264523
 868	8.6800e-001	-1.3327	-52.207047
 869	8.6900e-001	-1.3248	-52.168112
 870	8.7000e-001	-1.3123	-52.124542
 871	8.7100e-001	-1.2992	-52.099512
 872	8.7200e-001	-1.2940	-52.067993
 873	8.7300e-001	-1.2837	-52.008663
 874	8.7400e-001	-1.2714	-51.979925
 875	8.7500e-001	-1.2622	-51.961385
 876	8.7600e-001	-1.2505	-51.901128
 877	8.7700e-001	-1.2433	-51.846433
 878	8.7800e-001	-1.2332	-51.795446
 879	8.7900e-001	-1.2231	-51.780614
 880	8.8000e-001	-1.2111	-51.727773
 881	8.8100e-001	-1.2032	-51.682349
 882	8.8200e-001	-1.1933	-51.674933
 883	8.8300e-001	-1.1817	-51.614676
 884	8.8400e-001	-1.1747	-51.572959
 885	8.8500e-001	-1.1637	-51.536805
 886	8.8600e-001	-1.1509	-51.455227
 887	8.8700e-001	-1.1430	-51.413510
 888	8.8800e-001	-1.1337	-51.367159
 889	8.8900e-001	-1.1205	-51.315245
 890	8.9000e-001	-1.1106	-51.296705
 891	8.9100e-001	-1.0990	-51.223469
 892	8.9200e-001	-1.0948	-51.184534
 893	8.9300e-001	-1.0841	-51.168775
 894	8.9400e-001	-1.0748	-51.099247
 895	8.9500e-001	-1.0647	-51.045480
 896	8.9600e-001	-1.0528	-51.000055
 897	8.9700e-001	-1.0431	-50.951850
 898	8.9800e-001	-1.0326	-50.920331
 899	8.9900e-001	-1.0239	-50.872125
 900	9.0000e-001	-1.0120	-50.813722
 901	9.0100e-001	-1.0036	-50.788693
 902	9.0200e-001	-0.9943	-50.739560
 903	9.0300e-001	-0.9824	-50.683938
 904	9.0400e-001	-0.9732	-50.606995
 905	9.0500e-001	-0.9642	-50.538395
 906	9.0600e-001	-0.9527	-50.485554
 907	9.0700e-001	-0.9433	-50.433640
 908	9.0800e-001	-0.9335	-50.404902
 909	9.0900e-001	-0.9209	-50.340937
 910	9.1000e-001	-0.9127	-50.297367
 911	9.1100e-001	-0.9023	-50.257505
 912	9.1200e-001	-0.8933	-50.205591
 913	9.1300e-001	-0.8829	-50.124013
 914	9.1400e-001	-0.8728	-50.085077
 915	9.1500e-001	-0.8642	-50.034091
 916	9.1600e-001	-0.8541	-49.967345
 917	9.1700e-001	-0.8427	-49.928409
 918	9.1800e-001	-0.8310	-49.871861
 919	9.1900e-001	-0.8245	-49.793063
 920	9.2000e-001	-0.8139	-49.760617
 921	9.2100e-001	-0.8022	-49.696652
 922	9.2200e-001	-0.7969	-49.625271
 923	9.2300e-001	-0.7847	-49.558525
 924	9.2400e-001	-0.7736	-49.488070
 925	9.2500e-001	-0.7651	-49.447281
 926	9.2600e-001	-0.7521	-49.394440
 927	9.2700e-001	-0.7423	-49.307300
 928	9.2800e-001	-0.7341	-49.270219
 929	9.2900e-001	-0.7215	-49.210889
 930	9.3000e-001	-0.7122	-49.135799
 931	9.3100e-001	-0.7050	-49.077396
 932	9.3200e-001	-0.6923	-48.983766
 933	9.3300e-001	-0.6822	-48.953175
 934	9.3400e-001	-0.6731	-48.861399
 935	9.3500e-001	-0.6618	-48.805777
 936	9.3600e-001	-0.6542	-48.737177
 937	9.3700e-001	-0.6434	-48.677847
 938	9.3800e-001	-0.6326	-48.589779
 939	9.3900e-001	-0.6207	-48.548063
 940	9.4000e-001	-0.6137	-48.454433
 941	9.4100e-001	-0.6029	-48.368219
 942	9.4200e-001	-0.5931	-48.289422
 943	9.4300e-001	-0.5836	-48.219894
 944	9.4400e-001	-0.5727	-48.144805
 945	9.4500e-001	-0.5627	-48.091964
 946	9.4600e-001	-0.5518	-48.008532
 947	9.4700e-001	-0.5416	-47.929734
 948	9.4800e-001	-0.5341	-47.851864
 949	9.4900e-001	-0.5241	-47.739693
 950	9.5000e-001	-0.5139	-47.680363
 951	9.5100e-001	-0.5027	-47.585806
 952	9.5200e-001	-0.4916	-47.504228
 953	9.5300e-001	-0.4817	-47.427284
 954	9.5400e-001	-0.4700	-47.319749
 955	9.5500e-001	-0.4652	-47.244659
 956	9.5600e-001	-0.4535	-47.150102
 957	9.5700e-001	-0.4433	-47.058327
 958	9.5800e-001	-0.4330	-46.948010
 959	9.5900e-001	-0.4235	-46.864577
 960	9.6000e-001	-0.4137	-46.748699
 961	9.6100e-001	-0.4034	-46.654142
 962	9.6200e-001	-0.3948	-46.575344
 963	9.6300e-001	-0.3825	-46.462247
 964	9.6400e-001	-0.3715	-46.379741
 965	9.6500e-001	-0.3625	-46.257373
 966	9.6600e-001	-0.3535	-46.147057
 967	9.6700e-001	-0.3440	-46.030251
 968	9.6800e-001	-0.3335	-45.898613
 969	9.6900e-001	-0.3252	-45.817961
 970	9.7000e-001	-0.3139	-45.694666
 971	9.7100e-001	-0.3030	-45.596401
 972	9.7200e-001	-0.2929	-45.478669
 973	9.7300e-001	-0.2835	-45.362790
 974	9.7400e-001	-0.2716	-45.239495
 975	9.7500e-001	-0.2611	-45.132887
 976	9.7600e-001	-0.2538	-44.972511
 977	9.7700e-001	-0.2426	-44.839018
 978	9.7800e-001	-0.2333	-44.734264
 979	9.7900e-001	-0.2242	-44.587793
 980	9.8000e-001	-0.2115	-44.482112
 981	9.8100e-001	-0.2027	-44.345839
 982	9.8200e-001	-0.1942	-44.212347
 983	9.8300e-001	-0.1835	-44.091833
 984	9.8400e-001	-0.1735	-43.956486
 985	9.8500e-001	-0.1670	-43.801673
 986	9.8600e-001	-0.1519	-43.647786
 987	9.8700e-001	-0.1443	-43.493899
 988	9.8800e-001	-0.1345	-43.390071
 989	9.8900e-001	-0.1241	-43.240820
 990	9.9000e-001	-0.1129	-43.098984
 991	9.9100e-001	-0.1037	-42.983106
 992	9.9200e-001	-0.0932	-42.839416
 993	9.9300e-001	-0.0830	-42.691091
 994	9.9400e-001	-0.0714	-42.518664
 995	9.9500e-001	-0.0631	-42.341601
 996	9.9600e-001	-0.0533	-42.185860
 997	9.9700e-001	-0.0429	-42.064420
 998	9.9800e-001	-0.0308	-41.906825
 999	9.9900e-001	-0.0235	-41.748303
1000	1.0000e+000	-0.0130	-41.596270
1001	1.0010e+000	-0.0030	-41.432186
1002	1.0020e+000	0.0053	-41.282007
1003	1.0030e+000	0.0173	-41.117923
1004	1.0040e+000	0.0272	-40.954765
1005	1.0050e+000	0.0388	-40.790681
1006	1.0060e+000	0.0494	-40.648846
1007	1.0070e+000	0.0559	-40.484762
1008	1.0080e+000	0.0661	-40.324385
1009	1.0090e+000	0.0778	-40.168645
1010	1.0100e+000	0.0877	-39.996217
1011	1.0110e+000	0.0964	-39.836768
1012	1.0120e+000	0.1067	-39.655070
1013	1.0130e+000	0.1155	-39.482643
1014	1.0140e+000	0.1279	-39.301872
1015	1.0150e+000	0.1357	-39.133153
1016	1.0160e+000	0.1440	-39.006150
1017	1.0170e+000	0.1554	-38.820744
1018	1.0180e+000	0.1647	-38.683544
1019	1.0190e+000	0.1759	-38.519459
1020	1.0200e+000	0.1878	-38.341470
1021	1.0210e+000	0.1967	-38.175531
1022	1.0220e+000	0.2065	-38.007739
1023	1.0230e+000	0.2181	-37.835312
1024	1.0240e+000	0.2301	-37.661030
1025	1.0250e+000	0.2364	-37.471916
1026	1.0260e+000	0.2457	-37.299489
1027	1.0270e+000	0.2568	-37.128915
1028	1.0280e+000	0.2670	-36.921261
1029	1.0290e+000	0.2760	-36.731220
1030	1.0300e+000	0.2847	-36.513368
1031	1.0310e+000	0.2972	-36.280684
1032	1.0320e+000	0.3078	-36.056342
1033	1.0330e+000	0.3175	-35.846834
1034	1.0340e+000	0.3259	-35.607660
1035	1.0350e+000	0.3355	-35.374976
1036	1.0360e+000	0.3491	-35.143219
1037	1.0370e+000	0.3542	-34.868818
1038	1.0380e+000	0.3664	-34.600906
1039	1.0390e+000	0.3780	-34.322798
1040	1.0400e+000	0.3838	-34.020586
1041	1.0410e+000	0.3953	-33.751748
1042	1.0420e+000	0.4081	-33.441193
1043	1.0430e+000	0.4176	-33.113951
1044	1.0440e+000	0.4259	-32.778367
1045	1.0450e+000	0.4381	-32.465031
1046	1.0460e+000	0.4465	-32.118322
1047	1.0470e+000	0.4565	-31.752145
1048	1.0480e+000	0.4681	-31.401728
1049	1.0490e+000	0.4766	-30.992908
1050	1.0500e+000	0.4875	-30.597994
1051	1.0510e+000	0.4987	-30.229963
1052	1.0520e+000	0.5052	-29.810946
1053	1.0530e+000	0.5158	-29.379877
1054	1.0540e+000	0.5289	-28.976619
1055	1.0550e+000	0.5372	-28.519594
1056	1.0560e+000	0.5468	-28.087598
1057	1.0570e+000	0.5568	-27.613886
1058	1.0580e+000	0.5682	-27.152226
1059	1.0590e+000	0.5776	-26.661827
1060	1.0600e+000	0.5890	-26.182553
1061	1.0610e+000	0.5951	-25.719965
1062	1.0620e+000	0.6058	-25.187851
1063	1.0630e+000	0.6172	-24.688182
1064	1.0640e+000	0.6267	-24.167191
1065	1.0650e+000	0.6355	-23.629514
1066	1.0660e+000	0.6483	-23.070516
1067	1.0670e+000	0.6570	-22.523568
1068	1.0680e+000	0.6670	-21.946956
1069	1.0690e+000	0.6755	-21.369417
1070	1.0700e+000	0.6876	-20.808564
1071	1.0710e+000	0.6963	-20.233806
1072	1.0720e+000	0.7082	-19.629383
1073	1.0730e+000	0.7181	-19.040719
1074	1.0740e+000	0.7267	-18.440931
1075	1.0750e+000	0.7360	-17.814259
1076	1.0760e+000	0.7480	-17.195931
1077	1.0770e+000	0.7561	-16.570186
1078	1.0780e+000	0.7666	-15.962982
1079	1.0790e+000	0.7758	-15.327967
1080	1.0800e+000	0.7876	-14.670703
1081	1.0810e+000	0.7979	-14.044958
1082	1.0820e+000	0.8083	-13.391402
1083	1.0830e+000	0.8145	-12.697984
1084	1.0840e+000	0.8277	-12.068531
1085	1.0850e+000	0.8369	-11.412195
1086	1.0860e+000	0.8470	-10.741025
1087	1.0870e+000	0.8575	-10.113427
1088	1.0880e+000	0.8669	-9.442257
1089	1.0890e+000	0.8787	-8.775723
1090	1.0900e+000	0.8879	-8.116605
1091	1.0910e+000	0.8992	-7.449144
1092	1.0920e+000	0.9066	-6.782610
1093	1.0930e+000	0.9176	-6.117930
1094	1.0940e+000	0.9306	-5.452323
1095	1.0950e+000	0.9354	-4.780227
1096	1.0960e+000	0.9467	-4.135941
1097	1.0970e+000	0.9532	-3.454575
1098	1.0980e+000	0.9675	-2.792676
1099	1.0990e+000	0.9776	-2.174347
1100	1.1000e+000	0.9867	-1.508740
1101	1.1010e+000	0.9972	-0.840352
1102	1.1020e+000	1.0079	-0.200702
1103	1.1030e+000	1.0144	0.444511
1104	1.1040e+000	1.0272	1.106410
1105	1.1050e+000	1.0371	1.730300
1106	1.1060e+000	1.0458	2.384783
1107	1.1070e+000	1.0571	3.032776
1108	1.1080e+000	1.0674	3.639981
1109	1.1090e+000	1.0743	4.297244
1110	1.1100e+000	1.0889	4.935041
1111	1.1110e+000	1.0970	5.563567
1112	1.1120e+000	1.1062	6.218976
1113	1.1130e+000	1.1156	6.835451
1114	1.1140e+000	1.1276	7.466758
1115	1.1150e+000	1.1367	8.110116
1116	1.1160e+000	1.1453	8.748839
1117	1.1170e+000	1.1560	9.364387
1118	1.1180e+000	1.1673	9.982715
1119	1.1190e+000	1.1767	10.626074
1120	1.1200e+000	1.1861	11.268505
1121	1.1210e+000	1.1983	11.910009
1122	1.1220e+000	1.2074	12.570981
1123	1.1230e+000	1.2170	13.185602
1124	1.1240e+000	1.2280	13.828960
1125	1.1250e+000	1.2368	14.481589
1126	1.1260e+000	1.2478	15.119385
1127	1.1270e+000	1.2580	15.752546
1128	1.1280e+000	1.2670	16.406102
1129	1.1290e+000	1.2789	17.077271
1130	1.1300e+000	1.2873	17.714140
1131	1.1310e+000	1.2959	18.380674
1132	1.1320e+000	1.3066	19.012908
1133	1.1330e+000	1.3178	19.682223
1134	1.1340e+000	1.3262	20.375641
1135	1.1350e+000	1.3361	21.031051
1136	1.1360e+000	1.3476	21.714272
1137	1.1370e+000	1.3541	22.441063
1138	1.1380e+000	1.3659	23.114086
1139	1.1390e+000	1.3782	23.877031
1140	1.1400e+000	1.3885	24.615873
1141	1.1410e+000	1.3949	25.345446
1142	1.1420e+000	1.4056	26.079653
1143	1.1430e+000	1.4168	26.838890
1144	1.1440e+000	1.4275	27.588856
1145	1.1450e+000	1.4379	28.386102
1146	1.1460e+000	1.4482	29.170369
1147	1.1470e+000	1.4555	30.002841
1148	1.1480e+000	1.4685	30.855708
1149	1.1490e+000	1.4769	31.714137
1150	1.1500e+000	1.4874	32.587399
1151	1.1510e+000	1.4972	33.493106
1152	1.1520e+000	1.5066	34.428479
1153	1.1530e+000	1.5177	35.318427
1154	1.1540e+000	1.5284	36.259362
1155	1.1550e+000	1.5377	37.229962
1156	1.1560e+000	1.5464	38.189437
1157	1.1570e+000	1.5579	39.175796
1158	1.1580e+000	1.5660	40.143615
1159	1.1590e+000	1.5777	41.133682
1160	1.1600e+000	1.5863	42.061638
1161	1.1610e+000	1.5961	43.002573
1162	1.1620e+000	1.6044	43.896230
1163	1.1630e+000	1.6166	44.777834
1164	1.1640e+000	1.6273	45.591766
1165	1.1650e+000	1.6383	46.395501
1166	1.1660e+000	1.6477	47.122292
1167	1.1670e+000	1.6541	47.778628
1168	1.1680e+000	1.6661	48.342262
1169	1.1690e+000	1.6761	48.855836
1170	1.1700e+000	1.6865	49.305446
1171	1.1710e+000	1.6982	49.696652
1172	1.1720e+000	1.7049	50.030383
1173	1.1730e+000	1.7190	50.341864
1174	1.1740e+000	1.7285	50.559716
1175	1.1750e+000	1.7356	50.802598
1176	1.1760e+000	1.7477	50.998201
1177	1.1770e+000	1.7562	51.164139
1178	1.1780e+000	1.7685	51.301340
1179	1.1790e+000	1.7777	51.428343
1180	1.1800e+000	1.7879	51.557200
1181	1.1810e+000	1.7976	51.686984
1182	1.1820e+000	1.8092	51.806571
1183	1.1830e+000	1.8173	51.911325
1184	1.1840e+000	1.8258	52.019788
1185	1.1850e+000	1.8380	52.092096
1186	1.1860e+000	1.8449	52.163477
1187	1.1870e+000	1.8581	52.268231
1188	1.1880e+000	1.8674	52.357226
1189	1.1890e+000	1.8770	52.436024
1190	1.1900e+000	1.8864	52.468470
1191	1.1910e+000	1.8960	52.578786
1192	1.1920e+000	1.9068	52.654803
1193	1.1930e+000	1.9178	52.725257
1194	1.1940e+000	1.9284	52.787368
1195	1.1950e+000	1.9366	52.837427
1196	1.1960e+000	1.9454	52.889341
1197	1.1970e+000	1.9574	52.945890
1198	1.1980e+000	1.9665	53.005220
1199	1.1990e+000	1.9772	53.074747
1200	1.2000e+000	1.9857	53.133150
1201	1.2010e+000	1.9946	53.184136
1202	1.2020e+000	2.0073	53.256445
1203	1.2030e+000	2.0184	53.291672
1204	1.2040e+000	2.0267	53.337096
1205	1.2050e+000	2.0354	53.393645
1206	1.2060e+000	2.0473	53.443705
1207	1.2070e+000	2.0588	53.477078
1208	1.2080e+000	2.0661	53.516013
1209	1.2090e+000	2.0790	53.596664
1210	1.2100e+000	2.0874	53.596664
1211	1.2110e+000	2.0949	53.682878
1212	1.2120e+000	2.1090	53.718105
1213	1.2130e+000	2.1162	53.758895
1214	1.2140e+000	2.1252	53.801538
1215	1.2150e+000	2.1366	53.841400
1216	1.2160e+000	2.1483	53.881262
1217	1.2170e+000	2.1573	53.920198
1218	1.2180e+000	2.1668	53.952644
1219	1.2190e+000	2.1777	54.018463
1220	1.2200e+000	2.1872	54.061106
1221	1.2210e+000	2.1964	54.078720
1222	1.2220e+000	2.2086	54.121363
1223	1.2230e+000	2.2171	54.164933
1224	1.2240e+000	2.2251	54.194598
1225	1.2250e+000	2.2366	54.235388
1226	1.2260e+000	2.2470	54.251147
1227	1.2270e+000	2.2552	54.314185
1228	1.2280e+000	2.2673	54.346631
1229	1.2290e+000	2.2765	54.370734
1230	1.2300e+000	2.2884	54.431918
1231	1.2310e+000	2.2964	54.483832
1232	1.2320e+000	2.3051	54.492175
1233	1.2330e+000	2.3176	54.534818
1234	1.2340e+000	2.3287	54.557994
1235	1.2350e+000	2.3364	54.578389
1236	1.2360e+000	2.3468	54.623813
1237	1.2370e+000	2.3565	54.672946
1238	1.2380e+000	2.3663	54.703537
1239	1.2390e+000	2.3746	54.725786
1240	1.2400e+000	2.3872	54.772138
1241	1.2410e+000	2.3968	54.789751
1242	1.2420e+000	2.4097	54.824051
1243	1.2430e+000	2.4175	54.850935
1244	1.2440e+000	2.4272	54.876892
1245	1.2450e+000	2.4365	54.924170
1246	1.2460e+000	2.4487	54.953835
1247	1.2470e+000	2.4580	54.996479
1248	1.2480e+000	2.4638	55.031706
1249	1.2490e+000	2.4798	55.068787
1250	1.2500e+000	2.4870	55.105868
1251	1.2510e+000	2.4966	55.129971
1252	1.2520e+000	2.4874	55.127190
1253	1.2530e+000	2.4778	55.101233
1254	1.2540e+000	2.4669	55.086401
1255	1.2550e+000	2.4561	55.080838
1256	1.2560e+000	2.4487	55.078984
1257	1.2570e+000	2.4377	55.058590
1258	1.2580e+000	2.4278	55.040049
1259	1.2590e+000	2.4188	55.051173
1260	1.2600e+000	2.4095	55.034487
1261	1.2610e+000	2.3964	55.003895
1262	1.2620e+000	2.3872	54.994625
1263	1.2630e+000	2.3759	54.997406
1264	1.2640e+000	2.3641	54.968668
1265	1.2650e+000	2.3576	54.979792
1266	1.2660e+000	2.3478	54.975157
1267	1.2670e+000	2.3368	54.939930
1268	1.2680e+000	2.3268	54.930660
1269	1.2690e+000	2.3188	54.905630
1270	1.2700e+000	2.3065	54.872257
1271	1.2710e+000	2.2986	54.861132
1272	1.2720e+000	2.2861	54.843519
1273	1.2730e+000	2.2760	54.848154
1274	1.2740e+000	2.2674	54.837030
1275	1.2750e+000	2.2572	54.816635
1276	1.2760e+000	2.2491	54.799022
1277	1.2770e+000	2.2369	54.802730
1278	1.2780e+000	2.2266	54.778627
1279	1.2790e+000	2.2152	54.739692
1280	1.2800e+000	2.2094	54.725786
1281	1.2810e+000	2.1970	54.720224
1282	1.2820e+000	2.1860	54.697048
1283	1.2830e+000	2.1782	54.698902
1284	1.2840e+000	2.1671	54.679435
1285	1.2850e+000	2.1573	54.657186
1286	1.2860e+000	2.1461	54.639572
1287	1.2870e+000	2.1375	54.589513
1288	1.2880e+000	2.1266	54.590440
1289	1.2890e+000	2.1156	54.575607
1290	1.2900e+000	2.1082	54.551505
1291	1.2910e+000	2.0958	54.556140
1292	1.2920e+000	2.0883	54.532037
1293	1.2930e+000	2.0794	54.488467
1294	1.2940e+000	2.0667	54.494029
1295	1.2950e+000	2.0573	54.480123
1296	1.2960e+000	2.0483	54.463437
1297	1.2970e+000	2.0377	54.433772
1298	1.2980e+000	2.0258	54.404107
1299	1.2990e+000	2.0174	54.402253
1300	1.3000e+000	2.0058	54.364245
1301	1.3010e+000	1.9946	54.375369
1302	1.3020e+000	1.9873	54.364245
1303	1.3030e+000	1.9741	54.329018
1304	1.3040e+000	1.9653	54.307696
1305	1.3050e+000	1.9570	54.276177
1306	1.3060e+000	1.9461	54.260417
1307	1.3070e+000	1.9367	54.235388
1308	1.3080e+000	1.9247	54.219628
1309	1.3090e+000	1.9150	54.199234
1310	1.3100e+000	1.9098	54.210358
1311	1.3110e+000	1.8970	54.176058
1312	1.3120e+000	1.8851	54.127852
1313	1.3130e+000	1.8775	54.147320
1314	1.3140e+000	1.8663	54.102822
1315	1.3150e+000	1.8576	54.093552
1316	1.3160e+000	1.8447	54.062033
1317	1.3170e+000	1.8370	54.047201
1318	1.3180e+000	1.8256	54.011047
1319	1.3190e+000	1.8172	54.003630
1320	1.3200e+000	1.8069	54.009193
1321	1.3210e+000	1.7963	53.984163
1322	1.3220e+000	1.7850	53.934103
1323	1.3230e+000	1.7796	53.909073
1324	1.3240e+000	1.7656	53.892387
1325	1.3250e+000	1.7545	53.868284
1326	1.3260e+000	1.7477	53.859941
1327	1.3270e+000	1.7348	53.841400
1328	1.3280e+000	1.7293	53.822860
1329	1.3290e+000	1.7165	53.792268
1330	1.3300e+000	1.7068	53.765384
1331	1.3310e+000	1.6949	53.766311
1332	1.3320e+000	1.6859	53.738500
1333	1.3330e+000	1.6773	53.709762
1334	1.3340e+000	1.6688	53.703273
1335	1.3350e+000	1.6553	53.654140
1336	1.3360e+000	1.6462	53.630038
1337	1.3370e+000	1.6380	53.637454
1338	1.3380e+000	1.6283	53.598519
1339	1.3390e+000	1.6149	53.579051
1340	1.3400e+000	1.6080	53.576270
1341	1.3410e+000	1.5961	53.517867
1342	1.3420e+000	1.5862	53.477078
1343	1.3430e+000	1.5778	53.466880
1344	1.3440e+000	1.5674	53.438142
1345	1.3450e+000	1.5572	53.429799
1346	1.3460e+000	1.5453	53.453902
1347	1.3470e+000	1.5355	53.386229
1348	1.3480e+000	1.5261	53.374177
1349	1.3490e+000	1.5163	53.351929
1350	1.3500e+000	1.5078	53.314848
1351	1.3510e+000	1.4967	53.292599
1352	1.3520e+000	1.4877	53.263861
1353	1.3530e+000	1.4764	53.243466
1354	1.3540e+000	1.4655	53.210093
1355	1.3550e+000	1.4555	53.212874
1356	1.3560e+000	1.4454	53.192480
1357	1.3570e+000	1.4353	53.177647
1358	1.3580e+000	1.4278	53.132223
1359	1.3590e+000	1.4175	53.106266
1360	1.3600e+000	1.4069	53.070112
1361	1.3610e+000	1.3979	53.042301
1362	1.3620e+000	1.3870	53.011709
1363	1.3630e+000	1.3761	53.003366
1364	1.3640e+000	1.3657	52.989460
1365	1.3650e+000	1.3584	52.957941
1366	1.3660e+000	1.3451	52.913444
1367	1.3670e+000	1.3349	52.928276
1368	1.3680e+000	1.3272	52.880071
1369	1.3690e+000	1.3176	52.851333
1370	1.3700e+000	1.3081	52.784587
1371	1.3710e+000	1.2962	52.772535
1372	1.3720e+000	1.2857	52.747506
1373	1.3730e+000	1.2749	52.757703
1374	1.3740e+000	1.2667	52.728038
1375	1.3750e+000	1.2572	52.686322
1376	1.3760e+000	1.2476	52.664073
1377	1.3770e+000	1.2378	52.629773
1378	1.3780e+000	1.2245	52.610305
1379	1.3790e+000	1.2157	52.564881
1380	1.3800e+000	1.2077	52.527800
1381	1.3810e+000	1.1969	52.547267
1382	1.3820e+000	1.1848	52.499062
1383	1.3830e+000	1.1766	52.466616
1384	1.3840e+000	1.1655	52.435097
1385	1.3850e+000	1.1563	52.430462
1386	1.3860e+000	1.1456	52.396161
1387	1.3870e+000	1.1377	52.363715
1388	1.3880e+000	1.1272	52.317364
1389	1.3890e+000	1.1159	52.294188
1390	1.3900e+000	1.1066	52.254326
1391	1.3910e+000	1.0956	52.270085
1392	1.3920e+000	1.0864	52.233004
1393	1.3930e+000	1.0752	52.177383
1394	1.3940e+000	1.0677	52.168112
1395	1.3950e+000	1.0574	52.133812
1396	1.3960e+000	1.0439	52.088388
1397	1.3970e+000	1.0342	52.042036
1398	1.3980e+000	1.0271	52.025350
1399	1.3990e+000	1.0167	51.982706
1400	1.4000e+000	1.0069	51.967874
1401	1.4010e+000	0.9941	51.939136
1402	1.4020e+000	0.9879	51.902055
1403	1.4030e+000	0.9763	51.894639
1404	1.4040e+000	0.9651	51.852922
1405	1.4050e+000	0.9564	51.824184
1406	1.4060e+000	0.9469	51.759292
1407	1.4070e+000	0.9378	51.724065
1408	1.4080e+000	0.9271	51.697181
1409	1.4090e+000	0.9184	51.693473
1410	1.4100e+000	0.9073	51.665662
1411	1.4110e+000	0.8982	51.628581
1412	1.4120e+000	0.8874	51.591500
1413	1.4130e+000	0.8752	51.542367
1414	1.4140e+000	0.8696	51.512703
1415	1.4150e+000	0.8574	51.440394
1416	1.4160e+000	0.8468	51.446883
1417	1.4170e+000	0.8364	51.414437
1418	1.4180e+000	0.8263	51.367159
1419	1.4190e+000	0.8183	51.361597
1420	1.4200e+000	0.8066	51.307829
1421	1.4210e+000	0.7967	51.284653
1422	1.4220e+000	0.7878	51.234594
1423	1.4230e+000	0.7774	51.191950
1424	1.4240e+000	0.7668	51.127985
1425	1.4250e+000	0.7554	51.098320
1426	1.4260e+000	0.7466	51.051969
1427	1.4270e+000	0.7375	51.040845
1428	1.4280e+000	0.7276	51.011180
1429	1.4290e+000	0.7184	50.974098
1430	1.4300e+000	0.7059	50.926820
1431	1.4310e+000	0.6947	50.866563
1432	1.4320e+000	0.6882	50.825774
1433	1.4330e+000	0.6778	50.784057
1434	1.4340e+000	0.6683	50.750684
1435	1.4350e+000	0.6563	50.693209
1436	1.4360e+000	0.6474	50.682084
1437	1.4370e+000	0.6336	50.606995
1438	1.4380e+000	0.6279	50.560643
1439	1.4390e+000	0.6185	50.564352
1440	1.4400e+000	0.6063	50.478138
1441	1.4410e+000	0.5960	50.429005
1442	1.4420e+000	0.5875	50.363186
1443	1.4430e+000	0.5759	50.305710
1444	1.4440e+000	0.5669	50.281608
1445	1.4450e+000	0.5565	50.250089
1446	1.4460e+000	0.5463	50.196321
1447	1.4470e+000	0.5368	50.129575
1448	1.4480e+000	0.5266	50.071172
1449	1.4490e+000	0.5155	50.001645
1450	1.4500e+000	0.5068	49.962709
1451	1.4510e+000	0.4931	49.899671
1452	1.4520e+000	0.4840	49.838488
1453	1.4530e+000	0.4778	49.781939
1454	1.4540e+000	0.4661	49.719828
1455	1.4550e+000	0.4568	49.653082
1456	1.4560e+000	0.4444	49.573357
1457	1.4570e+000	0.4367	49.529787
1458	1.4580e+000	0.4287	49.435230
1459	1.4590e+000	0.4169	49.358286
1460	1.4600e+000	0.4065	49.247043
1461	1.4610e+000	0.3973	49.171026
1462	1.4620e+000	0.3871	49.080178
1463	1.4630e+000	0.3770	49.013431
1464	1.4640e+000	0.3667	48.941123
1465	1.4650e+000	0.3553	48.828953
1466	1.4660e+000	0.3482	48.716782
1467	1.4670e+000	0.3345	48.602757
1468	1.4680e+000	0.3273	48.485025
1469	1.4690e+000	0.3158	48.359876
1470	1.4700e+000	0.3062	48.235654
1471	1.4710e+000	0.2963	48.110505
1472	1.4720e+000	0.2887	47.976086
1473	1.4730e+000	0.2774	47.808293
1474	1.4740e+000	0.2676	47.645136
1475	1.4750e+000	0.2560	47.520914
1476	1.4760e+000	0.2471	47.294719
1477	1.4770e+000	0.2367	47.086137
1478	1.4780e+000	0.2254	46.862723
1479	1.4790e+000	0.2159	46.615207
1480	1.4800e+000	0.2057	46.414041
1481	1.4810e+000	0.1945	46.173014
1482	1.4820e+000	0.1840	45.917153
1483	1.4830e+000	0.1759	45.653877
1484	1.4840e+000	0.1639	45.346103
1485	1.4850e+000	0.1575	45.011446
1486	1.4860e+000	0.1498	44.681423
1487	1.4870e+000	0.1366	44.320809
1488	1.4880e+000	0.1243	43.949997
1489	1.4890e+000	0.1128	43.565280
1490	1.4900e+000	0.1066	43.124014
1491	1.4910e+000	0.0943	42.704997
1492	1.4920e+000	0.0878	42.217379
1493	1.4930e+000	0.0768	41.790019
1494	1.4940e+000	0.0660	41.269028
1495	1.4950e+000	0.0549	40.719300
1496	1.4960e+000	0.0461	40.154739
1497	1.4970e+000	0.0351	39.551243
1498	1.4980e+000	0.0278	38.960725
1499	1.4990e+000	0.0191	38.335908
1500	1.5000e+000	0.0078	37.669373
1501	1.5010e+000	-0.0035	36.949072
1502	1.5020e+000	-0.0111	36.213937
1503	1.5030e+000	-0.0223	35.438014
1504	1.5040e+000	-0.0315	34.650039
1505	1.5050e+000	-0.0422	33.851867
1506	1.5060e+000	-0.0526	32.977678
1507	1.5070e+000	-0.0652	32.088657
1508	1.5080e+000	-0.0719	31.166263
1509	1.5090e+000	-0.0841	30.207714
1510	1.5100e+000	-0.0943	29.218574
1511	1.5110e+000	-0.1023	28.221091
1512	1.5120e+000	-0.1115	27.143882
1513	1.5130e+000	-0.1233	26.063893
1514	1.5140e+000	-0.1326	24.938480
1515	1.5150e+000	-0.1415	23.801942
1516	1.5160e+000	-0.1542	22.648717
1517	1.5170e+000	-0.1640	21.490858
1518	1.5180e+000	-0.1720	20.297771
1519	1.5190e+000	-0.1826	19.091706
1520	1.5200e+000	-0.1920	17.868027
1521	1.5210e+000	-0.2021	16.594289
1522	1.5220e+000	-0.2129	15.352996
1523	1.5230e+000	-0.2215	14.117266
1524	1.5240e+000	-0.2345	12.890806
1525	1.5250e+000	-0.2432	11.654149
1526	1.5260e+000	-0.2514	10.409149
1527	1.5270e+000	-0.2615	9.196595
1528	1.5280e+000	-0.2736	7.952521
1529	1.5290e+000	-0.2817	6.797443
1530	1.5300e+000	-0.2932	5.602502
1531	1.5310e+000	-0.3056	4.442788
1532	1.5320e+000	-0.3143	3.297907
1533	1.5330e+000	-0.3205	2.166931
1534	1.5340e+000	-0.3315	1.098066
1535	1.5350e+000	-0.3428	0.047742
1536	1.5360e+000	-0.3516	-1.005363
1537	1.5370e+000	-0.3630	-2.021387
1538	1.5380e+000	-0.3751	-3.019798
1539	1.5390e+000	-0.3826	-4.004303
1540	1.5400e+000	-0.3929	-4.948019
1541	1.5410e+000	-0.4039	-5.862997
1542	1.5420e+000	-0.4134	-6.733478
1543	1.5430e+000	-0.4243	-7.574293
1544	1.5440e+000	-0.4340	-8.426233
1545	1.5450e+000	-0.4447	-9.253143
1546	1.5460e+000	-0.4535	-10.056878
1547	1.5470e+000	-0.4635	-10.829093
1548	1.5480e+000	-0.4718	-11.590184
1549	1.5490e+000	-0.4836	-12.329954
1550	1.5500e+000	-0.4936	-13.087337
1551	1.5510e+000	-0.5048	-13.821544
1552	1.5520e+000	-0.5138	-14.506619
1553	1.5530e+000	-0.5238	-15.184277
1554	1.5540e+000	-0.5328	-15.823927
1555	1.5550e+000	-0.5442	-16.471921
1556	1.5560e+000	-0.5541	-17.122695
1557	1.5570e+000	-0.5650	-17.779032
1558	1.5580e+000	-0.5738	-18.385309
1559	1.5590e+000	-0.5836	-18.963776
1560	1.5600e+000	-0.5909	-19.551512
1561	1.5610e+000	-0.6044	-20.111438
1562	1.5620e+000	-0.6133	-20.689904
1563	1.5630e+000	-0.6231	-21.247976
1564	1.5640e+000	-0.6341	-21.831077
1565	1.5650e+000	-0.6425	-22.347433
1566	1.5660e+000	-0.6551	-22.909212
1567	1.5670e+000	-0.6618	-23.463576
1568	1.5680e+000	-0.6723	-23.983639
1569	1.5690e+000	-0.6841	-24.509265
1570	1.5700e+000	-0.6922	-25.004299
1571	1.5710e+000	-0.7069	-25.473376
1572	1.5720e+000	-0.7144	-25.961920
1573	1.5730e+000	-0.7240	-26.435632
1574	1.5740e+000	-0.7346	-26.926031
1575	1.5750e+000	-0.7437	-27.409013
1576	1.5760e+000	-0.7507	-27.881798
1577	1.5770e+000	-0.7665	-28.338823
1578	1.5780e+000	-0.7717	-28.797703
1579	1.5790e+000	-0.7822	-29.231552
1580	1.5800e+000	-0.7935	-29.677454
1581	1.5810e+000	-0.8031	-30.125209
1582	1.5820e+000	-0.8112	-30.579453
1583	1.5830e+000	-0.8241	-30.983638
1584	1.5840e+000	-0.8331	-31.384115
1585	1.5850e+000	-0.8464	-31.831870
1586	1.5860e+000	-0.8536	-32.273136
1587	1.5870e+000	-0.8636	-32.663415
1588	1.5880e+000	-0.8713	-33.064819
1589	1.5890e+000	-0.8836	-33.437485
1590	1.5900e+000	-0.8938	-33.799953
1591	1.5910e+000	-0.9026	-34.171692
1592	1.5920e+000	-0.9126	-34.569387
1593	1.5930e+000	-0.9227	-34.981915
1594	1.5940e+000	-0.9326	-35.340676
1595	1.5950e+000	-0.9428	-35.699436
1596	1.5960e+000	-0.9525	-36.046145
1597	1.5970e+000	-0.9647	-36.376168
1598	1.5980e+000	-0.9722	-36.721949
1599	1.5990e+000	-0.9835	-37.055680
1600	1.6000e+000	-0.9937	-37.390338
1601	1.6010e+000	-1.0031	-37.684206
1602	1.6020e+000	-1.0128	-38.042966
1603	1.6030e+000	-1.0207	-38.375770
1604	1.6040e+000	-1.0355	-38.680762
1605	1.6050e+000	-1.0458	-38.988536
1606	1.6060e+000	-1.0525	-39.278696
1607	1.6070e+000	-1.0641	-39.562367
1608	1.6080e+000	-1.0719	-39.834914
1609	1.6090e+000	-1.0829	-40.074088
1610	1.6100e+000	-1.0932	-40.387423
1611	1.6110e+000	-1.1031	-40.659970
1612	1.6120e+000	-1.1111	-40.904706
1613	1.6130e+000	-1.1217	-41.198574
1614	1.6140e+000	-1.1311	-41.420134
1615	1.6150e+000	-1.1454	-41.690827
1616	1.6160e+000	-1.1531	-41.922584
1617	1.6170e+000	-1.1629	-42.147852
1618	1.6180e+000	-1.1705	-42.404639
1619	1.6190e+000	-1.1804	-42.584483
1620	1.6200e+000	-1.1962	-42.813459
1621	1.6210e+000	-1.2029	-43.099911
1622	1.6220e+000	-1.2118	-43.303858
1623	1.6230e+000	-1.2235	-43.506877
1624	1.6240e+000	-1.2354	-43.702480
1625	1.6250e+000	-1.2470	-43.865638
1626	1.6260e+000	-1.2516	-44.043627
1627	1.6270e+000	-1.2615	-44.258698
1628	1.6280e+000	-1.2737	-44.448739
1629	1.6290e+000	-1.2820	-44.640634
1630	1.6300e+000	-1.2901	-44.838091
1631	1.6310e+000	-1.3022	-44.996613
1632	1.6320e+000	-1.3120	-45.159770
1633	1.6330e+000	-1.3241	-45.330344
1634	1.6340e+000	-1.3325	-45.506479
1635	1.6350e+000	-1.3433	-45.684469
1636	1.6360e+000	-1.3535	-45.836502
1637	1.6370e+000	-1.3648	-45.970921
1638	1.6380e+000	-1.3728	-46.144276
1639	1.6390e+000	-1.3843	-46.322265
1640	1.6400e+000	-1.3937	-46.474298
1641	1.6410e+000	-1.4021	-46.651361
1642	1.6420e+000	-1.4124	-46.770947
1643	1.6430e+000	-1.4227	-46.902586
1644	1.6440e+000	-1.4307	-47.022172
1645	1.6450e+000	-1.4436	-47.151030
1646	1.6460e+000	-1.4507	-47.329019
1647	1.6470e+000	-1.4622	-47.470855
1648	1.6480e+000	-1.4735	-47.609909
1649	1.6490e+000	-1.4846	-47.741547
1650	1.6500e+000	-1.4920	-47.837958
1651	1.6510e+000	-1.5032	-47.972377
1652	1.6520e+000	-1.5137	-48.100308
1653	1.6530e+000	-1.5224	-48.225457
1654	1.6540e+000	-1.5327	-48.360803
1655	1.6550e+000	-1.5427	-48.444235
1656	1.6560e+000	-1.5528	-48.572165
1657	1.6570e+000	-1.5619	-48.731615
1658	1.6580e+000	-1.5704	-48.822463
1659	1.6590e+000	-1.5818	-48.951320
1660	1.6600e+000	-1.5943	-49.055148
1661	1.6610e+000	-1.6032	-49.135799
1662	1.6620e+000	-1.6128	-49.250751
1663	1.6630e+000	-1.6214	-49.347162
1664	1.6640e+000	-1.6324	-49.452843
1665	1.6650e+000	-1.6437	-49.585409
1666	1.6660e+000	-1.6558	-49.677184
1667	1.6670e+000	-1.6629	-49.755982
1668	1.6680e+000	-1.6710	-49.825509
1669	1.6690e+000	-1.6818	-49.921920
1670	1.6700e+000	-1.6933	-50.013696
1671	1.6710e+000	-1.7035	-50.127721
1672	1.6720e+000	-1.7117	-50.204664
1673	1.6730e+000	-1.7219	-50.268629
1674	1.6740e+000	-1.7321	-50.374310
1675	1.6750e+000	-1.7442	-50.486481
1676	1.6760e+000	-1.7508	-50.581965
1677	1.6770e+000	-1.7627	-50.659836
1678	1.6780e+000	-1.7732	-50.735852
1679	1.6790e+000	-1.7832	-50.802598
1680	1.6800e+000	-1.7935	-50.853585
1681	1.6810e+000	-1.8036	-50.934236
1682	1.6820e+000	-1.8137	-51.046407
1683	1.6830e+000	-1.8237	-51.111299
1684	1.6840e+000	-1.8305	-51.196586
1685	1.6850e+000	-1.8419	-51.271675
1686	1.6860e+000	-1.8523	-51.329151
1687	1.6870e+000	-1.8664	-51.387554
1688	1.6880e+000	-1.8726	-51.455227
1689	1.6890e+000	-1.8842	-51.548857
1690	1.6900e+000	-1.8945	-51.619311
1691	1.6910e+000	-1.9038	-51.659173
1692	1.6920e+000	-1.9147	-51.742606
1693	1.6930e+000	-1.9225	-51.846433
1694	1.6940e+000	-1.9329	-51.922449
1695	1.6950e+000	-1.9431	-52.013298
1696	1.6960e+000	-1.9523	-52.038328
1697	1.6970e+000	-1.9632	-52.080972
1698	1.6980e+000	-1.9734	-52.141228
1699	1.6990e+000	-1.9847	-52.200558
1700	1.7000e+000	-1.9931	-52.288626
1701	1.7010e+000	-2.0016	-52.360007
1702	1.7020e+000	-2.0126	-52.420264
1703	1.7030e+000	-2.0242	-52.474959
1704	1.7040e+000	-2.0334	-52.544486
1705	1.7050e+000	-2.0432	-52.583421
1706	1.7060e+000	-2.0546	-52.625138
1707	1.7070e+000	-2.0641	-52.714133
1708	1.7080e+000	-2.0744	-52.789222
1709	1.7090e+000	-2.0840	-52.826303
1710	1.7100e+000	-2.0934	-52.908809
1711	1.7110e+000	-2.1064	-53.006147
1712	1.7120e+000	-2.1134	-53.047863
1713	1.7130e+000	-2.1213	-53.120171
1714	1.7140e+000	-2.1346	-53.152617
1715	1.7150e+000	-2.1424	-53.197115
1716	1.7160e+000	-2.1519	-53.232342
1717	1.7170e+000	-2.1622	-53.306504
1718	1.7180e+000	-2.1752	-53.373250
1719	1.7190e+000	-2.1851	-53.424237
1720	1.7200e+000	-2.1924	-53.503035
1721	1.7210e+000	-2.2020	-53.546605
1722	1.7220e+000	-2.2155	-53.587394
1723	1.7230e+000	-2.2227	-53.674535
1724	1.7240e+000	-2.2317	-53.702346
1725	1.7250e+000	-2.2443	-53.754259
1726	1.7260e+000	-2.2538	-53.833057
1727	1.7270e+000	-2.2614	-53.846035
1728	1.7280e+000	-2.2755	-53.910927
1729	1.7290e+000	-2.2826	-53.997141
1730	1.7300e+000	-2.2950	-54.060179
1731	1.7310e+000	-2.3041	-54.125998
1732	1.7320e+000	-2.3132	-54.137123
1733	1.7330e+000	-2.3228	-54.184401
1734	1.7340e+000	-2.3335	-54.215920
1735	1.7350e+000	-2.3445	-54.264126
1736	1.7360e+000	-2.3539	-54.345704
1737	1.7370e+000	-2.3653	-54.426356
1738	1.7380e+000	-2.3731	-54.458802
1739	1.7390e+000	-2.3829	-54.538526
1740	1.7400e+000	-2.3943	-54.572826
1741	1.7410e+000	-2.4026	-54.604345
1742	1.7420e+000	-2.4125	-54.658113
1743	1.7430e+000	-2.4242	-54.715589
1744	1.7440e+000	-2.4333	-54.770284
1745	1.7450e+000	-2.4439	-54.786043
1746	1.7460e+000	-2.4529	-54.850008
1747	1.7470e+000	-2.4651	-54.932514
1748	1.7480e+000	-2.4736	-54.955689
1749	1.7490e+000	-2.4824	-55.021509
1750	1.7500e+000	-2.4928	-55.051173
1751	1.7510e+000	-2.5021	-55.109576
1752	1.7520e+000	-2.4940	-55.094744
1753	1.7530e+000	-2.4828	-55.115139
1754	1.7540e+000	-2.4747	-55.123482
1755	1.7550e+000	-2.4672	-55.128117
1756	1.7560e+000	-2.4534	-55.129971
1757	1.7570e+000	-2.4442	-55.090109
1758	1.7580e+000	-2.4325	-55.078984
1759	1.7590e+000	-2.4245	-55.065079
1760	1.7600e+000	-2.4145	-55.036341
1761	1.7610e+000	-2.4043	-55.038195
1762	1.7620e+000	-2.3947	-55.024290
1763	1.7630e+000	-2.3826	-54.977938
1764	1.7640e+000	-2.3727	-54.985354
1765	1.7650e+000	-2.3597	-54.981646
1766	1.7660e+000	-2.3531	-54.974230
1767	1.7670e+000	-2.3444	-54.974230
1768	1.7680e+000	-2.3315	-54.928806
1769	1.7690e+000	-2.3238	-54.913973
1770	1.7700e+000	-2.3132	-54.857424
1771	1.7710e+000	-2.3042	-54.854643
1772	1.7720e+000	-2.2933	-54.884308
1773	1.7730e+000	-2.2845	-54.865768
1774	1.7740e+000	-2.2732	-54.832395
1775	1.7750e+000	-2.2630	-54.820343
1776	1.7760e+000	-2.2516	-54.783262
1777	1.7770e+000	-2.2457	-54.756378
1778	1.7780e+000	-2.2357	-54.744327
1779	1.7790e+000	-2.2238	-54.715589
1780	1.7800e+000	-2.2148	-54.710027
1781	1.7810e+000	-2.2031	-54.680362
1782	1.7820e+000	-2.1920	-54.678508
1783	1.7830e+000	-2.1814	-54.655332
1784	1.7840e+000	-2.1729	-54.632156
1785	1.7850e+000	-2.1655	-54.640499
1786	1.7860e+000	-2.1539	-54.599710
1787	1.7870e+000	-2.1455	-54.561702
1788	1.7880e+000	-2.1342	-54.515351
1789	1.7890e+000	-2.1239	-54.513496
1790	1.7900e+000	-2.1135	-54.496810
1791	1.7910e+000	-2.1027	-54.482905
1792	1.7920e+000	-2.0921	-54.458802
1793	1.7930e+000	-2.0865	-54.425429
1794	1.7940e+000	-2.0727	-54.423575
1795	1.7950e+000	-2.0621	-54.391129
1796	1.7960e+000	-2.0524	-54.359610
1797	1.7970e+000	-2.0405	-54.346631
1798	1.7980e+000	-2.0335	-54.337361
1799	1.7990e+000	-2.0225	-54.295645
1800	1.8000e+000	-2.0148	-54.271542
1801	1.8010e+000	-2.0042	-54.260417
1802	1.8020e+000	-1.9923	-54.239096
1803	1.8030e+000	-1.9836	-54.231680
1804	1.8040e+000	-1.9728	-54.177912
1805	1.8050e+000	-1.9624	-54.133414
1806	1.8060e+000	-1.9533	-54.086136
1807	1.8070e+000	-1.9444	-54.079647
1808	1.8080e+000	-1.9327	-54.095406
1809	1.8090e+000	-1.9225	-54.052763
1810	1.8100e+000	-1.9137	-54.024952
1811	1.8110e+000	-1.9026	-54.009193
1812	1.8120e+000	-1.8916	-53.946155
1813	1.8130e+000	-1.8858	-53.940592
1814	1.8140e+000	-1.8727	-53.909073
1815	1.8150e+000	-1.8614	-53.882189
1816	1.8160e+000	-1.8539	-53.868284
1817	1.8170e+000	-1.8445	-53.826568
1818	1.8180e+000	-1.8336	-53.790414
1819	1.8190e+000	-1.8258	-53.784851
1820	1.8200e+000	-1.8118	-53.765384
1821	1.8210e+000	-1.8035	-53.745916
1822	1.8220e+000	-1.7929	-53.697711
1823	1.8230e+000	-1.7843	-53.652286
1824	1.8240e+000	-1.7742	-53.615205
1825	1.8250e+000	-1.7649	-53.584613
1826	1.8260e+000	-1.7533	-53.558656
1827	1.8270e+000	-1.7434	-53.553094
1828	1.8280e+000	-1.7307	-53.527137
1829	1.8290e+000	-1.7249	-53.499326
1830	1.8300e+000	-1.7135	-53.456683
1831	1.8310e+000	-1.7037	-53.406623
1832	1.8320e+000	-1.6928	-53.391791
1833	1.8330e+000	-1.6829	-53.355637
1834	1.8340e+000	-1.6699	-53.325045
1835	1.8350e+000	-1.6634	-53.304650
1836	1.8360e+000	-1.6520	-53.275912
1837	1.8370e+000	-1.6423	-53.255518
1838	1.8380e+000	-1.6349	-53.214728
1839	1.8390e+000	-1.6239	-53.200823
1840	1.8400e+000	-1.6112	-53.142420
1841	1.8410e+000	-1.6011	-53.110901
1842	1.8420e+000	-1.5916	-53.052498
1843	1.8430e+000	-1.5842	-53.025614
1844	1.8440e+000	-1.5733	-53.004293
1845	1.8450e+000	-1.5617	-52.976482
1846	1.8460e+000	-1.5511	-52.939401
1847	1.8470e+000	-1.5429	-52.906028
1848	1.8480e+000	-1.5347	-52.861530
1849	1.8490e+000	-1.5226	-52.841136
1850	1.8500e+000	-1.5134	-52.784587
1851	1.8510e+000	-1.5037	-52.752141
1852	1.8520e+000	-1.4922	-52.761411
1853	1.8530e+000	-1.4834	-52.707643
1854	1.8540e+000	-1.4742	-52.663146
1855	1.8550e+000	-1.4591	-52.636262
1856	1.8560e+000	-1.4539	-52.595473
1857	1.8570e+000	-1.4413	-52.570443
1858	1.8580e+000	-1.4297	-52.517602
1859	1.8590e+000	-1.4226	-52.453637
1860	1.8600e+000	-1.4125	-52.416556
1861	1.8610e+000	-1.4037	-52.366497
1862	1.8620e+000	-1.3960	-52.347956
1863	1.8630e+000	-1.3812	-52.332196
1864	1.8640e+000	-1.3740	-52.288626
1865	1.8650e+000	-1.3641	-52.267304
1866	1.8660e+000	-1.3511	-52.220953
1867	1.8670e+000	-1.3417	-52.179237
1868	1.8680e+000	-1.3310	-52.136593
1869	1.8690e+000	-1.3213	-52.092096
1870	1.8700e+000	-1.3139	-52.069847
1871	1.8710e+000	-1.3029	-52.029985
1872	1.8720e+000	-1.2930	-51.988269
1873	1.8730e+000	-1.2846	-51.929866
1874	1.8740e+000	-1.2728	-51.881660
1875	1.8750e+000	-1.2622	-51.868682
1876	1.8760e+000	-1.2528	-51.809352
1877	1.8770e+000	-1.2448	-51.740752
1878	1.8780e+000	-1.2346	-51.699962
1879	1.8790e+000	-1.2260	-51.673079
1880	1.8800e+000	-1.2144	-51.658246
1881	1.8810e+000	-1.2022	-51.612822
1882	1.8820e+000	-1.1943	-51.568324
1883	1.8830e+000	-1.1833	-51.521046
1884	1.8840e+000	-1.1739	-51.479329
1885	1.8850e+000	-1.1652	-51.432978
1886	1.8860e+000	-1.1533	-51.356035
1887	1.8870e+000	-1.1423	-51.342129
1888	1.8880e+000	-1.1337	-51.320807
1889	1.8890e+000	-1.1220	-51.246645
1890	1.8900e+000	-1.1140	-51.204929
1891	1.8910e+000	-1.1038	-51.163212
1892	1.8920e+000	-1.0915	-51.107591
1893	1.8930e+000	-1.0844	-51.077926
1894	1.8940e+000	-1.0740	-51.023231
1895	1.8950e+000	-1.0653	-50.954631
1896	1.8960e+000	-1.0538	-50.900863
1897	1.8970e+000	-1.0426	-50.848950
1898	1.8980e+000	-1.0336	-50.826701
1899	1.8990e+000	-1.0223	-50.808160
1900	1.9000e+000	-1.0154	-50.739560
1901	1.9010e+000	-1.0039	-50.683011
1902	1.9020e+000	-0.9925	-50.633879
1903	1.9030e+000	-0.9814	-50.563424
1904	1.9040e+000	-0.9730	-50.523562
1905	1.9050e+000	-0.9634	-50.473503
1906	1.9060e+000	-0.9541	-50.422516
1907	1.9070e+000	-0.9421	-50.378946
1908	1.9080e+000	-0.9328	-50.309418
1909	1.9090e+000	-0.9219	-50.276045
1910	1.9100e+000	-0.9140	-50.223205
1911	1.9110e+000	-0.9036	-50.160167
1912	1.9120e+000	-0.8938	-50.119377
1913	1.9130e+000	-0.8816	-50.046142
1914	1.9140e+000	-0.8736	-49.971053
1915	1.9150e+000	-0.8640	-49.924701
1916	1.9160e+000	-0.8540	-49.890401
1917	1.9170e+000	-0.8465	-49.837561
1918	1.9180e+000	-0.8327	-49.793990
1919	1.9190e+000	-0.8232	-49.714266
1920	1.9200e+000	-0.8130	-49.652155
1921	1.9210e+000	-0.8025	-49.583554
1922	1.9220e+000	-0.7927	-49.530714
1923	1.9230e+000	-0.7813	-49.472311
1924	1.9240e+000	-0.7742	-49.437084
1925	1.9250e+000	-0.7638	-49.336038
1926	1.9260e+000	-0.7540	-49.300811
1927	1.9270e+000	-0.7426	-49.234991
1928	1.9280e+000	-0.7325	-49.176589
1929	1.9290e+000	-0.7256	-49.133945
1930	1.9300e+000	-0.7127	-49.050513
1931	1.9310e+000	-0.7037	-48.960591
1932	1.9320e+000	-0.6930	-48.904969
1933	1.9330e+000	-0.6833	-48.842858
1934	1.9340e+000	-0.6723	-48.787236
1935	1.9350e+000	-0.6625	-48.738104
1936	1.9360e+000	-0.6518	-48.663941
1937	1.9370e+000	-0.6437	-48.586998
1938	1.9380e+000	-0.6337	-48.521179
1939	1.9390e+000	-0.6216	-48.427549
1940	1.9400e+000	-0.6116	-48.344116
1941	1.9410e+000	-0.6043	-48.281078
1942	1.9420e+000	-0.5952	-48.222675
1943	1.9430e+000	-0.5826	-48.146659
1944	1.9440e+000	-0.5721	-48.066934
1945	1.9450e+000	-0.5625	-48.007605
1946	1.9460e+000	-0.5527	-47.918610
1947	1.9470e+000	-0.5437	-47.836104
1948	1.9480e+000	-0.5347	-47.751745
1949	1.9490e+000	-0.5247	-47.647917
1950	1.9500e+000	-0.5138	-47.545944
1951	1.9510e+000	-0.5032	-47.486614
1952	1.9520e+000	-0.4915	-47.407817
1953	1.9530e+000	-0.4837	-47.332727
1954	1.9540e+000	-0.4739	-47.253930
1955	1.9550e+000	-0.4629	-47.133416
1956	1.9560e+000	-0.4539	-47.058327
1957	1.9570e+000	-0.4416	-46.963770
1958	1.9580e+000	-0.4329	-46.855307
1959	1.9590e+000	-0.4214	-46.770020
1960	1.9600e+000	-0.4123	-46.680099
1961	1.9610e+000	-0.4041	-46.587396
1962	1.9620e+000	-0.3931	-46.477079
1963	1.9630e+000	-0.3854	-46.364909
1964	1.9640e+000	-0.3751	-46.269425
1965	1.9650e+000	-0.3620	-46.170232
1966	1.9660e+000	-0.3534	-46.043229
1967	1.9670e+000	-0.3419	-45.939402
1968	1.9680e+000	-0.3316	-45.810545
1969	1.9690e+000	-0.3226	-45.687250
1970	1.9700e+000	-0.3123	-45.604745
1971	1.9710e+000	-0.3017	-45.508334
1972	1.9720e+000	-0.2905	-45.372060
1973	1.9730e+000	-0.2816	-45.252473
1974	1.9740e+000	-0.2738	-45.143084
1975	1.9750e+000	-0.2611	-44.993832
1976	1.9760e+000	-0.2535	-44.892786
1977	1.9770e+000	-0.2409	-44.763929
1978	1.9780e+000	-0.2325	-44.645269
1979	1.9790e+000	-0.2230	-44.526609
1980	1.9800e+000	-0.2102	-44.378285
1981	1.9810e+000	-0.2007	-44.242938
1982	1.9820e+000	-0.1913	-44.111300
1983	1.9830e+000	-0.1821	-43.986151
1984	1.9840e+000	-0.1722	-43.856367
1985	1.9850e+000	-0.1637	-43.699699
1986	1.9860e+000	-0.1530	-43.553229
1987	1.9870e+000	-0.1423	-43.431788
1988	1.9880e+000	-0.1332	-43.289952
1989	1.9890e+000	-0.1220	-43.174074
1990	1.9900e+000	-0.1139	-43.016479
1991	1.9910e+000	-0.1023	-42.857957
1992	1.9920e+000	-0.0917	-42.736516
1993	1.9930e+000	-0.0854	-42.577994
1994	1.9940e+000	-0.0743	-42.406493
1995	1.9950e+000	-0.0642	-42.245190
1996	1.9960e+000	-0.0552	-42.112625
1997	1.9970e+000	-0.0430	-41.971717
1998	1.9980e+000	-0.0326	-41.808559
1999	1.9990e+000	-0.0238	-41.632424
2000	2.0000e+000	-0.0130	-41.498005
2001	2.0010e+000	-0.0008	-41.332993

Center data before PMax,±Pr and ±Vc Calc.

PMax (µC/cm2):	5.51e+001
Pr (µC/cm2):	3.72e+001
-Pr (µC/cm2):	-4.13e+001
Vc:	1.01e+000
-Vc:	-3.43e-001
C (Max-Eff) (nF):	1.08e-001
Vert. (±Pr) Shift (µC/cm2):	-2.08e+000
Horiz. Shift (±Vc):	3.33e-001
Offset (µC/cm2):	4.06e+001

A (Loop Area - µC/cm2·Volts):	1.41e+002



Hysteresis Version: 5.9.3 - Radiant Technologies, Inc., 1999 - 3/03/16

