»»»»»»»»»»»»»»»»»»»»»»»»»»»»»»»»»»»» Hysteresis ««««««««««««««««««««««««««««««««««««
»»»  Executed Version:	5.16.2
»»»  Vision Version:	5.16.10 (R)
»»»  Vision Compiled:	4/26/18
»»»  Driver Version:	5.16.6
»»»  Windows Version:	Windows 8
»»»  Processor Information:	x86 (AMD or Intel) - 8 Processors
»»»  Tester Name:	PPM21016-863
»»»  Tester S/N:	PPM21016-863
»»»  Internal Amp Type:	 RTI ML200V    
»»»  Internal Amp S/N:	 iAB2-0000     
»»»  Execution Count:	1
»»»»»»»»»»»»»»»»»»»»»»»»»»»»»»»»»»»»»»»»»»««««««««««««««««««««««««««««««««««««««««««

Stored:	6/4/2018 - 14:55:28
Configured:	06/04/18 02:25:46 PM
Executed:	06/04/18 02:55:01 PM

»»»»»»»»»»»»»»»»»»»»»»»»»»»»»»»»»»» Sample Info ««««««««««««««««««««««««««««««««««««
Sample Name:	Internal Reference Cap.
Lot Name:	N/A
Wafer Name:	N/A
Die Row/Column:	0/0
Capacitor Number:	0
Sample Area (cm2):	6.20e-005
Sample Thickness (µm):	1.00e-001

Mux Loop Adjustment:	Disabled

Amplifier:	Internal

»»»»»»»»»»»»»»»»»»»»»»»»»»»»»»»»»»» Tester Info «««««««««««««««««««««««««««««««««««
Tester Name:	PPM21016-863
Tester Serial Number:	PPM21016-863
Return Signal Amp. Level:	1.79 [Index: 2]

»»»»»»»»»»»»»»»»»»»»»»»»»»»»»»»» Hysteresis Info ««««««««««««««««««««««««««««««««««
Task Name:	Hyst-1
Volts:	3.00
Field:	300.00 (kV/cm)
Hysteresis Period (ms):	2.00e+000
Preset:	Enabled
Preset Delay (ms):	1.00e+003
Profile:	Double Bipolar

»»»»»»»»»»»»»»»»»»»»»»»»»»»»»»»»»»»»»» Data «««««««««««««««««««««««««««««««««««««««
Points:	2001

Valid Data

Point	Time (ms)	Field (kV/cm)	Measured Polarization
   1	1.0000e-003	-0.068665	-25.533158
   2	2.0000e-003	0.907898	-25.480388
   3	3.0000e-003	2.197266	-25.431730
   4	4.0000e-003	3.570557	-25.366624
   5	5.0000e-003	4.676819	-25.333043
   6	6.0000e-003	5.935669	-25.278903
   7	7.0000e-003	6.988525	-25.228874
   8	8.0000e-003	8.369446	-25.166509
   9	9.0000e-003	9.582520	-25.106886
  10	1.0000e-002	10.574341	-25.033556
  11	1.1000e-002	11.672974	-24.960227
  12	1.2000e-002	13.076782	-24.871820
  13	1.3000e-002	14.305115	-24.751202
  14	1.4000e-002	15.357971	-24.662110
  15	1.5000e-002	16.761780	-24.545605
  16	1.6000e-002	17.814636	-24.381812
  17	1.7000e-002	19.248962	-24.237894
  18	1.8000e-002	20.141602	-24.054227
  19	1.9000e-002	21.415710	-23.865077
  20	2.0000e-002	22.682190	-23.640976
  21	2.1000e-002	23.788452	-23.406595
  22	2.2000e-002	25.054932	-23.144115
  23	2.3000e-002	26.191711	-22.863132
  24	2.4000e-002	27.282715	-22.575295
  25	2.5000e-002	28.633118	-22.242912
  26	2.6000e-002	29.830933	-21.870096
  27	2.7000e-002	31.059265	-21.497964
  28	2.8000e-002	32.142639	-21.079916
  29	2.9000e-002	33.401489	-20.610468
  30	3.0000e-002	34.622192	-20.119775
  31	3.1000e-002	35.919189	-19.581795
  32	3.2000e-002	37.071228	-19.025996
  33	3.3000e-002	38.299561	-18.428393
  34	3.4000e-002	39.459229	-17.787614
  35	3.5000e-002	40.824890	-17.133128
  36	3.6000e-002	41.976929	-16.422446
  37	3.7000e-002	42.808533	-15.682980
  38	3.8000e-002	44.387817	-14.894171
  39	3.9000e-002	45.478821	-14.088229
  40	4.0000e-002	46.623230	-13.218551
  41	4.1000e-002	47.821045	-12.363951
  42	4.2000e-002	48.988342	-11.427797
  43	4.3000e-002	50.193787	-10.490272
  44	4.4000e-002	51.368713	-9.518481
  45	4.5000e-002	52.543640	-8.531613
  46	4.6000e-002	53.688049	-7.494716
  47	4.7000e-002	54.901123	-6.465357
  48	4.8000e-002	56.129456	-5.402418
  49	4.9000e-002	57.510376	-4.329884
  50	5.0000e-002	58.677673	-3.234735
  51	5.1000e-002	59.799194	-2.156033
  52	5.2000e-002	60.867310	-1.049918
  53	5.3000e-002	62.263489	0.030154
  54	5.4000e-002	63.415527	1.106800
  55	5.5000e-002	64.659119	2.155348
  56	5.6000e-002	65.612793	3.183335
  57	5.7000e-002	67.070007	4.140049
  58	5.8000e-002	68.069458	5.124861
  59	5.9000e-002	69.488525	5.993168
  60	6.0000e-002	70.755005	6.842971
  61	6.1000e-002	71.632385	7.608480
  62	6.2000e-002	72.830200	8.336980
  63	6.3000e-002	74.241638	8.998319
  64	6.4000e-002	75.294495	9.630874
  65	6.5000e-002	76.828003	10.203806
  66	6.6000e-002	77.842712	10.760975
  67	6.7000e-002	79.002380	11.279766
  68	6.8000e-002	80.635071	11.801299
  69	6.9000e-002	81.565857	12.276914
  70	7.0000e-002	82.748413	12.749789
  71	7.1000e-002	83.900452	13.239111
  72	7.2000e-002	84.915161	13.731860
  73	7.3000e-002	86.112976	14.193083
  74	7.4000e-002	87.432861	14.676923
  75	7.5000e-002	88.867188	15.156651
  76	7.6000e-002	89.859009	15.632266
  77	7.7000e-002	90.995789	16.140777
  78	7.8000e-002	92.414856	16.659569
  79	7.9000e-002	93.429565	17.146149
  80	8.0000e-002	94.757080	17.669738
  81	8.1000e-002	95.970154	18.198124
  82	8.2000e-002	96.969604	18.742272
  83	8.3000e-002	98.480225	19.298756
  84	8.4000e-002	99.609375	19.862778
  85	8.5000e-002	100.570679	20.415836
  86	8.6000e-002	101.753235	20.990138
  87	8.7000e-002	103.050232	21.555531
  88	8.8000e-002	104.240417	22.183289
  89	8.9000e-002	105.476379	22.774725
  90	9.0000e-002	106.727600	23.368902
  91	9.1000e-002	107.749939	23.997345
  92	9.2000e-002	109.077454	24.623047
  93	9.3000e-002	110.542297	25.254916
  94	9.4000e-002	111.412048	25.890213
  95	9.5000e-002	112.632751	26.533048
  96	9.6000e-002	113.899231	27.184792
  97	9.7000e-002	114.814758	27.828312
  98	9.8000e-002	116.104126	28.457441
  99	9.9000e-002	117.393494	29.114668
 100	1.0000e-001	118.865967	29.778748
 101	1.0100e-001	119.880676	30.419527
 102	1.0200e-001	121.078491	31.042487
 103	1.0300e-001	122.009277	31.694231
 104	1.0400e-001	123.405457	32.300744
 105	1.0500e-001	124.877930	32.928502
 106	1.0600e-001	125.885010	33.545980
 107	1.0700e-001	127.037048	34.149066
 108	1.0800e-001	128.410339	34.730222
 109	1.0900e-001	129.486084	35.299727
 110	1.1000e-001	130.706787	35.882253
 111	1.1100e-001	131.866455	36.453129
 112	1.1200e-001	133.071899	36.970549
 113	1.1300e-001	133.941650	37.509215
 114	1.1400e-001	135.482788	38.007446
 115	1.1500e-001	136.535645	38.505678
 116	1.1600e-001	137.741089	38.995000
 117	1.1700e-001	138.877869	39.458280
 118	1.1800e-001	140.167236	39.909224
 119	1.1900e-001	141.632080	40.344405
 120	1.2000e-001	142.814636	40.754230
 121	1.2100e-001	143.699646	41.161998
 122	1.2200e-001	145.050049	41.535500
 123	1.2300e-001	146.430969	41.913800
 124	1.2400e-001	147.560120	42.261945
 125	1.2500e-001	148.681641	42.608719
 126	1.2600e-001	149.940491	42.891073
 127	1.2700e-001	150.993347	43.209064
 128	1.2800e-001	152.427673	43.496901
 129	1.2900e-001	153.442383	43.790220
 130	1.3000e-001	154.426575	44.034881
 131	1.3100e-001	155.998230	44.290507
 132	1.3200e-001	157.310486	44.526944
 133	1.3300e-001	158.050537	44.781885
 134	1.3400e-001	159.866333	44.968979
 135	1.3500e-001	160.896301	45.172521
 136	1.3600e-001	161.750793	45.371950
 137	1.3700e-001	162.994385	45.570009
 138	1.3800e-001	164.337158	45.733802
 139	1.3900e-001	165.611267	45.907189
 140	1.4000e-001	166.740417	46.055219
 141	1.4100e-001	167.930603	46.234089
 142	1.4200e-001	169.212341	46.365672
 143	1.4300e-001	170.372009	46.529464
 144	1.4400e-001	171.821594	46.645970
 145	1.4500e-001	172.721863	46.780979
 146	1.4600e-001	173.912048	46.908449
 147	1.4700e-001	175.079346	47.026325
 148	1.4800e-001	176.353455	47.159964
 149	1.4900e-001	177.459717	47.268245
 150	1.5000e-001	178.550720	47.381324
 151	1.5100e-001	180.015564	47.490976
 152	1.5200e-001	181.282043	47.601313
 153	1.5300e-001	182.151794	47.720559
 154	1.5400e-001	183.494568	47.806910
 155	1.5500e-001	184.913635	47.910395
 156	1.5600e-001	185.813904	48.016620
 157	1.5700e-001	186.836243	48.102286
 158	1.5800e-001	188.301086	48.210567
 159	1.5900e-001	189.628601	48.310624
 160	1.6000e-001	190.689087	48.406570
 161	1.6100e-001	191.757202	48.484697
 162	1.6200e-001	193.290710	48.567621
 163	1.6300e-001	194.358826	48.666993
 164	1.6400e-001	195.510864	48.747177
 165	1.6500e-001	196.823120	48.847234
 166	1.6600e-001	198.074341	48.926046
 167	1.6700e-001	199.150085	49.010341
 168	1.6800e-001	200.370789	49.090524
 169	1.6900e-001	201.293945	49.171393
 170	1.7000e-001	202.720642	49.259114
 171	1.7100e-001	204.086304	49.322850
 172	1.7200e-001	205.116272	49.386585
 173	1.7300e-001	206.359863	49.491440
 174	1.7400e-001	207.435608	49.562713
 175	1.7500e-001	208.793640	49.637414
 176	1.7600e-001	209.930420	49.716226
 177	1.7700e-001	211.090088	49.794353
 178	1.7800e-001	212.303162	49.871795
 179	1.7900e-001	213.661194	49.929362
 180	1.8000e-001	214.622498	50.005433
 181	1.8100e-001	215.728760	50.078763
 182	1.8200e-001	217.025757	50.161002
 183	1.8300e-001	218.170166	50.233647
 184	1.8400e-001	219.337463	50.287787
 185	1.8500e-001	220.649719	50.352893
 186	1.8600e-001	221.946716	50.425538
 187	1.8700e-001	223.106384	50.487902
 188	1.8800e-001	224.685669	50.559176
 189	1.8900e-001	225.387573	50.615373
 190	1.9000e-001	226.882935	50.690759
 191	1.9100e-001	227.783203	50.756550
 192	1.9200e-001	228.836060	50.812061
 193	1.9300e-001	230.407715	50.881279
 194	1.9400e-001	231.758118	50.931308
 195	1.9500e-001	232.749939	51.001211
 196	1.9600e-001	233.848572	51.062205
 197	1.9700e-001	235.305786	51.132108
 198	1.9800e-001	236.419678	51.171857
 199	1.9900e-001	237.770081	51.234907
 200	2.0000e-001	239.028931	51.302069
 201	2.0100e-001	240.234375	51.368545
 202	2.0200e-001	240.898132	51.420630
 203	2.0300e-001	242.340088	51.489162
 204	2.0400e-001	243.560791	51.528226
 205	2.0500e-001	244.796753	51.599500
 206	2.0600e-001	245.872498	51.646787
 207	2.0700e-001	247.116089	51.698872
 208	2.0800e-001	248.199463	51.753698
 209	2.0900e-001	249.748230	51.802356
 210	2.1000e-001	250.816345	51.870203
 211	2.1100e-001	251.983643	51.930512
 212	2.1200e-001	253.036499	51.975058
 213	2.1300e-001	254.417419	52.014807
 214	2.1400e-001	255.592346	52.072374
 215	2.1500e-001	256.828308	52.134739
 216	2.1600e-001	257.972717	52.219034
 217	2.1700e-001	258.972168	52.241649
 218	2.1800e-001	260.223389	52.298531
 219	2.1900e-001	261.535645	52.353357
 220	2.2000e-001	262.855530	52.390365
 221	2.2100e-001	264.099121	52.438338
 222	2.2200e-001	264.915466	52.491108
 223	2.2300e-001	266.471863	52.548675
 224	2.2400e-001	267.509460	52.591165
 225	2.2500e-001	268.554688	52.644621
 226	2.2600e-001	270.065308	52.693279
 227	2.2700e-001	271.163940	52.738510
 228	2.2800e-001	272.262573	52.785798
 229	2.2900e-001	273.620605	52.825546
 230	2.3000e-001	274.681091	52.879687
 231	2.3100e-001	275.863647	52.937254
 232	2.3200e-001	277.191162	52.967409
 233	2.3300e-001	278.404236	53.029773
 234	2.3400e-001	279.411316	53.076375
 235	2.3500e-001	280.685425	53.112012
 236	2.3600e-001	282.073975	53.154502
 237	2.3700e-001	283.332825	53.199734
 238	2.3800e-001	284.507751	53.259357
 239	2.3900e-001	285.652161	53.292938
 240	2.4000e-001	286.865234	53.341596
 241	2.4100e-001	288.002014	53.391625
 242	2.4200e-001	289.077759	53.433430
 243	2.4300e-001	290.344238	53.476605
 244	2.4400e-001	291.671753	53.528005
 245	2.4500e-001	292.800903	53.543767
 246	2.4600e-001	294.242859	53.597908
 247	2.4700e-001	295.082092	53.645881
 248	2.4800e-001	296.531677	53.696595
 249	2.4900e-001	297.576904	53.747309
 250	2.5000e-001	298.789978	53.774036
 251	2.5100e-001	300.086975	53.813785
 252	2.5200e-001	298.835754	53.805561
 253	2.5300e-001	297.706604	53.776778
 254	2.5400e-001	296.539307	53.759645
 255	2.5500e-001	295.219421	53.726749
 256	2.5600e-001	293.945313	53.710301
 257	2.5700e-001	292.633057	53.689056
 258	2.5800e-001	291.183472	53.660272
 259	2.5900e-001	290.328979	53.630118
 260	2.6000e-001	289.047241	53.607502
 261	2.6100e-001	287.948608	53.572551
 262	2.6200e-001	286.941528	53.540340
 263	2.6300e-001	285.415649	53.518410
 264	2.6400e-001	284.278870	53.484829
 265	2.6500e-001	282.905579	53.473179
 266	2.6600e-001	282.028198	53.438912
 267	2.6700e-001	280.471802	53.392996
 268	2.6800e-001	279.579163	53.392996
 269	2.6900e-001	278.289795	53.349820
 270	2.7000e-001	277.030945	53.314183
 271	2.7100e-001	275.764465	53.277176
 272	2.7200e-001	274.833679	53.253189
 273	2.7300e-001	273.551941	53.240168
 274	2.7400e-001	272.628784	53.199049
 275	2.7500e-001	271.286011	53.158614
 276	2.7600e-001	269.584656	53.134628
 277	2.7700e-001	268.707275	53.103103
 278	2.7800e-001	267.486572	53.067466
 279	2.7900e-001	266.265869	53.048277
 280	2.8000e-001	264.991760	53.024976
 281	2.8100e-001	263.679504	52.983171
 282	2.8200e-001	262.840271	52.957129
 283	2.8300e-001	261.344910	52.929716
 284	2.8400e-001	260.337830	52.887226
 285	2.8500e-001	259.284973	52.857757
 286	2.8600e-001	258.018494	52.820749
 287	2.8700e-001	256.652832	52.791965
 288	2.8800e-001	255.386353	52.775518
 289	2.8900e-001	254.295349	52.727545
 290	2.9000e-001	252.853394	52.669978
 291	2.9100e-001	251.945496	52.660383
 292	2.9200e-001	250.694275	52.615837
 293	2.9300e-001	249.595642	52.600074
 294	2.9400e-001	248.443604	52.554158
 295	2.9500e-001	247.100830	52.532227
 296	2.9600e-001	245.964050	52.491108
 297	2.9700e-001	244.712830	52.465751
 298	2.9800e-001	243.553162	52.420519
 299	2.9900e-001	242.614746	52.393792
 300	3.0000e-001	241.081238	52.360211
 301	3.0100e-001	240.043640	52.314979
 302	3.0200e-001	238.937378	52.284140
 303	3.0300e-001	237.518311	52.254671
 304	3.0400e-001	236.335754	52.223146
 305	3.0500e-001	235.122681	52.184082
 306	3.0600e-001	233.840942	52.159410
 307	3.0700e-001	232.658386	52.113494
 308	3.0800e-001	231.643677	52.073059
 309	3.0900e-001	230.316162	52.038108
 310	3.1000e-001	229.125977	52.001786
 311	3.1100e-001	228.050232	51.953127
 312	3.1200e-001	226.707458	51.916805
 313	3.1300e-001	225.631714	51.893504
 314	3.1400e-001	224.494934	51.864721
 315	3.1500e-001	223.373413	51.816062
 316	3.1600e-001	222.122192	51.785908
 317	3.1700e-001	220.748901	51.759866
 318	3.1800e-001	219.573975	51.709152
 319	3.1900e-001	218.368530	51.676256
 320	3.2000e-001	217.353821	51.638563
 321	3.2100e-001	215.637207	51.591961
 322	3.2200e-001	214.805603	51.544674
 323	3.2300e-001	213.623047	51.522058
 324	3.2400e-001	212.287903	51.476141
 325	3.2500e-001	211.074829	51.439819
 326	3.2600e-001	210.052490	51.401441
 327	3.2700e-001	208.778381	51.350727
 328	3.2800e-001	207.672119	51.319202
 329	3.2900e-001	206.413269	51.286991
 330	3.3000e-001	205.093384	51.243816
 331	3.3100e-001	203.979492	51.216403
 332	3.3200e-001	202.903748	51.162948
 333	3.3300e-001	201.339722	51.126625
 334	3.3400e-001	200.256348	51.092359
 335	3.3500e-001	199.218750	51.040960
 336	3.3600e-001	198.173523	51.010120
 337	3.3700e-001	196.510315	50.970371
 338	3.3800e-001	195.556641	50.925140
 339	3.3900e-001	194.381714	50.882650
 340	3.4000e-001	193.313599	50.839474
 341	3.4100e-001	191.894531	50.795613
 342	3.4200e-001	190.856934	50.768886
 343	3.4300e-001	189.697266	50.713374
 344	3.4400e-001	188.346863	50.678423
 345	3.4500e-001	187.156677	50.628394
 346	3.4600e-001	186.134338	50.586589
 347	3.4700e-001	184.463501	50.547526
 348	3.4800e-001	183.609009	50.496126
 349	3.4900e-001	182.540894	50.461175
 350	3.5000e-001	181.266785	50.419370
 351	3.5100e-001	180.007935	50.380306
 352	3.5200e-001	178.871155	50.339187
 353	3.5300e-001	177.627563	50.284361
 354	3.5400e-001	176.498413	50.243927
 355	3.5500e-001	175.071716	50.200751
 356	3.5600e-001	174.041748	50.153464
 357	3.5700e-001	172.767639	50.132219
 358	3.5800e-001	171.394348	50.058889
 359	3.5900e-001	170.120239	50.029420
 360	3.6000e-001	168.853760	49.978706
 361	3.6100e-001	168.121338	49.920453
 362	3.6200e-001	166.580200	49.874536
 363	3.6300e-001	165.298462	49.829990
 364	3.6400e-001	164.115906	49.796409
 365	3.6500e-001	163.200378	49.729933
 366	3.6600e-001	161.926270	49.688813
 367	3.6700e-001	160.682678	49.638099
 368	3.6800e-001	159.736633	49.601092
 369	3.6900e-001	158.058167	49.555860
 370	3.7000e-001	157.203674	49.496922
 371	3.7100e-001	155.929565	49.442782
 372	3.7200e-001	155.036926	49.400291
 373	3.7300e-001	153.686523	49.353689
 374	3.7400e-001	152.313232	49.307772
 375	3.7500e-001	151.115417	49.246779
 376	3.7600e-001	149.986267	49.196750
 377	3.7700e-001	148.780823	49.146721
 378	3.7800e-001	147.399902	49.111769
 379	3.7900e-001	146.308899	49.058999
 380	3.8000e-001	145.111084	48.998691
 381	3.8100e-001	144.020081	48.950718
 382	3.8200e-001	142.684937	48.901375
 383	3.8300e-001	141.464233	48.855458
 384	3.8400e-001	140.312195	48.789667
 385	3.8500e-001	139.236450	48.750603
 386	3.8600e-001	137.969971	48.681385
 387	3.8700e-001	136.749268	48.633413
 388	3.8800e-001	135.482788	48.569677
 389	3.8900e-001	134.483337	48.517593
 390	3.9000e-001	133.193970	48.469620
 391	3.9100e-001	131.866455	48.427815
 392	3.9200e-001	130.554199	48.368192
 393	3.9300e-001	129.531860	48.306512
 394	3.9400e-001	128.211975	48.255113
 395	3.9500e-001	127.113342	48.203028
 396	3.9600e-001	125.709534	48.137237
 397	3.9700e-001	124.778748	48.089264
 398	3.9800e-001	123.558044	48.013879
 399	3.9900e-001	122.337341	47.961794
 400	4.0000e-001	121.154785	47.908339
 401	4.0100e-001	120.002747	47.853513
 402	4.0200e-001	118.675232	47.798687
 403	4.0300e-001	117.454529	47.714392
 404	4.0400e-001	116.241455	47.665048
 405	4.0500e-001	114.936829	47.604740
 406	4.0600e-001	114.181519	47.542375
 407	4.0700e-001	112.625122	47.482752
 408	4.0800e-001	111.457825	47.418331
 409	4.0900e-001	110.343933	47.357337
 410	4.1000e-001	109.153748	47.297714
 411	4.1100e-001	107.894897	47.214790
 412	4.1200e-001	106.773376	47.167502
 413	4.1300e-001	105.308533	47.101711
 414	4.1400e-001	104.423523	47.033864
 415	4.1500e-001	103.126526	46.972870
 416	4.1600e-001	101.699829	46.903652
 417	4.1700e-001	100.715637	46.826210
 418	4.1800e-001	99.472046	46.770699
 419	4.1900e-001	98.220825	46.692572
 420	4.2000e-001	97.122192	46.621298
 421	4.2100e-001	95.947266	46.551395
 422	4.2200e-001	94.673157	46.481492
 423	4.2300e-001	93.597412	46.410903
 424	4.2400e-001	92.308044	46.340315
 425	4.2500e-001	91.369629	46.269726
 426	4.2600e-001	89.942932	46.192970
 427	4.2700e-001	88.706970	46.111416
 428	4.2800e-001	87.478638	46.047681
 429	4.2900e-001	86.235046	45.966127
 430	4.3000e-001	85.212708	45.907189
 431	4.3100e-001	83.992004	45.806446
 432	4.3200e-001	82.565308	45.731746
 433	4.3300e-001	81.573486	45.661157
 434	4.3400e-001	80.345154	45.570695
 435	4.3500e-001	78.903198	45.495309
 436	4.3600e-001	78.163147	45.415811
 437	4.3700e-001	76.744080	45.339055
 438	4.3800e-001	75.515747	45.245165
 439	4.3900e-001	74.348450	45.164982
 440	4.4000e-001	72.921753	45.081372
 441	4.4100e-001	71.594238	44.983371
 442	4.4200e-001	70.808411	44.877831
 443	4.4300e-001	69.480896	44.805872
 444	4.4400e-001	68.237305	44.714723
 445	4.4500e-001	67.092896	44.622890
 446	4.4600e-001	66.276550	44.535854
 447	4.4700e-001	64.750671	44.418663
 448	4.4800e-001	63.796997	44.328885
 449	4.4900e-001	62.385559	44.240478
 450	4.5000e-001	61.210632	44.142477
 451	4.5100e-001	60.066223	44.043790
 452	4.5200e-001	58.586121	43.926600
 453	4.5300e-001	57.571411	43.831339
 454	4.5400e-001	56.266785	43.720317
 455	4.5500e-001	55.252075	43.609294
 456	4.5600e-001	53.977966	43.499642
 457	4.5700e-001	52.642822	43.393417
 458	4.5800e-001	51.696777	43.275541
 459	4.5900e-001	50.033569	43.156979
 460	4.6000e-001	49.186707	43.044586
 461	4.6100e-001	47.897339	42.915745
 462	4.6200e-001	46.699524	42.784163
 463	4.6300e-001	45.738220	42.656007
 464	4.6400e-001	44.044495	42.534019
 465	4.6500e-001	43.106079	42.416828
 466	4.6600e-001	41.831970	42.260574
 467	4.6700e-001	40.649414	42.118027
 468	4.6800e-001	39.634705	41.976164
 469	4.6900e-001	38.536072	41.821966
 470	4.7000e-001	37.361145	41.664341
 471	4.7100e-001	36.094666	41.519738
 472	4.7200e-001	34.927368	41.344980
 473	4.7300e-001	33.088684	41.179816
 474	4.7400e-001	32.310486	41.005059
 475	4.7500e-001	31.196594	40.822762
 476	4.7600e-001	29.754639	40.639095
 477	4.7700e-001	28.892517	40.469134
 478	4.7800e-001	27.412415	40.244348
 479	4.7900e-001	26.458740	40.045603
 480	4.8000e-001	25.108337	39.836579
 481	4.8100e-001	24.124146	39.606310
 482	4.8200e-001	22.857666	39.371243
 483	4.8300e-001	21.423340	39.147142
 484	4.8400e-001	20.355225	38.894942
 485	4.8500e-001	19.035339	38.638631
 486	4.8600e-001	18.074036	38.385746
 487	4.8700e-001	16.944885	38.092427
 488	4.8800e-001	15.678406	37.816926
 489	4.8900e-001	14.236450	37.523607
 490	4.9000e-001	12.977600	37.216581
 491	4.9100e-001	11.993408	36.887625
 492	4.9200e-001	10.604858	36.568949
 493	4.9300e-001	9.475708	36.226972
 494	4.9400e-001	8.346558	35.868547
 495	4.9500e-001	7.095337	35.515604
 496	4.9600e-001	6.019592	35.134563
 497	4.9700e-001	4.791260	34.744613
 498	4.9800e-001	3.723145	34.350552
 499	4.9900e-001	2.418518	33.906461
 500	5.0000e-001	1.274109	33.482245
 501	5.0100e-001	0.267029	33.032671
 502	5.0200e-001	-1.121521	32.589266
 503	5.0300e-001	-2.426147	32.099944
 504	5.0400e-001	-3.639221	31.616104
 505	5.0500e-001	-4.570007	31.108964
 506	5.0600e-001	-6.011963	30.567557
 507	5.0700e-001	-7.263184	30.009017
 508	5.0800e-001	-8.308411	29.446365
 509	5.0900e-001	-9.513855	28.844649
 510	5.1000e-001	-10.475159	28.241563
 511	5.1100e-001	-11.726379	27.616547
 512	5.1200e-001	-13.015747	26.949725
 513	5.1300e-001	-14.236450	26.279477
 514	5.1400e-001	-15.472412	25.570851
 515	5.1500e-001	-16.654968	24.842351
 516	5.1600e-001	-18.104553	24.072045
 517	5.1700e-001	-18.959045	23.307222
 518	5.1800e-001	-20.202637	22.510875
 519	5.1900e-001	-21.545410	21.680260
 520	5.2000e-001	-22.743225	20.839367
 521	5.2100e-001	-23.826599	19.975172
 522	5.2200e-001	-25.123596	19.086990
 523	5.2300e-001	-25.970459	18.190585
 524	5.2400e-001	-27.557373	17.244836
 525	5.2500e-001	-28.640747	16.301829
 526	5.2600e-001	-29.838562	15.349227
 527	5.2700e-001	-31.333923	14.371268
 528	5.2800e-001	-32.020569	13.392624
 529	5.2900e-001	-33.432007	12.404385
 530	5.3000e-001	-34.538269	11.414090
 531	5.3100e-001	-35.881042	10.427222
 532	5.3200e-001	-36.849976	9.450634
 533	5.3300e-001	-38.307190	8.476787
 534	5.3400e-001	-39.466858	7.520073
 535	5.3500e-001	-40.817261	6.597625
 536	5.3600e-001	-41.999817	5.681345
 537	5.3700e-001	-43.136597	4.794535
 538	5.3800e-001	-44.387817	3.941305
 539	5.3900e-001	-45.463562	3.116859
 540	5.4000e-001	-46.745300	2.345868
 541	5.4100e-001	-47.843933	1.596808
 542	5.4200e-001	-49.171448	0.869678
 543	5.4300e-001	-50.231934	0.215192
 544	5.4400e-001	-51.422119	-0.454371
 545	5.4500e-001	-52.848816	-1.064310
 546	5.4600e-001	-53.932190	-1.693438
 547	5.4700e-001	-55.236816	-2.245810
 548	5.4800e-001	-56.350708	-2.804350
 549	5.4900e-001	-57.647705	-3.398527
 550	5.5000e-001	-58.662415	-3.920060
 551	5.5100e-001	-60.173035	-4.452557
 552	5.5200e-001	-61.111450	-5.011097
 553	5.5300e-001	-62.225342	-5.522350
 554	5.5400e-001	-63.476563	-6.068554
 555	5.5500e-001	-64.735413	-6.603108
 556	5.5600e-001	-66.009521	-7.163704
 557	5.5700e-001	-66.894531	-7.696887
 558	5.5800e-001	-68.443298	-8.246517
 559	5.5900e-001	-69.381714	-8.820134
 560	5.6000e-001	-71.083069	-9.397864
 561	5.6100e-001	-71.914673	-9.981761
 562	5.6200e-001	-73.135376	-10.577308
 563	5.6300e-001	-74.172974	-11.183135
 564	5.6400e-001	-75.790405	-11.822544
 565	5.6500e-001	-76.614380	-12.452358
 566	5.6600e-001	-78.048706	-13.109584
 567	5.6700e-001	-79.048157	-13.783944
 568	5.6800e-001	-80.162048	-14.472696
 569	5.6900e-001	-81.573486	-15.191602
 570	5.7000e-001	-82.580566	-15.913935
 571	5.7100e-001	-83.953857	-16.649289
 572	5.7200e-001	-85.250854	-17.422335
 573	5.7300e-001	-86.174011	-18.215942
 574	5.7400e-001	-87.554932	-19.009548
 575	5.7500e-001	-88.653564	-19.830568
 576	5.7600e-001	-89.988708	-20.663923
 577	5.7700e-001	-91.117859	-21.540454
 578	5.7800e-001	-92.239380	-22.382033
 579	5.7900e-001	-93.429565	-23.280495
 580	5.8000e-001	-94.627380	-24.181697
 581	5.8100e-001	-95.993042	-25.102089
 582	5.8200e-001	-97.343445	-26.023166
 583	5.8300e-001	-98.419189	-26.938760
 584	5.8400e-001	-99.411011	-27.865320
 585	5.8500e-001	-100.555420	-28.791879
 586	5.8600e-001	-101.982117	-29.708844
 587	5.8700e-001	-103.195190	-30.607306
 588	5.8800e-001	-104.125977	-31.487263
 589	5.8900e-001	-105.461121	-32.368591
 590	5.9000e-001	-106.765747	-33.214968
 591	5.9100e-001	-107.902527	-34.035302
 592	5.9200e-001	-108.901978	-34.830279
 593	5.9300e-001	-110.443115	-35.582766
 594	5.9400e-001	-111.412048	-36.285910
 595	5.9500e-001	-112.945557	-36.991109
 596	5.9600e-001	-113.906860	-37.641483
 597	5.9700e-001	-115.402222	-38.262387
 598	5.9800e-001	-116.432190	-38.849711
 599	5.9900e-001	-117.591858	-39.428125
 600	6.0000e-001	-118.835449	-39.955826
 601	6.0100e-001	-119.873047	-40.491750
 602	6.0200e-001	-121.398926	-40.977646
 603	6.0300e-001	-122.497559	-41.475877
 604	6.0400e-001	-123.603821	-41.941213
 605	6.0500e-001	-124.877930	-42.402436
 606	6.0600e-001	-125.915527	-42.851324
 607	6.0700e-001	-126.976013	-43.290618
 608	6.0800e-001	-128.211975	-43.679197
 609	6.0900e-001	-129.714966	-44.100672
 610	6.1000e-001	-130.645752	-44.482398
 611	6.1100e-001	-131.835938	-44.845621
 612	6.1200e-001	-132.972717	-45.197192
 613	6.1300e-001	-134.124756	-45.540540
 614	6.1400e-001	-135.345459	-45.844825
 615	6.1500e-001	-136.314392	-46.143626
 616	6.1600e-001	-138.229370	-46.410903
 617	6.1700e-001	-139.541626	-46.676809
 618	6.1800e-001	-140.350342	-46.899540
 619	6.1900e-001	-141.723633	-47.129124
 620	6.2000e-001	-143.005371	-47.318274
 621	6.2100e-001	-143.974304	-47.521815
 622	6.2200e-001	-145.240784	-47.676699
 623	6.2300e-001	-146.316528	-47.848030
 624	6.2400e-001	-147.666931	-47.986466
 625	6.2500e-001	-148.681641	-48.122160
 626	6.2600e-001	-150.161743	-48.238665
 627	6.2700e-001	-151.313782	-48.359282
 628	6.2800e-001	-152.267456	-48.451801
 629	6.2900e-001	-153.671265	-48.553915
 630	6.3000e-001	-154.891968	-48.641636
 631	6.3100e-001	-156.013489	-48.747177
 632	6.3200e-001	-157.562256	-48.835583
 633	6.3300e-001	-158.493042	-48.882186
 634	6.3400e-001	-159.568787	-48.977446
 635	6.3500e-001	-161.003113	-49.032272
 636	6.3600e-001	-162.078857	-49.103546
 637	6.3700e-001	-163.383484	-49.170022
 638	6.3800e-001	-164.474487	-49.228960
 639	6.3900e-001	-165.794373	-49.297493
 640	6.4000e-001	-166.900635	-49.353689
 641	6.4100e-001	-167.884827	-49.418795
 642	6.4200e-001	-169.410706	-49.478418
 643	6.4300e-001	-170.509338	-49.519538
 644	6.4400e-001	-171.813965	-49.578476
 645	6.4500e-001	-172.882080	-49.632617
 646	6.4600e-001	-174.224854	-49.693611
 647	6.4700e-001	-175.224304	-49.736786
 648	6.4800e-001	-176.589966	-49.789556
 649	6.4900e-001	-178.092957	-49.843697
 650	6.5000e-001	-178.749084	-49.895781
 651	6.5100e-001	-179.908752	-49.946495
 652	6.5200e-001	-181.388855	-50.010916
 653	6.5300e-001	-182.312012	-50.048609
 654	6.5400e-001	-183.677673	-50.093155
 655	6.5500e-001	-184.936523	-50.132219
 656	6.5600e-001	-185.997009	-50.187730
 657	6.5700e-001	-187.225342	-50.232961
 658	6.5800e-001	-188.674927	-50.291899
 659	6.5900e-001	-189.483643	-50.319998
 660	6.6000e-001	-190.734863	-50.372082
 661	6.6100e-001	-192.260742	-50.407719
 662	6.6200e-001	-193.283081	-50.467343
 663	6.6300e-001	-194.480896	-50.501609
 664	6.6400e-001	-195.693970	-50.561232
 665	6.6500e-001	-196.907043	-50.605093
 666	6.6600e-001	-197.990417	-50.653066
 667	6.6700e-001	-199.409485	-50.689388
 668	6.6800e-001	-200.515747	-50.743529
 669	6.6900e-001	-201.828003	-50.777110
 670	6.7000e-001	-203.018188	-50.825768
 671	6.7100e-001	-204.269409	-50.864831
 672	6.7200e-001	-205.123901	-50.914860
 673	6.7300e-001	-206.596375	-50.946385
 674	6.7400e-001	-207.626343	-50.996414
 675	6.7500e-001	-208.747864	-51.030680
 676	6.7600e-001	-209.983826	-51.077282
 677	6.7700e-001	-211.288452	-51.136220
 678	6.7800e-001	-212.463379	-51.172542
 679	6.7900e-001	-213.920593	-51.196529
 680	6.8000e-001	-214.828491	-51.247928
 681	6.8100e-001	-216.270447	-51.281509
 682	6.8200e-001	-217.498779	-51.330852
 683	6.8300e-001	-218.490601	-51.375398
 684	6.8400e-001	-219.512939	-51.420630
 685	6.8500e-001	-220.695496	-51.450784
 686	6.8600e-001	-222.106934	-51.490533
 687	6.8700e-001	-223.358154	-51.528226
 688	6.8800e-001	-224.517822	-51.565233
 689	6.8900e-001	-225.753784	-51.622115
 690	6.9000e-001	-226.806641	-51.661864
 691	6.9100e-001	-228.096008	-51.707781
 692	6.9200e-001	-229.156494	-51.732453
 693	6.9300e-001	-230.438232	-51.766034
 694	6.9400e-001	-231.719971	-51.813321
 695	6.9500e-001	-232.872009	-51.874315
 696	6.9600e-001	-234.176636	-51.907211
 697	6.9700e-001	-235.290527	-51.934624
 698	6.9800e-001	-236.434937	-51.961351
 699	6.9900e-001	-237.792969	-52.007268
 700	7.0000e-001	-238.891602	-52.047702
 701	7.0100e-001	-240.234375	-52.090193
 702	7.0200e-001	-241.348267	-52.118976
 703	7.0300e-001	-242.431641	-52.158725
 704	7.0400e-001	-243.499756	-52.201901
 705	7.0500e-001	-244.979858	-52.242335
 706	7.0600e-001	-246.002197	-52.271804
 707	7.0700e-001	-247.238159	-52.313608
 708	7.0800e-001	-248.451233	-52.353357
 709	7.0900e-001	-249.855042	-52.406813
 710	7.1000e-001	-250.885010	-52.430799
 711	7.1100e-001	-251.983643	-52.472604
 712	7.1200e-001	-253.364563	-52.503444
 713	7.1300e-001	-254.302979	-52.545934
 714	7.1400e-001	-255.554199	-52.583627
 715	7.1500e-001	-256.866455	-52.637082
 716	7.1600e-001	-258.277893	-52.654215
 717	7.1700e-001	-259.124756	-52.691908
 718	7.1800e-001	-260.490417	-52.722062
 719	7.1900e-001	-261.688232	-52.778944
 720	7.2000e-001	-262.748718	-52.799504
 721	7.2100e-001	-264.137268	-52.844050
 722	7.2200e-001	-265.228271	-52.883114
 723	7.2300e-001	-266.433716	-52.912583
 724	7.2400e-001	-267.417908	-52.955073
 725	7.2500e-001	-268.859863	-52.985912
 726	7.2600e-001	-269.760132	-53.023605
 727	7.2700e-001	-271.331787	-53.071578
 728	7.2800e-001	-272.552490	-53.091453
 729	7.2900e-001	-273.750305	-53.136684
 730	7.3000e-001	-274.795532	-53.181915
 731	7.3100e-001	-276.306152	-53.218238
 732	7.3200e-001	-277.099609	-53.251819
 733	7.3300e-001	-278.419495	-53.275805
 734	7.3400e-001	-279.785156	-53.312127
 735	7.3500e-001	-280.853271	-53.354617
 736	7.3600e-001	-282.012939	-53.381345
 737	7.3700e-001	-283.271790	-53.430688
 738	7.3800e-001	-284.423828	-53.458101
 739	7.3900e-001	-285.629272	-53.497850
 740	7.4000e-001	-287.048340	-53.521151
 741	7.4100e-001	-288.116455	-53.560900
 742	7.4200e-001	-289.413452	-53.610244
 743	7.4300e-001	-290.618896	-53.624635
 744	7.4400e-001	-291.526794	-53.659587
 745	7.4500e-001	-292.900085	-53.696595
 746	7.4600e-001	-294.174194	-53.741141
 747	7.4700e-001	-295.249939	-53.777463
 748	7.4800e-001	-296.363831	-53.789799
 749	7.4900e-001	-297.752380	-53.839142
 750	7.5000e-001	-298.820496	-53.861073
 751	7.5100e-001	-300.109863	-53.898766
 752	7.5200e-001	-298.995972	-53.879576
 753	7.5300e-001	-297.569275	-53.851478
 754	7.5400e-001	-296.295166	-53.837086
 755	7.5500e-001	-295.372009	-53.802135
 756	7.5600e-001	-294.174194	-53.794596
 757	7.5700e-001	-293.190002	-53.767868
 758	7.5800e-001	-291.442871	-53.738399
 759	7.5900e-001	-290.702820	-53.706874
 760	7.6000e-001	-289.573669	-53.681517
 761	7.6100e-001	-288.055420	-53.652048
 762	7.6200e-001	-286.918640	-53.619153
 763	7.6300e-001	-285.728455	-53.584201
 764	7.6400e-001	-284.439087	-53.560900
 765	7.6500e-001	-283.210754	-53.540340
 766	7.6600e-001	-282.272339	-53.508130
 767	7.6700e-001	-281.044006	-53.472493
 768	7.6800e-001	-279.968262	-53.445766
 769	7.6900e-001	-278.778076	-53.432744
 770	7.7000e-001	-277.374268	-53.381345
 771	7.7100e-001	-276.351929	-53.353932
 772	7.7200e-001	-275.077820	-53.347764
 773	7.7300e-001	-273.651123	-53.303903
 774	7.7400e-001	-272.659302	-53.279917
 775	7.7500e-001	-271.293640	-53.241539
 776	7.7600e-001	-270.248413	-53.218923
 777	7.7700e-001	-269.165039	-53.175062
 778	7.7800e-001	-267.494202	-53.160670
 779	7.7900e-001	-266.670227	-53.118866
 780	7.8000e-001	-265.426636	-53.103103
 781	7.8100e-001	-264.228821	-53.051018
 782	7.8200e-001	-262.863159	-53.048962
 783	7.8300e-001	-261.688232	-52.997563
 784	7.8400e-001	-260.559082	-52.970150
 785	7.8500e-001	-259.559631	-52.951646
 786	7.8600e-001	-258.056641	-52.932457
 787	7.8700e-001	-256.927490	-52.875575
 788	7.8800e-001	-255.836487	-52.849533
 789	7.8900e-001	-254.463196	-52.831714
 790	7.9000e-001	-253.326416	-52.790595
 791	7.9100e-001	-252.143860	-52.754958
 792	7.9200e-001	-250.747681	-52.731657
 793	7.9300e-001	-250.045776	-52.687796
 794	7.9400e-001	-248.397827	-52.654215
 795	7.9500e-001	-247.154236	-52.628173
 796	7.9600e-001	-246.025085	-52.583627
 797	7.9700e-001	-244.720459	-52.556214
 798	7.9800e-001	-243.553162	-52.528801
 799	7.9900e-001	-242.599487	-52.502758
 800	8.0000e-001	-241.218567	-52.478772
 801	8.0100e-001	-240.005493	-52.404071
 802	8.0200e-001	-238.952637	-52.400645
 803	8.0300e-001	-237.800598	-52.363637
 804	8.0400e-001	-236.541748	-52.339651
 805	8.0500e-001	-235.404968	-52.302643
 806	8.0600e-001	-234.016418	-52.256041
 807	8.0700e-001	-232.864380	-52.235481
 808	8.0800e-001	-231.765747	-52.205327
 809	8.0900e-001	-230.422974	-52.160781
 810	8.1000e-001	-229.080200	-52.129256
 811	8.1100e-001	-228.019714	-52.103214
 812	8.1200e-001	-226.791382	-52.068262
 813	8.1300e-001	-225.791931	-52.028513
 814	8.1400e-001	-224.494934	-51.997674
 815	8.1500e-001	-223.106384	-51.944904
 816	8.1600e-001	-221.923828	-51.929141
 817	8.1700e-001	-220.809937	-51.896931
 818	8.1800e-001	-219.573975	-51.857182
 819	8.1900e-001	-218.566895	-51.822916
 820	8.2000e-001	-217.208862	-51.790705
 821	8.2100e-001	-216.049194	-51.752327
 822	8.2200e-001	-214.973450	-51.716690
 823	8.2300e-001	-213.745117	-51.678997
 824	8.2400e-001	-212.593079	-51.641990
 825	8.2500e-001	-211.341858	-51.612521
 826	8.2600e-001	-210.121155	-51.551527
 827	8.2700e-001	-208.854675	-51.546044
 828	8.2800e-001	-207.672119	-51.491218
 829	8.2900e-001	-206.527710	-51.462435
 830	8.3000e-001	-205.345154	-51.451469
 831	8.3100e-001	-203.971863	-51.395273
 832	8.3200e-001	-203.033447	-51.356895
 833	8.3300e-001	-201.560974	-51.312348
 834	8.3400e-001	-200.355530	-51.288362
 835	8.3500e-001	-199.073792	-51.249299
 836	8.3600e-001	-197.776794	-51.211606
 837	8.3700e-001	-196.823120	-51.173913
 838	8.3800e-001	-195.617676	-51.133479
 839	8.3900e-001	-194.396973	-51.103324
 840	8.4000e-001	-192.817688	-51.063575
 841	8.4100e-001	-191.802979	-51.025883
 842	8.4200e-001	-190.979004	-50.982022
 843	8.4300e-001	-189.460754	-50.953238
 844	8.4400e-001	-188.285828	-50.914175
 845	8.4500e-001	-187.431335	-50.865516
 846	8.4600e-001	-186.050415	-50.833992
 847	8.4700e-001	-184.936523	-50.798355
 848	8.4800e-001	-183.532715	-50.747641
 849	8.4900e-001	-182.174683	-50.719542
 850	8.5000e-001	-181.114197	-50.682535
 851	8.5100e-001	-179.931641	-50.635247
 852	8.5200e-001	-178.947449	-50.611261
 853	8.5300e-001	-177.536011	-50.559176
 854	8.5400e-001	-176.605225	-50.525595
 855	8.5500e-001	-175.117493	-50.492700
 856	8.5600e-001	-174.423218	-50.438559
 857	8.5700e-001	-172.882080	-50.400866
 858	8.5800e-001	-171.691895	-50.357005
 859	8.5900e-001	-170.394897	-50.322739
 860	8.6000e-001	-169.181824	-50.268598
 861	8.6100e-001	-168.029785	-50.237759
 862	8.6200e-001	-166.893005	-50.201436
 863	8.6300e-001	-165.473938	-50.169226
 864	8.6400e-001	-164.642334	-50.126736
 865	8.6500e-001	-163.269043	-50.066427
 866	8.6600e-001	-161.949158	-50.036273
 867	8.6700e-001	-160.995483	-49.999951
 868	8.6800e-001	-159.538269	-49.953349
 869	8.6900e-001	-158.576965	-49.914971
 870	8.7000e-001	-157.264709	-49.873166
 871	8.7100e-001	-156.028748	-49.837529
 872	8.7200e-001	-154.914856	-49.791612
 873	8.7300e-001	-153.823853	-49.733359
 874	8.7400e-001	-152.664185	-49.698408
 875	8.7500e-001	-151.123047	-49.684701
 876	8.7600e-001	-149.986267	-49.628505
 877	8.7700e-001	-148.681641	-49.580532
 878	8.7800e-001	-147.705078	-49.531188
 879	8.7900e-001	-146.522522	-49.492810
 880	8.8000e-001	-145.393372	-49.457173
 881	8.8100e-001	-143.791199	-49.390011
 882	8.8200e-001	-142.768860	-49.355745
 883	8.8300e-001	-141.586304	-49.309143
 884	8.8400e-001	-140.464783	-49.284471
 885	8.8500e-001	-139.076233	-49.228275
 886	8.8600e-001	-138.031006	-49.185099
 887	8.8700e-001	-136.871338	-49.142609
 888	8.8800e-001	-135.681152	-49.091895
 889	8.8900e-001	-134.597778	-49.047349
 890	8.9000e-001	-133.377075	-48.995264
 891	8.9100e-001	-131.851196	-48.928788
 892	8.9200e-001	-130.706787	-48.913711
 893	8.9300e-001	-129.554749	-48.859570
 894	8.9400e-001	-128.257751	-48.825304
 895	8.9500e-001	-127.075195	-48.773219
 896	8.9600e-001	-125.991821	-48.720449
 897	8.9700e-001	-124.855042	-48.684127
 898	8.9800e-001	-123.901367	-48.634783
 899	8.9900e-001	-122.474670	-48.584069
 900	9.0000e-001	-120.887756	-48.544320
 901	9.0100e-001	-120.147705	-48.482641
 902	9.0200e-001	-118.728638	-48.457969
 903	9.0300e-001	-117.866516	-48.401773
 904	9.0400e-001	-116.447449	-48.340779
 905	9.0500e-001	-115.447998	-48.284582
 906	9.0600e-001	-114.196777	-48.274302
 907	9.0700e-001	-112.762451	-48.215364
 908	9.0800e-001	-111.778259	-48.156426
 909	9.0900e-001	-110.565186	-48.103656
 910	9.1000e-001	-109.283447	-48.059795
 911	9.1100e-001	-108.207703	-48.016620
 912	9.1200e-001	-106.857300	-47.954941
 913	9.1300e-001	-105.583191	-47.902171
 914	9.1400e-001	-104.393005	-47.856939
 915	9.1500e-001	-103.469849	-47.808281
 916	9.1600e-001	-102.203369	-47.756882
 917	9.1700e-001	-100.662231	-47.706853
 918	9.1800e-001	-99.838257	-47.653398
 919	9.1900e-001	-98.602295	-47.605425
 920	9.2000e-001	-97.488403	-47.560879
 921	9.2100e-001	-95.924377	-47.466989
 922	9.2200e-001	-94.650269	-47.446429
 923	9.2300e-001	-93.383789	-47.393659
 924	9.2400e-001	-92.277527	-47.340889
 925	9.2500e-001	-91.293335	-47.278525
 926	9.2600e-001	-90.003967	-47.247685
 927	9.2700e-001	-88.661194	-47.166817
 928	9.2800e-001	-87.463379	-47.123641
 929	9.2900e-001	-86.593628	-47.053053
 930	9.3000e-001	-85.212708	-47.016731
 931	9.3100e-001	-84.022522	-46.964646
 932	9.3200e-001	-82.687378	-46.910505
 933	9.3300e-001	-81.718445	-46.847455
 934	9.3400e-001	-80.551147	-46.789888
 935	9.3500e-001	-79.200745	-46.734377
 936	9.3600e-001	-78.102112	-46.709020
 937	9.3700e-001	-76.950073	-46.623354
 938	9.3800e-001	-75.820923	-46.558933
 939	9.3900e-001	-74.317932	-46.502737
 940	9.4000e-001	-73.066711	-46.452023
 941	9.4100e-001	-72.113037	-46.384175
 942	9.4200e-001	-71.022034	-46.327979
 943	9.4300e-001	-69.679260	-46.267670
 944	9.4400e-001	-68.344116	-46.213530
 945	9.4500e-001	-67.192078	-46.139514
 946	9.4600e-001	-65.917969	-46.084688
 947	9.4700e-001	-65.010071	-46.024380
 948	9.4800e-001	-63.575745	-45.947623
 949	9.4900e-001	-62.271118	-45.891427
 950	9.5000e-001	-61.080933	-45.828377
 951	9.5100e-001	-60.020447	-45.766012
 952	9.5200e-001	-59.013367	-45.707074
 953	9.5300e-001	-57.441711	-45.646080
 954	9.5400e-001	-56.251526	-45.569324
 955	9.5500e-001	-55.152893	-45.511071
 956	9.5600e-001	-54.077148	-45.458301
 957	9.5700e-001	-52.772522	-45.369894
 958	9.5800e-001	-51.528931	-45.291082
 959	9.5900e-001	-50.407410	-45.234885
 960	9.6000e-001	-49.339294	-45.168409
 961	9.6100e-001	-48.080444	-45.093708
 962	9.6200e-001	-46.524048	-45.023805
 963	9.6300e-001	-45.722961	-44.951161
 964	9.6400e-001	-44.738770	-44.883313
 965	9.6500e-001	-43.083191	-44.809298
 966	9.6600e-001	-42.007446	-44.733913
 967	9.6700e-001	-40.931702	-44.666065
 968	9.6800e-001	-39.573669	-44.573546
 969	9.6900e-001	-38.253784	-44.496790
 970	9.7000e-001	-37.254333	-44.418663
 971	9.7100e-001	-36.109924	-44.331627
 972	9.7200e-001	-34.675598	-44.239793
 973	9.7300e-001	-33.622742	-44.149330
 974	9.7400e-001	-32.531738	-44.069833
 975	9.7500e-001	-31.349182	-43.988279
 976	9.7600e-001	-29.800415	-43.884795
 977	9.7700e-001	-28.404236	-43.803241
 978	9.7800e-001	-27.336121	-43.692218
 979	9.7900e-001	-26.268005	-43.592846
 980	9.8000e-001	-25.062561	-43.476341
 981	9.8100e-001	-24.024963	-43.354353
 982	9.8200e-001	-22.911072	-43.259778
 983	9.8300e-001	-21.476746	-43.146700
 984	9.8400e-001	-20.278931	-43.000040
 985	9.8500e-001	-19.561768	-42.861604
 986	9.8600e-001	-17.890930	-42.697126
 987	9.8700e-001	-16.700745	-42.559376
 988	9.8800e-001	-15.632629	-42.386674
 989	9.8900e-001	-14.541626	-42.205063
 990	9.9000e-001	-13.313293	-42.008375
 991	9.9100e-001	-12.153625	-41.808260
 992	9.9200e-001	-10.490417	-41.594438
 993	9.9300e-001	-9.765625	-41.346350
 994	9.9400e-001	-8.224487	-41.077018
 995	9.9500e-001	-7.102966	-40.778901
 996	9.9600e-001	-6.011963	-40.491065
 997	9.9700e-001	-4.669189	-40.150458
 998	9.9800e-001	-3.616333	-39.778327
 999	9.9900e-001	-2.159119	-39.389747
1000	1.0000e+000	-1.182556	-38.973755
1001	1.0010e+000	-0.053406	-38.515958
1002	1.0020e+000	0.900269	-38.034859
1003	1.0030e+000	2.143860	-37.529775
1004	1.0040e+000	3.532410	-36.978773
1005	1.0050e+000	4.577637	-36.403100
1006	1.0060e+000	5.928040	-35.784252
1007	1.0070e+000	6.858826	-35.148955
1008	1.0080e+000	8.270264	-34.457462
1009	1.0090e+000	9.498596	-33.759116
1010	1.0100e+000	10.604858	-33.018965
1011	1.0110e+000	11.756897	-32.274016
1012	1.0120e+000	13.130188	-31.470815
1013	1.0130e+000	14.198303	-30.677209
1014	1.0140e+000	15.457153	-29.851392
1015	1.0150e+000	16.777039	-29.046135
1016	1.0160e+000	17.906189	-28.230598
1017	1.0170e+000	19.073486	-27.426026
1018	1.0180e+000	20.233154	-26.635161
1019	1.0190e+000	21.118164	-25.905290
1020	1.0200e+000	22.918701	-25.248748
1021	1.0210e+000	23.658752	-24.646348
1022	1.0220e+000	24.963379	-24.078213
1023	1.0230e+000	26.077271	-23.576555
1024	1.0240e+000	27.381897	-23.116702
1025	1.0250e+000	28.549194	-22.621212
1026	1.0260e+000	29.975891	-22.122981
1027	1.0270e+000	30.868530	-21.593910
1028	1.0280e+000	32.196045	-21.047020
1029	1.0290e+000	33.676147	-20.463123
1030	1.0300e+000	34.637451	-19.847016
1031	1.0310e+000	36.079407	-19.195272
1032	1.0320e+000	37.239075	-18.525024
1033	1.0330e+000	37.933350	-17.791040
1034	1.0340e+000	39.344788	-17.036497
1035	1.0350e+000	40.527344	-16.234667
1036	1.0360e+000	41.999817	-15.406794
1037	1.0370e+000	42.984009	-14.545341
1038	1.0380e+000	44.128418	-13.635914
1039	1.0390e+000	45.478821	-12.707299
1040	1.0400e+000	46.371460	-11.716318
1041	1.0410e+000	47.622681	-10.717800
1042	1.0420e+000	49.110413	-9.698036
1043	1.0430e+000	50.064087	-8.639894
1044	1.0440e+000	51.177979	-7.549542
1045	1.0450e+000	52.391052	-6.455763
1046	1.0460e+000	53.657532	-5.346221
1047	1.0470e+000	54.878235	-4.221603
1048	1.0480e+000	56.060791	-3.088760
1049	1.0490e+000	57.342529	-1.945638
1050	1.0500e+000	58.708191	-0.823761
1051	1.0510e+000	59.738159	0.292634
1052	1.0520e+000	60.897827	1.403546
1053	1.0530e+000	62.057495	2.465114
1054	1.0540e+000	63.369751	3.504753
1055	1.0550e+000	64.781189	4.486138
1056	1.0560e+000	65.750122	5.442852
1057	1.0570e+000	67.108154	6.307732
1058	1.0580e+000	68.222046	7.132864
1059	1.0590e+000	69.442749	7.902484
1060	1.0600e+000	70.686340	8.574788
1061	1.0610e+000	71.731567	9.227903
1062	1.0620e+000	73.059082	9.824136
1063	1.0630e+000	74.394226	10.379249
1064	1.0640e+000	75.462341	10.915173
1065	1.0650e+000	76.713562	11.429167
1066	1.0660e+000	77.903748	11.932196
1067	1.0670e+000	79.185486	12.407811
1068	1.0680e+000	80.154419	12.878630
1069	1.0690e+000	81.588745	13.341224
1070	1.0700e+000	82.778931	13.831917
1071	1.0710e+000	83.808899	14.308218
1072	1.0720e+000	85.220337	14.790002
1073	1.0730e+000	86.418152	15.279324
1074	1.0740e+000	87.600708	15.768646
1075	1.0750e+000	88.714600	16.264821
1076	1.0760e+000	90.026855	16.775389
1077	1.0770e+000	91.362000	17.290753
1078	1.0780e+000	91.926575	17.817083
1079	1.0790e+000	93.688965	18.351636
1080	1.0800e+000	94.718933	18.903323
1081	1.0810e+000	95.863342	19.451583
1082	1.0820e+000	96.946716	20.026571
1083	1.0830e+000	98.022461	20.592650
1084	1.0840e+000	99.327087	21.184770
1085	1.0850e+000	101.020813	21.787171
1086	1.0860e+000	101.715088	22.384775
1087	1.0870e+000	102.928162	23.007050
1088	1.0880e+000	104.118347	23.610821
1089	1.0890e+000	105.384827	24.247488
1090	1.0900e+000	106.727600	24.888267
1091	1.0910e+000	107.925415	25.517396
1092	1.0920e+000	108.840942	26.143783
1093	1.0930e+000	110.282898	26.798269
1094	1.0940e+000	111.526489	27.455495
1095	1.0950e+000	112.724304	28.115463
1096	1.0960e+000	113.761902	28.747333
1097	1.0970e+000	114.997864	29.407987
1098	1.0980e+000	116.165161	30.035059
1099	1.0990e+000	117.477417	30.689545
1100	1.1000e+000	118.820190	31.323470
1101	1.1010e+000	119.857788	31.946431
1102	1.1020e+000	121.131897	32.566650
1103	1.1030e+000	122.520447	33.197149
1104	1.1040e+000	123.397827	33.792697
1105	1.1050e+000	124.771118	34.394412
1106	1.1060e+000	125.877380	34.953638
1107	1.1070e+000	126.823425	35.548500
1108	1.1080e+000	128.273010	36.106354
1109	1.1090e+000	129.585266	36.650503
1110	1.1100e+000	130.569458	37.182315
1111	1.1110e+000	131.935120	37.690141
1112	1.1120e+000	132.911682	38.198652
1113	1.1130e+000	134.086609	38.683177
1114	1.1140e+000	135.345459	39.150569
1115	1.1150e+000	136.413574	39.620702
1116	1.1160e+000	137.893677	40.037379
1117	1.1170e+000	139.053345	40.472561
1118	1.1180e+000	140.434265	40.850175
1119	1.1190e+000	141.586304	41.269594
1120	1.1200e+000	142.692566	41.623907
1121	1.1210e+000	143.707275	41.991241
1122	1.1220e+000	145.263672	42.333904
1123	1.1230e+000	146.324158	42.645727
1124	1.1240e+000	147.460938	42.961662
1125	1.1250e+000	148.704529	43.263205
1126	1.1260e+000	149.971008	43.544873
1127	1.1270e+000	151.107788	43.805297
1128	1.1280e+000	152.252197	44.068462
1129	1.1290e+000	153.602600	44.303528
1130	1.1300e+000	154.861450	44.541336
1131	1.1310e+000	155.754089	44.762696
1132	1.1320e+000	157.249451	44.972406
1133	1.1330e+000	158.287048	45.174577
1134	1.1340e+000	159.751892	45.358244
1135	1.1350e+000	160.743713	45.559044
1136	1.1360e+000	162.162781	45.731746
1137	1.1370e+000	163.070679	45.883203
1138	1.1380e+000	164.436340	46.038772
1139	1.1390e+000	165.527344	46.197767
1140	1.1400e+000	166.625977	46.331405
1141	1.1410e+000	168.060303	46.486289
1142	1.1420e+000	169.151306	46.615815
1143	1.1430e+000	170.234680	46.736433
1144	1.1440e+000	171.417236	46.868015
1145	1.1450e+000	172.836304	46.998912
1146	1.1460e+000	173.805237	47.115417
1147	1.1470e+000	175.117493	47.236720
1148	1.1480e+000	176.368713	47.342260
1149	1.1490e+000	177.482605	47.462877
1150	1.1500e+000	178.665161	47.569788
1151	1.1510e+000	180.099487	47.670531
1152	1.1520e+000	180.923462	47.777441
1153	1.1530e+000	182.258606	47.878184
1154	1.1540e+000	183.647156	47.984410
1155	1.1550e+000	184.555054	48.069390
1156	1.1560e+000	185.966492	48.165335
1157	1.1570e+000	187.210083	48.253742
1158	1.1580e+000	188.407898	48.359968
1159	1.1590e+000	189.483643	48.455913
1160	1.1600e+000	190.711975	48.559397
1161	1.1610e+000	192.008972	48.627245
1162	1.1620e+000	193.092346	48.721134
1163	1.1630e+000	194.000244	48.808170
1164	1.1640e+000	195.602417	48.900004
1165	1.1650e+000	196.861267	48.976760
1166	1.1660e+000	197.906494	49.052832
1167	1.1670e+000	198.791504	49.134385
1168	1.1680e+000	200.325012	49.211827
1169	1.1690e+000	201.606750	49.291325
1170	1.1700e+000	202.690125	49.386585
1171	1.1710e+000	204.032898	49.462656
1172	1.1720e+000	205.253601	49.531874
1173	1.1730e+000	206.375122	49.613427
1174	1.1740e+000	207.550049	49.685387
1175	1.1750e+000	208.869934	49.755975
1176	1.1760e+000	209.945679	49.829990
1177	1.1770e+000	211.151123	49.904005
1178	1.1780e+000	212.493896	49.974594
1179	1.1790e+000	213.294983	50.056148
1180	1.1800e+000	214.790344	50.128792
1181	1.1810e+000	215.858459	50.186359
1182	1.1820e+000	216.896057	50.259004
1183	1.1830e+000	218.299866	50.315886
1184	1.1840e+000	219.696045	50.394013
1185	1.1850e+000	220.695496	50.465972
1186	1.1860e+000	222.175598	50.524910
1187	1.1870e+000	222.938538	50.587274
1188	1.1880e+000	224.662781	50.652380
1189	1.1890e+000	225.563049	50.711318
1190	1.1900e+000	226.814270	50.781907
1191	1.1910e+000	228.073120	50.845642
1192	1.1920e+000	229.202271	50.910063
1193	1.1930e+000	230.194092	50.958721
1194	1.1940e+000	231.719971	51.029309
1195	1.1950e+000	232.673645	51.093044
1196	1.1960e+000	233.909607	51.151297
1197	1.1970e+000	234.779358	51.207494
1198	1.1980e+000	236.274719	51.257522
1199	1.1990e+000	237.525940	51.321943
1200	1.2000e+000	238.609314	51.380881
1201	1.2010e+000	240.020752	51.442560
1202	1.2020e+000	241.172791	51.498757
1203	1.2030e+000	242.561340	51.566604
1204	1.2040e+000	243.743896	51.603612
1205	1.2050e+000	244.636536	51.670774
1206	1.2060e+000	245.956421	51.708466
1207	1.2070e+000	247.505188	51.783852
1208	1.2080e+000	248.603821	51.835252
1209	1.2090e+000	249.565125	51.885966
1210	1.2100e+000	250.701904	51.943533
1211	1.2110e+000	252.044678	51.992191
1212	1.2120e+000	253.181458	52.049073
1213	1.2130e+000	254.302979	52.097046
1214	1.2140e+000	255.546570	52.138165
1215	1.2150e+000	256.805420	52.200530
1216	1.2160e+000	258.132935	52.240964
1217	1.2170e+000	259.086609	52.293049
1218	1.2180e+000	260.276794	52.351987
1219	1.2190e+000	261.405945	52.414351
1220	1.2200e+000	262.763977	52.439708
1221	1.2210e+000	264.060974	52.491108
1222	1.2220e+000	265.060425	52.554158
1223	1.2230e+000	266.357422	52.602816
1224	1.2240e+000	267.410278	52.649418
1225	1.2250e+000	268.669128	52.700132
1226	1.2260e+000	269.844055	52.728916
1227	1.2270e+000	271.041870	52.799504
1228	1.2280e+000	272.216797	52.835141
1229	1.2290e+000	273.567200	52.895450
1230	1.2300e+000	274.864197	52.917380
1231	1.2310e+000	276.298523	52.976318
1232	1.2320e+000	277.198792	53.020179
1233	1.2330e+000	278.251648	53.080487
1234	1.2340e+000	279.403687	53.114754
1235	1.2350e+000	280.586243	53.166153
1236	1.2360e+000	281.822205	53.205902
1237	1.2370e+000	282.981873	53.266210
1238	1.2380e+000	284.416199	53.290197
1239	1.2390e+000	285.583496	53.338855
1240	1.2400e+000	286.811829	53.387513
1241	1.2410e+000	287.559509	53.435486
1242	1.2420e+000	289.146423	53.471808
1243	1.2430e+000	290.443420	53.515669
1244	1.2440e+000	291.496277	53.542396
1245	1.2450e+000	292.755127	53.599278
1246	1.2460e+000	294.052124	53.639027
1247	1.2470e+000	295.036316	53.690427
1248	1.2480e+000	296.356201	53.726749
1249	1.2490e+000	297.485352	53.778834
1250	1.2500e+000	298.713684	53.815841
1251	1.2510e+000	299.713135	53.872723
1252	1.2520e+000	298.660278	53.823380
1253	1.2530e+000	297.294617	53.817897
1254	1.2540e+000	296.272278	53.809673
1255	1.2550e+000	295.143127	53.776092
1256	1.2560e+000	293.815613	53.747309
1257	1.2570e+000	292.922974	53.732917
1258	1.2580e+000	291.542053	53.681517
1259	1.2590e+000	290.077209	53.665070
1260	1.2600e+000	289.062500	53.640398
1261	1.2610e+000	287.956238	53.623950
1262	1.2620e+000	286.499023	53.585572
1263	1.2630e+000	285.560608	53.567753
1264	1.2640e+000	284.179688	53.540340
1265	1.2650e+000	283.088684	53.494424
1266	1.2660e+000	281.784058	53.460843
1267	1.2670e+000	280.754089	53.437542
1268	1.2680e+000	279.411316	53.400534
1269	1.2690e+000	278.526306	53.379974
1270	1.2700e+000	277.061462	53.347079
1271	1.2710e+000	275.932312	53.314869
1272	1.2720e+000	274.589539	53.291567
1273	1.2730e+000	273.338318	53.262784
1274	1.2740e+000	272.132874	53.238797
1275	1.2750e+000	271.102905	53.213440
1276	1.2760e+000	270.095825	53.183286
1277	1.2770e+000	268.562317	53.142852
1278	1.2780e+000	267.242432	53.110642
1279	1.2790e+000	266.433716	53.089397
1280	1.2800e+000	264.991760	53.046906
1281	1.2810e+000	263.816833	53.023605
1282	1.2820e+000	262.779236	53.005102
1283	1.2830e+000	261.589050	52.960555
1284	1.2840e+000	260.368347	52.921492
1285	1.2850e+000	259.086609	52.895450
1286	1.2860e+000	257.865906	52.876260
1287	1.2870e+000	256.736755	52.833770
1288	1.2880e+000	255.378723	52.801560
1289	1.2890e+000	254.127502	52.765923
1290	1.2900e+000	253.105164	52.743307
1291	1.2910e+000	252.136230	52.685740
1292	1.2920e+000	250.686646	52.666551
1293	1.2930e+000	249.572754	52.635026
1294	1.2940e+000	248.344421	52.594592
1295	1.2950e+000	247.238159	52.563752
1296	1.2960e+000	245.986938	52.528115
1297	1.2970e+000	244.697571	52.493849
1298	1.2980e+000	243.713379	52.465065
1299	1.2990e+000	242.294312	52.430114
1300	1.3000e+000	241.203308	52.397903
1301	1.3010e+000	239.761353	52.363637
1302	1.3020e+000	238.822937	52.325259
1303	1.3030e+000	237.747192	52.290993
1304	1.3040e+000	236.602783	52.243020
1305	1.3050e+000	235.282898	52.223831
1306	1.3060e+000	234.161377	52.197103
1307	1.3070e+000	232.475281	52.149816
1308	1.3080e+000	231.689453	52.114864
1309	1.3090e+000	230.422974	52.077171
1310	1.3100e+000	229.209900	52.050444
1311	1.3110e+000	228.080750	52.003156
1312	1.3120e+000	226.814270	51.964778
1313	1.3130e+000	225.860596	51.938736
1314	1.3140e+000	224.662781	51.910637
1315	1.3150e+000	223.274231	51.866777
1316	1.3160e+000	222.038269	51.823601
1317	1.3170e+000	220.581055	51.787279
1318	1.3180e+000	219.474792	51.764663
1319	1.3190e+000	218.467712	51.704354
1320	1.3200e+000	217.124939	51.682424
1321	1.3210e+000	215.843201	51.654326
1322	1.3220e+000	214.569092	51.596758
1323	1.3230e+000	213.485718	51.564548
1324	1.3240e+000	212.440491	51.524114
1325	1.3250e+000	211.097717	51.480253
1326	1.3260e+000	209.899902	51.444616
1327	1.3270e+000	208.816528	51.401441
1328	1.3280e+000	207.687378	51.364433
1329	1.3290e+000	206.443787	51.320572
1330	1.3300e+000	205.268860	51.285621
1331	1.3310e+000	204.132080	51.251355
1332	1.3320e+000	203.010559	51.210920
1333	1.3330e+000	201.652527	51.175969
1334	1.3340e+000	200.416565	51.121143
1335	1.3350e+000	199.371338	51.088932
1336	1.3360e+000	198.043823	51.043701
1337	1.3370e+000	196.594238	50.999840
1338	1.3380e+000	195.510864	50.953923
1339	1.3390e+000	194.374084	50.916231
1340	1.3400e+000	193.214417	50.889503
1341	1.3410e+000	191.886902	50.838103
1342	1.3420e+000	190.757751	50.788075
1343	1.3430e+000	189.575195	50.765459
1344	1.3440e+000	188.224792	50.709262
1345	1.3450e+000	187.286377	50.673625
1346	1.3460e+000	185.867310	50.629079
1347	1.3470e+000	184.951782	50.587274
1348	1.3480e+000	183.723450	50.546155
1349	1.3490e+000	182.548523	50.499553
1350	1.3500e+000	181.091309	50.461175
1351	1.3510e+000	179.916382	50.418685
1352	1.3520e+000	178.947449	50.359747
1353	1.3530e+000	177.375793	50.337131
1354	1.3540e+000	176.330566	50.282990
1355	1.3550e+000	175.460815	50.246668
1356	1.3560e+000	174.057007	50.189786
1357	1.3570e+000	172.798157	50.137016
1358	1.3580e+000	171.531677	50.113030
1359	1.3590e+000	170.433044	50.054092
1360	1.3600e+000	168.945313	50.016399
1361	1.3610e+000	167.800903	49.965685
1362	1.3620e+000	166.824341	49.922509
1363	1.3630e+000	165.336609	49.886872
1364	1.3640e+000	164.482117	49.834788
1365	1.3650e+000	163.368225	49.779961
1366	1.3660e+000	161.819458	49.736101
1367	1.3670e+000	160.682678	49.682645
1368	1.3680e+000	159.477234	49.632617
1369	1.3690e+000	158.264160	49.589441
1370	1.3700e+000	156.883240	49.545580
1371	1.3710e+000	155.929565	49.497608
1372	1.3720e+000	154.975891	49.425648
1373	1.3730e+000	153.404236	49.400291
1374	1.3740e+000	152.328491	49.341353
1375	1.3750e+000	150.962830	49.304346
1376	1.3760e+000	149.871826	49.242667
1377	1.3770e+000	148.834229	49.200176
1378	1.3780e+000	147.735596	49.139182
1379	1.3790e+000	146.263123	49.103546
1380	1.3800e+000	145.202637	49.026789
1381	1.3810e+000	144.004822	48.990467
1382	1.3820e+000	142.852783	48.937012
1383	1.3830e+000	141.525269	48.886298
1384	1.3840e+000	140.579224	48.829416
1385	1.3850e+000	139.106750	48.778701
1386	1.3860e+000	137.855530	48.731414
1387	1.3870e+000	136.688232	48.679329
1388	1.3880e+000	135.467529	48.629301
1389	1.3890e+000	134.284973	48.562824
1390	1.3900e+000	133.125305	48.505942
1391	1.3910e+000	131.744385	48.464823
1392	1.3920e+000	131.134033	48.403143
1393	1.3930e+000	129.463196	48.347632
1394	1.3940e+000	128.311157	48.286638
1395	1.3950e+000	127.197266	48.230441
1396	1.3960e+000	125.816345	48.176301
1397	1.3970e+000	124.847412	48.129013
1398	1.3980e+000	123.527527	48.057739
1399	1.3990e+000	122.444153	48.003599
1400	1.4000e+000	120.948792	47.961109
1401	1.4010e+000	119.728088	47.896688
1402	1.4020e+000	118.461609	47.829526
1403	1.4030e+000	117.652893	47.764420
1404	1.4040e+000	116.249084	47.698629
1405	1.4050e+000	115.043640	47.654768
1406	1.4060e+000	113.922119	47.584180
1407	1.4070e+000	112.457275	47.525927
1408	1.4080e+000	111.358643	47.455339
1409	1.4090e+000	110.267639	47.388177
1410	1.4100e+000	108.978271	47.345001
1411	1.4110e+000	107.727051	47.271672
1412	1.4120e+000	106.628418	47.207251
1413	1.4130e+000	105.453491	47.156537
1414	1.4140e+000	104.393005	47.091431
1415	1.4150e+000	103.218079	47.020157
1416	1.4160e+000	102.035522	46.943401
1417	1.4170e+000	100.692749	46.886519
1418	1.4180e+000	99.609375	46.805650
1419	1.4190e+000	98.144531	46.746027
1420	1.4200e+000	97.190857	46.671327
1421	1.4210e+000	95.787048	46.600738
1422	1.4220e+000	94.696045	46.545912
1423	1.4230e+000	93.620300	46.460932
1424	1.4240e+000	92.445374	46.384861
1425	1.4250e+000	91.201782	46.322496
1426	1.4260e+000	90.034485	46.242998
1427	1.4270e+000	88.874817	46.175151
1428	1.4280e+000	87.577820	46.107304
1429	1.4290e+000	86.196899	46.029862
1430	1.4300e+000	85.327148	45.946253
1431	1.4310e+000	84.106445	45.872238
1432	1.4320e+000	83.053589	45.780404
1433	1.4330e+000	81.604004	45.721466
1434	1.4340e+000	80.154419	45.628947
1435	1.4350e+000	78.979492	45.542596
1436	1.4360e+000	78.048706	45.457616
1437	1.4370e+000	76.583862	45.395251
1438	1.4380e+000	75.675964	45.301362
1439	1.4390e+000	74.401855	45.234200
1440	1.4400e+000	73.181152	45.125233
1441	1.4410e+000	71.823120	45.051903
1442	1.4420e+000	70.777893	44.955273
1443	1.4430e+000	69.480896	44.857271
1444	1.4440e+000	68.473816	44.764067
1445	1.4450e+000	67.237854	44.679772
1446	1.4460e+000	66.017151	44.595477
1447	1.4470e+000	64.712524	44.489251
1448	1.4480e+000	63.613892	44.400159
1449	1.4490e+000	62.324524	44.288451
1450	1.4500e+000	61.195374	44.189079
1451	1.4510e+000	60.012817	44.095190
1452	1.4520e+000	59.036255	43.991020
1453	1.4530e+000	57.487488	43.886165
1454	1.4540e+000	56.358337	43.786793
1455	1.4550e+000	54.832458	43.675771
1456	1.4560e+000	54.092407	43.563377
1457	1.4570e+000	52.879333	43.437277
1458	1.4580e+000	51.445007	43.342017
1459	1.4590e+000	50.415039	43.217973
1460	1.4600e+000	49.232483	43.116545
1461	1.4610e+000	47.973633	42.983592
1462	1.4620e+000	46.836853	42.849268
1463	1.4630e+000	45.623779	42.731393
1464	1.4640e+000	44.250488	42.601866
1465	1.4650e+000	43.273926	42.466172
1466	1.4660e+000	42.205811	42.329792
1467	1.4670e+000	40.664673	42.183132
1468	1.4680e+000	39.360046	42.062515
1469	1.4690e+000	38.421631	41.893925
1470	1.4700e+000	37.155151	41.755490
1471	1.4710e+000	36.026001	41.592382
1472	1.4720e+000	34.721375	41.426533
1473	1.4730e+000	33.699036	41.266853
1474	1.4740e+000	32.333374	41.094836
1475	1.4750e+000	30.952454	40.926246
1476	1.4760e+000	30.082703	40.739838
1477	1.4770e+000	28.717041	40.544520
1478	1.4780e+000	27.671814	40.352629
1479	1.4790e+000	26.405334	40.150458
1480	1.4800e+000	25.123596	39.931154
1481	1.4810e+000	23.933411	39.707738
1482	1.4820e+000	22.972107	39.489119
1483	1.4830e+000	21.682739	39.258850
1484	1.4840e+000	20.362854	39.014189
1485	1.4850e+000	19.058228	38.757877
1486	1.4860e+000	17.829895	38.499510
1487	1.4870e+000	17.097473	38.212359
1488	1.4880e+000	15.434265	37.967698
1489	1.4890e+000	14.259338	37.647651
1490	1.4900e+000	13.229370	37.359814
1491	1.4910e+000	11.978149	37.050047
1492	1.4920e+000	10.643005	36.725888
1493	1.4930e+000	9.750366	36.382541
1494	1.4940e+000	8.415222	36.037137
1495	1.4950e+000	7.255554	35.669802
1496	1.4960e+000	5.851746	35.325769
1497	1.4970e+000	4.714966	34.924169
1498	1.4980e+000	3.570557	34.528736
1499	1.4990e+000	2.510071	34.102464
1500	1.5000e+000	1.205444	33.689213
1501	1.5010e+000	-0.091553	33.260199
1502	1.5020e+000	-1.243591	32.792807
1503	1.5030e+000	-2.365112	32.308968
1504	1.5040e+000	-3.608704	31.811422
1505	1.5050e+000	-5.004883	31.324841
1506	1.5060e+000	-5.867004	30.799197
1507	1.5070e+000	-7.148743	30.257105
1508	1.5080e+000	-8.361816	29.686914
1509	1.5090e+000	-9.628296	29.097534
1510	1.5100e+000	-10.894775	28.506784
1511	1.5110e+000	-12.023926	27.887250
1512	1.5120e+000	-13.031006	27.236877
1513	1.5130e+000	-14.251709	26.570741
1514	1.5140e+000	-15.716553	25.860058
1515	1.5150e+000	-16.555786	25.154859
1516	1.5160e+000	-17.990112	24.414022
1517	1.5170e+000	-19.157410	23.636864
1518	1.5180e+000	-20.271301	22.850110
1519	1.5190e+000	-21.514893	22.031147
1520	1.5200e+000	-22.598267	21.197106
1521	1.5210e+000	-23.818970	20.358268
1522	1.5220e+000	-25.115967	19.459122
1523	1.5230e+000	-26.321411	18.571626
1524	1.5240e+000	-27.534485	17.643695
1525	1.5250e+000	-28.564453	16.721248
1526	1.5260e+000	-29.830933	15.762478
1527	1.5270e+000	-31.143188	14.808505
1528	1.5280e+000	-32.272339	13.823693
1529	1.5290e+000	-33.485413	12.854643
1530	1.5300e+000	-34.828186	11.853383
1531	1.5310e+000	-35.980225	10.863774
1532	1.5320e+000	-37.101746	9.868682
1533	1.5330e+000	-38.146973	8.901003
1534	1.5340e+000	-39.520264	7.931953
1535	1.5350e+000	-40.763855	6.992372
1536	1.5360e+000	-41.671753	6.054162
1537	1.5370e+000	-42.984009	5.168722
1538	1.5380e+000	-44.189453	4.292191
1539	1.5390e+000	-45.310974	3.451297
1540	1.5400e+000	-46.394348	2.650152
1541	1.5410e+000	-47.981262	1.894239
1542	1.5420e+000	-49.079895	1.162311
1543	1.5430e+000	-50.262451	0.469448
1544	1.5440e+000	-51.475525	-0.202171
1545	1.5450e+000	-52.726746	-0.829929
1546	1.5460e+000	-54.092407	-1.451519
1547	1.5470e+000	-55.274963	-2.032674
1548	1.5480e+000	-56.289673	-2.607662
1549	1.5490e+000	-57.571411	-3.169629
1550	1.5500e+000	-58.830261	-3.726113
1551	1.5510e+000	-59.814453	-4.266834
1552	1.5520e+000	-61.195374	-4.809612
1553	1.5530e+000	-62.255859	-5.335941
1554	1.5540e+000	-63.484192	-5.873236
1555	1.5550e+000	-65.086365	-6.425608
1556	1.5560e+000	-65.895081	-6.962903
1557	1.5570e+000	-67.108154	-7.526241
1558	1.5580e+000	-68.244934	-8.066962
1559	1.5590e+000	-69.320679	-8.635782
1560	1.5600e+000	-70.701599	-9.209399
1561	1.5610e+000	-72.029114	-9.796037
1562	1.5620e+000	-73.013306	-10.391585
1563	1.5630e+000	-74.279785	-10.994671
1564	1.5640e+000	-75.263977	-11.623114
1565	1.5650e+000	-76.744080	-12.258411
1566	1.5660e+000	-78.033447	-12.914952
1567	1.5670e+000	-79.177856	-13.581773
1568	1.5680e+000	-80.451965	-14.276008
1569	1.5690e+000	-81.596375	-14.977095
1570	1.5700e+000	-82.824707	-15.689834
1571	1.5710e+000	-83.816528	-16.435467
1572	1.5720e+000	-85.304260	-17.202346
1573	1.5730e+000	-86.242676	-17.971966
1574	1.5740e+000	-87.348938	-18.775167
1575	1.5750e+000	-88.615417	-19.601669
1576	1.5760e+000	-89.775085	-20.432283
1577	1.5770e+000	-91.300964	-21.291681
1578	1.5780e+000	-92.147827	-22.165471
1579	1.5790e+000	-93.452454	-23.057079
1580	1.5800e+000	-94.619751	-23.958281
1581	1.5810e+000	-95.726013	-24.891694
1582	1.5820e+000	-96.862793	-25.789470
1583	1.5830e+000	-98.281860	-26.712603
1584	1.5840e+000	-99.517822	-27.655610
1585	1.5850e+000	-100.631714	-28.593820
1586	1.5860e+000	-101.837158	-29.514897
1587	1.5870e+000	-103.141785	-30.453793
1588	1.5880e+000	-104.347229	-31.346086
1589	1.5890e+000	-105.468750	-32.259625
1590	1.5900e+000	-106.552124	-33.129302
1591	1.5910e+000	-108.024597	-33.989385
1592	1.5920e+000	-108.871460	-34.810405
1593	1.5930e+000	-110.290527	-35.600585
1594	1.5940e+000	-111.946106	-36.374317
1595	1.5950e+000	-112.930298	-37.098705
1596	1.5960e+000	-113.815308	-37.792254
1597	1.5970e+000	-115.142822	-38.449481
1598	1.5980e+000	-116.157532	-39.084778
1599	1.5990e+000	-117.553711	-39.687178
1600	1.6000e+000	-119.026184	-40.259425
1601	1.6010e+000	-120.079041	-40.802888
1602	1.6020e+000	-121.292114	-41.338127
1603	1.6030e+000	-122.344971	-41.852120
1604	1.6040e+000	-123.611450	-42.338016
1605	1.6050e+000	-124.809265	-42.801296
1606	1.6060e+000	-125.946045	-43.250869
1607	1.6070e+000	-127.098083	-43.701128
1608	1.6080e+000	-128.417969	-44.108211
1609	1.6090e+000	-129.722595	-44.502958
1610	1.6100e+000	-130.683899	-44.876460
1611	1.6110e+000	-131.896973	-45.236941
1612	1.6120e+000	-133.293152	-45.564527
1613	1.6130e+000	-134.468079	-45.868126
1614	1.6140e+000	-135.314941	-46.164871
1615	1.6150e+000	-136.856079	-46.448596
1616	1.6160e+000	-138.053894	-46.691201
1617	1.6170e+000	-139.274597	-46.942030
1618	1.6180e+000	-140.586853	-47.123641
1619	1.6190e+000	-141.616821	-47.348428
1620	1.6200e+000	-142.776489	-47.520445
1621	1.6210e+000	-144.149780	-47.692461
1622	1.6220e+000	-145.202637	-47.828841
1623	1.6230e+000	-146.301270	-47.996746
1624	1.6240e+000	-147.796631	-48.102971
1625	1.6250e+000	-149.032593	-48.224273
1626	1.6260e+000	-150.146484	-48.324331
1627	1.6270e+000	-151.184082	-48.435354
1628	1.6280e+000	-152.488708	-48.518963
1629	1.6290e+000	-153.526306	-48.614909
1630	1.6300e+000	-154.701233	-48.688239
1631	1.6310e+000	-155.868530	-48.786240
1632	1.6320e+000	-157.073975	-48.850661
1633	1.6330e+000	-158.271790	-48.943180
1634	1.6340e+000	-159.660339	-48.994579
1635	1.6350e+000	-160.865784	-49.052832
1636	1.6360e+000	-162.124634	-49.129588
1637	1.6370e+000	-163.108826	-49.187841
1638	1.6380e+000	-164.352417	-49.248835
1639	1.6390e+000	-165.588379	-49.309828
1640	1.6400e+000	-166.931152	-49.357116
1641	1.6410e+000	-168.014526	-49.416739
1642	1.6420e+000	-169.227600	-49.479789
1643	1.6430e+000	-170.318604	-49.518167
1644	1.6440e+000	-171.463013	-49.580532
1645	1.6450e+000	-173.019409	-49.632617
1646	1.6460e+000	-173.789978	-49.686757
1647	1.6470e+000	-175.201416	-49.736101
1648	1.6480e+000	-176.521301	-49.790241
1649	1.6490e+000	-177.772522	-49.842326
1650	1.6500e+000	-178.710938	-49.887558
1651	1.6510e+000	-180.007935	-49.930048
1652	1.6520e+000	-181.266785	-49.989671
1653	1.6530e+000	-182.586670	-50.032846
1654	1.6540e+000	-183.746338	-50.091099
1655	1.6550e+000	-184.570313	-50.117141
1656	1.6560e+000	-186.119080	-50.189786
1657	1.6570e+000	-187.507629	-50.218570
1658	1.6580e+000	-188.438416	-50.262430
1659	1.6590e+000	-189.605713	-50.306977
1660	1.6600e+000	-190.849304	-50.348781
1661	1.6610e+000	-192.024231	-50.411831
1662	1.6620e+000	-193.298340	-50.452265
1663	1.6630e+000	-194.923401	-50.484476
1664	1.6640e+000	-195.556641	-50.548896
1665	1.6650e+000	-196.792603	-50.580421
1666	1.6660e+000	-198.036194	-50.639359
1667	1.6670e+000	-199.119568	-50.678423
1668	1.6680e+000	-200.248718	-50.719542
1669	1.6690e+000	-201.889038	-50.755864
1670	1.6700e+000	-202.728271	-50.801781
1671	1.6710e+000	-203.857422	-50.855237
1672	1.6720e+000	-205.337524	-50.894985
1673	1.6730e+000	-206.443787	-50.924454
1674	1.6740e+000	-207.527161	-50.977224
1675	1.6750e+000	-208.770752	-51.019715
1676	1.6760e+000	-210.021973	-51.064946
1677	1.6770e+000	-211.181641	-51.090303
1678	1.6780e+000	-212.745667	-51.148556
1679	1.6790e+000	-213.897705	-51.197214
1680	1.6800e+000	-214.759827	-51.230109
1681	1.6810e+000	-216.056824	-51.261634
1682	1.6820e+000	-217.323303	-51.316460
1683	1.6830e+000	-218.452454	-51.356895
1684	1.6840e+000	-219.703674	-51.405553
1685	1.6850e+000	-221.015930	-51.423371
1686	1.6860e+000	-222.198486	-51.477512
1687	1.6870e+000	-223.388672	-51.515890
1688	1.6880e+000	-224.334717	-51.554268
1689	1.6890e+000	-225.753784	-51.596758
1690	1.6900e+000	-227.043152	-51.635137
1691	1.6910e+000	-228.279114	-51.670774
1692	1.6920e+000	-228.988647	-51.723544
1693	1.6930e+000	-230.392456	-51.752327
1694	1.6940e+000	-231.742859	-51.794132
1695	1.6950e+000	-232.849121	-51.833881
1696	1.6960e+000	-234.077454	-51.870888
1697	1.6970e+000	-235.260010	-51.927770
1698	1.6980e+000	-236.495972	-51.956554
1699	1.6990e+000	-237.594604	-51.995618
1700	1.7000e+000	-238.769531	-52.027143
1701	1.7010e+000	-240.036011	-52.074430
1702	1.7020e+000	-241.241455	-52.109382
1703	1.7030e+000	-242.370605	-52.142963
1704	1.7040e+000	-243.759155	-52.171061
1705	1.7050e+000	-244.842529	-52.218348
1706	1.7060e+000	-246.131897	-52.264265
1707	1.7070e+000	-247.314453	-52.310867
1708	1.7080e+000	-248.275757	-52.341022
1709	1.7090e+000	-249.595642	-52.371861
1710	1.7100e+000	-251.037598	-52.409554
1711	1.7110e+000	-251.983643	-52.450674
1712	1.7120e+000	-253.211975	-52.492478
1713	1.7130e+000	-254.493713	-52.523318
1714	1.7140e+000	-255.577087	-52.566493
1715	1.7150e+000	-256.774902	-52.608984
1716	1.7160e+000	-258.247375	-52.634341
1717	1.7170e+000	-259.262085	-52.687111
1718	1.7180e+000	-260.299683	-52.702873
1719	1.7190e+000	-261.436462	-52.752902
1720	1.7200e+000	-262.893677	-52.792651
1721	1.7210e+000	-264.251709	-52.834456
1722	1.7220e+000	-265.434265	-52.855015
1723	1.7230e+000	-266.510010	-52.894764
1724	1.7240e+000	-267.387390	-52.918751
1725	1.7250e+000	-268.814087	-52.977689
1726	1.7260e+000	-270.294189	-52.997563
1727	1.7270e+000	-271.392822	-53.035941
1728	1.7280e+000	-272.529602	-53.075690
1729	1.7290e+000	-273.796082	-53.127775
1730	1.7300e+000	-274.971008	-53.143537
1731	1.7310e+000	-276.123047	-53.181915
1732	1.7320e+000	-277.267456	-53.228518
1733	1.7330e+000	-278.686523	-53.248392
1734	1.7340e+000	-279.853821	-53.286085
1735	1.7350e+000	-280.792236	-53.329260
1736	1.7360e+000	-282.264709	-53.342282
1737	1.7370e+000	-283.439636	-53.397108
1738	1.7380e+000	-284.584045	-53.448507
1739	1.7390e+000	-285.911560	-53.472493
1740	1.7400e+000	-286.895752	-53.495794
1741	1.7410e+000	-288.047791	-53.524578
1742	1.7420e+000	-289.360046	-53.578033
1743	1.7430e+000	-290.626526	-53.609558
1744	1.7440e+000	-291.786194	-53.628062
1745	1.7450e+000	-293.060303	-53.670552
1746	1.7460e+000	-294.067383	-53.712357
1747	1.7470e+000	-295.379639	-53.741826
1748	1.7480e+000	-296.691895	-53.761700
1749	1.7490e+000	-297.615051	-53.813785
1750	1.7500e+000	-298.873901	-53.831604
1751	1.7510e+000	-300.376892	-53.872723
1752	1.7520e+000	-298.873901	-53.865870
1753	1.7530e+000	-297.752380	-53.848051
1754	1.7540e+000	-296.470642	-53.811729
1755	1.7550e+000	-295.440674	-53.780890
1756	1.7560e+000	-294.158936	-53.747994
1757	1.7570e+000	-292.747498	-53.741141
1758	1.7580e+000	-291.976929	-53.697280
1759	1.7590e+000	-290.443420	-53.675350
1760	1.7600e+000	-289.405823	-53.647937
1761	1.7610e+000	-288.223267	-53.630118
1762	1.7620e+000	-286.972046	-53.585572
1763	1.7630e+000	-285.720825	-53.559530
1764	1.7640e+000	-284.523010	-53.536914
1765	1.7650e+000	-283.081055	-53.505389
1766	1.7660e+000	-282.012939	-53.480032
1767	1.7670e+000	-281.135559	-53.445766
1768	1.7680e+000	-279.655457	-53.402590
1769	1.7690e+000	-278.678894	-53.382030
1770	1.7700e+000	-277.404785	-53.366953
1771	1.7710e+000	-276.000977	-53.332687
1772	1.7720e+000	-274.864197	-53.315554
1773	1.7730e+000	-273.406982	-53.278546
1774	1.7740e+000	-272.575378	-53.243595
1775	1.7750e+000	-271.347046	-53.215496
1776	1.7760e+000	-269.950867	-53.179174
1777	1.7770e+000	-268.867493	-53.163412
1778	1.7780e+000	-267.333984	-53.127775
1779	1.7790e+000	-266.387939	-53.094879
1780	1.7800e+000	-265.037537	-53.065410
1781	1.7810e+000	-263.839722	-53.030459
1782	1.7820e+000	-262.832642	-53.010584
1783	1.7830e+000	-261.985779	-52.987968
1784	1.7840e+000	-260.704041	-52.954387
1785	1.7850e+000	-259.178162	-52.918065
1786	1.7860e+000	-258.117676	-52.876260
1787	1.7870e+000	-256.965637	-52.848162
1788	1.7880e+000	-255.615234	-52.831029
1789	1.7890e+000	-254.158020	-52.791965
1790	1.7900e+000	-253.067017	-52.759755
1791	1.7910e+000	-251.991272	-52.724804
1792	1.7920e+000	-250.709534	-52.701503
1793	1.7930e+000	-249.771118	-52.664495
1794	1.7940e+000	-248.443604	-52.630914
1795	1.7950e+000	-247.299194	-52.591851
1796	1.7960e+000	-246.025085	-52.574032
1797	1.7970e+000	-244.804382	-52.532913
1798	1.7980e+000	-243.614197	-52.484254
1799	1.7990e+000	-242.454529	-52.473975
1800	1.8000e+000	-241.241455	-52.439708
1801	1.8010e+000	-240.379333	-52.401330
1802	1.8020e+000	-238.525391	-52.378714
1803	1.8030e+000	-237.747192	-52.330056
1804	1.8040e+000	-236.351013	-52.308126
1805	1.8050e+000	-235.076904	-52.275916
1806	1.8060e+000	-234.031677	-52.242335
1807	1.8070e+000	-232.986450	-52.209439
1808	1.8080e+000	-231.437683	-52.172432
1809	1.8090e+000	-230.422974	-52.129256
1810	1.8100e+000	-229.064941	-52.108011
1811	1.8110e+000	-228.019714	-52.072374
1812	1.8120e+000	-226.989746	-52.046332
1813	1.8130e+000	-225.563049	-52.020289
1814	1.8140e+000	-224.487305	-51.959295
1815	1.8150e+000	-223.228455	-51.940792
1816	1.8160e+000	-221.923828	-51.901043
1817	1.8170e+000	-220.420837	-51.858553
1818	1.8180e+000	-219.566345	-51.827713
1819	1.8190e+000	-218.605042	-51.790705
1820	1.8200e+000	-217.002869	-51.755069
1821	1.8210e+000	-216.270447	-51.730397
1822	1.8220e+000	-214.897156	-51.683795
1823	1.8230e+000	-213.569641	-51.651584
1824	1.8240e+000	-212.265015	-51.621430
1825	1.8250e+000	-211.021423	-51.587849
1826	1.8260e+000	-210.174561	-51.538506
1827	1.8270e+000	-208.969116	-51.512463
1828	1.8280e+000	-207.603455	-51.463805
1829	1.8290e+000	-206.321716	-51.449414
1830	1.8300e+000	-205.230713	-51.397329
1831	1.8310e+000	-204.223633	-51.374028
1832	1.8320e+000	-202.781677	-51.322628
1833	1.8330e+000	-201.629639	-51.293845
1834	1.8340e+000	-200.210571	-51.258893
1835	1.8350e+000	-199.241638	-51.219144
1836	1.8360e+000	-198.013306	-51.186249
1837	1.8370e+000	-197.074890	-51.161577
1838	1.8380e+000	-195.716858	-51.099212
1839	1.8390e+000	-194.358826	-51.063575
1840	1.8400e+000	-193.290710	-51.036162
1841	1.8410e+000	-191.978455	-50.992987
1842	1.8420e+000	-190.628052	-50.970371
1843	1.8430e+000	-189.735413	-50.929937
1844	1.8440e+000	-188.247681	-50.890188
1845	1.8450e+000	-187.179565	-50.825768
1846	1.8460e+000	-186.119080	-50.802467
1847	1.8470e+000	-184.768677	-50.765459
1848	1.8480e+000	-183.433533	-50.722969
1849	1.8490e+000	-182.182312	-50.675681
1850	1.8500e+000	-180.999756	-50.653066
1851	1.8510e+000	-179.740906	-50.611261
1852	1.8520e+000	-178.680420	-50.559176
1853	1.8530e+000	-177.688599	-50.533819
1854	1.8540e+000	-176.361084	-50.497497
1855	1.8550e+000	-175.231934	-50.441300
1856	1.8560e+000	-173.942566	-50.426908
1857	1.8570e+000	-172.698975	-50.379621
1858	1.8580e+000	-171.714783	-50.335075
1859	1.8590e+000	-170.608521	-50.293955
1860	1.8600e+000	-169.044495	-50.248039
1861	1.8610e+000	-167.907715	-50.224052
1862	1.8620e+000	-167.007446	-50.163058
1863	1.8630e+000	-165.649414	-50.134960
1864	1.8640e+000	-164.390564	-50.093155
1865	1.8650e+000	-163.345337	-50.053406
1866	1.8660e+000	-161.956787	-50.015028
1867	1.8670e+000	-160.942078	-49.962258
1868	1.8680e+000	-159.690857	-49.922509
1869	1.8690e+000	-158.691406	-49.888243
1870	1.8700e+000	-157.241821	-49.839585
1871	1.8710e+000	-155.937195	-49.806689
1872	1.8720e+000	-154.846191	-49.753234
1873	1.8730e+000	-153.480530	-49.710058
1874	1.8740e+000	-152.275085	-49.674421
1875	1.8750e+000	-151.206970	-49.634673
1876	1.8760e+000	-149.894714	-49.596294
1877	1.8770e+000	-148.849487	-49.550378
1878	1.8780e+000	-147.827148	-49.498293
1879	1.8790e+000	-146.331787	-49.465397
1880	1.8800e+000	-145.164490	-49.418110
1881	1.8810e+000	-144.065857	-49.376990
1882	1.8820e+000	-142.799377	-49.331759
1883	1.8830e+000	-141.807556	-49.284471
1884	1.8840e+000	-140.220642	-49.237869
1885	1.8850e+000	-139.373779	-49.198806
1886	1.8860e+000	-137.908936	-49.152889
1887	1.8870e+000	-136.741638	-49.111769
1888	1.8880e+000	-135.803223	-49.071335
1889	1.8890e+000	-134.223938	-49.019251
1890	1.8900e+000	-133.346558	-48.974019
1891	1.8910e+000	-132.179260	-48.938382
1892	1.8920e+000	-130.744934	-48.884242
1893	1.8930e+000	-129.722595	-48.847234
1894	1.8940e+000	-128.341675	-48.792408
1895	1.8950e+000	-127.288818	-48.743065
1896	1.8960e+000	-126.304626	-48.699889
1897	1.8970e+000	-124.824524	-48.656714
1898	1.8980e+000	-123.481750	-48.609426
1899	1.8990e+000	-122.436523	-48.571048
1900	1.9000e+000	-121.276855	-48.511425
1901	1.9010e+000	-120.033264	-48.462081
1902	1.9020e+000	-118.598938	-48.429186
1903	1.9030e+000	-117.614746	-48.372989
1904	1.9040e+000	-116.699219	-48.318848
1905	1.9050e+000	-115.310669	-48.266078
1906	1.9060e+000	-113.830566	-48.235924
1907	1.9070e+000	-112.945557	-48.178357
1908	1.9080e+000	-111.755371	-48.124901
1909	1.9090e+000	-110.473633	-48.082411
1910	1.9100e+000	-109.130859	-48.031012
1911	1.9110e+000	-107.994080	-47.985780
1912	1.9120e+000	-106.605530	-47.926842
1913	1.9130e+000	-105.621338	-47.887779
1914	1.9140e+000	-104.675293	-47.832953
1915	1.9150e+000	-102.973938	-47.775385
1916	1.9160e+000	-102.081299	-47.727413
1917	1.9170e+000	-100.723267	-47.668475
1918	1.9180e+000	-99.685669	-47.621873
1919	1.9190e+000	-98.724365	-47.572529
1920	1.9200e+000	-97.160339	-47.522501
1921	1.9210e+000	-95.779419	-47.490976
1922	1.9220e+000	-94.985962	-47.421758
1923	1.9230e+000	-93.360901	-47.362820
1924	1.9240e+000	-92.460632	-47.319644
1925	1.9250e+000	-91.293335	-47.260706
1926	1.9260e+000	-90.248108	-47.203824
1927	1.9270e+000	-88.973999	-47.146942
1928	1.9280e+000	-87.608337	-47.092802
1929	1.9290e+000	-86.456299	-47.050311
1930	1.9300e+000	-85.258484	-46.984520
1931	1.9310e+000	-83.999634	-46.924897
1932	1.9320e+000	-82.778931	-46.876924
1933	1.9330e+000	-81.710815	-46.822784
1934	1.9340e+000	-80.406189	-46.764531
1935	1.9350e+000	-79.078674	-46.708334
1936	1.9360e+000	-77.812195	-46.667900
1937	1.9370e+000	-77.033997	-46.595941
1938	1.9380e+000	-75.378418	-46.541800
1939	1.9390e+000	-74.455261	-46.482862
1940	1.9400e+000	-73.432922	-46.414330
1941	1.9410e+000	-72.135925	-46.361560
1942	1.9420e+000	-70.701599	-46.299880
1943	1.9430e+000	-69.725037	-46.232719
1944	1.9440e+000	-68.321228	-46.188858
1945	1.9450e+000	-67.321777	-46.106619
1946	1.9460e+000	-66.024780	-46.066870
1947	1.9470e+000	-64.674377	-45.995596
1948	1.9480e+000	-63.522339	-45.932546
1949	1.9490e+000	-62.362671	-45.871552
1950	1.9500e+000	-61.225891	-45.816726
1951	1.9510e+000	-59.967041	-45.757103
1952	1.9520e+000	-58.853149	-45.684459
1953	1.9530e+000	-57.777405	-45.620723
1954	1.9540e+000	-56.137085	-45.554247
1955	1.9550e+000	-55.259705	-45.488456
1956	1.9560e+000	-54.016113	-45.417867
1957	1.9570e+000	-53.001404	-45.350705
1958	1.9580e+000	-51.544189	-45.291767
1959	1.9590e+000	-50.559998	-45.210214
1960	1.9600e+000	-49.278259	-45.138940
1961	1.9610e+000	-48.171997	-45.066981
1962	1.9620e+000	-46.928406	-45.003931
1963	1.9630e+000	-45.516968	-44.929916
1964	1.9640e+000	-44.357300	-44.857271
1965	1.9650e+000	-43.327332	-44.779144
1966	1.9660e+000	-42.129517	-44.705814
1967	1.9670e+000	-40.802002	-44.629743
1968	1.9680e+000	-39.527893	-44.570805
1969	1.9690e+000	-38.475037	-44.466636
1970	1.9700e+000	-37.445068	-44.393991
1971	1.9710e+000	-35.865784	-44.310382
1972	1.9720e+000	-34.912109	-44.226772
1973	1.9730e+000	-33.508301	-44.144533
1974	1.9740e+000	-32.379150	-44.041734
1975	1.9750e+000	-31.173706	-43.958810
1976	1.9760e+000	-29.853821	-43.862864
1977	1.9770e+000	-28.892517	-43.775143
1978	1.9780e+000	-27.427673	-43.664805
1979	1.9790e+000	-26.573181	-43.566119
1980	1.9800e+000	-25.177002	-43.466061
1981	1.9810e+000	-24.139404	-43.363262
1982	1.9820e+000	-22.949219	-43.238533
1983	1.9830e+000	-21.400452	-43.115860
1984	1.9840e+000	-20.248413	-42.978110
1985	1.9850e+000	-19.157410	-42.850639
1986	1.9860e+000	-17.997742	-42.702609
1987	1.9870e+000	-16.960144	-42.563488
1988	1.9880e+000	-15.808105	-42.389415
1989	1.9890e+000	-14.381409	-42.224252
1990	1.9900e+000	-13.061523	-42.030305
1991	1.9910e+000	-12.031555	-41.826763
1992	1.9920e+000	-10.566711	-41.599921
1993	1.9930e+000	-9.620667	-41.362798
1994	1.9940e+000	-8.331299	-41.107857
1995	1.9950e+000	-7.179260	-40.804944
1996	1.9960e+000	-6.095886	-40.538352
1997	1.9970e+000	-4.951477	-40.189522
1998	1.9980e+000	-3.593445	-39.838635
1999	1.9990e+000	-2.395630	-39.453482
2000	2.0000e+000	-1.213074	-39.045714
2001	2.0010e+000	-0.343323	-38.599567

Center data before PMax,±Pr and ±Vc Calc.

PMax (µC/cm2):	5.39e+001
Pr (µC/cm2):	3.33e+001
-Pr (µC/cm2):	-3.86e+001
Vc:	5.95e-001
-Vc:	-5.11e-001
C (Max-Eff) (nF):	1.11e+000
K (Eff):	2.03e+003
Vert. (±Pr) Shift (µC/cm2):	-2.65e+000
Horiz. Shift (±Vc):	4.18e-002
Offset (µC/cm2):	2.55e+001

A (Loop Area - µC/cm2·Volts):	1.12e+002



Hysteresis Version: 5.16.2 - Radiant Technologies, Inc., 1999 - 3/20/18

