»»»»»»»»»»»»»»»»»»»»»»»»»»»»»»»»»»»» Hysteresis ««««««««««««««««««««««««««««««««««««
»»»  Executed Version:	5.12.0
»»»  Vision Version:	5.12.5 (R)
»»»  Vision Compiled:	2/24/17
»»»  Driver Version:	5.12.4
»»»  Windows Version:	Windows 7
»»»  Processor Information:	x86 (AMD or Intel) - 2 Processors
»»»  Tester Name:	PMF0910-256
»»»  Tester S/N:	PMF0910-256
»»»  Internal Amp Type:	 RTI 100V      
»»»  Internal Amp S/N:	 iAB1-0000     
»»»  Execution Count:	1
»»»»»»»»»»»»»»»»»»»»»»»»»»»»»»»»»»»»»»»»»»««««««««««««««««««««««««««««««««««««««««««

Stored:	8/3/2017 - 10:48:43
Configured:	08/03/17 10:04:09 AM
Executed:	08/03/17 10:48:26 AM

»»»»»»»»»»»»»»»»»»»»»»»»»»»»»»»»»»» Sample Info ««««««««««««««««««««««««««««««««««««
Sample Name:	
Lot Name:	
Wafer Name:	
Die Row/Column:	0/0
Capacitor Number:	0
Sample Area (cm2):	4.91e-006
Sample Thickness (µm):	1.00e-001

Mux Loop Adjustment:	Disabled

Amplifier:	Internal

»»»»»»»»»»»»»»»»»»»»»»»»»»»»»»»»»»» Tester Info «««««««««««««««««««««««««««««««««««
Tester Name:	PMF0910-256
Tester Serial Number:	PMF0910-256
Return Signal Amp. Level:	16.67 [Index: 1]

»»»»»»»»»»»»»»»»»»»»»»»»»»»»»»»» Hysteresis Info ««««««««««««««««««««««««««««««««««
Task Name:	Hyst-1
Volts:	3.00
Field:	300.00 (kV/cm)
Hysteresis Period (ms):	4.00e+000
Preset:	Enabled
Preset Delay (ms):	1.00e+003
Profile:	Double Bipolar

»»»»»»»»»»»»»»»»»»»»»»»»»»»»»»»»»»»»»» Data «««««««««««««««««««««««««««««««««««««««
Points:	2001

Valid Data

Point	Time (ms)	Drive Voltage	Measured Polarization
   1	2.0000e-003	-0.0026	-9.812996
   2	4.0000e-003	0.0107	-9.642440
   3	6.0000e-003	0.0235	-9.647075
   4	8.0000e-003	0.0316	-9.609071
   5	1.0000e-002	0.0481	-9.600728
   6	1.2000e-002	0.0567	-9.436661
   7	1.4000e-002	0.0700	-9.437588
   8	1.6000e-002	0.0848	-9.282790
   9	1.8000e-002	0.0961	-9.068668
  10	2.0000e-002	0.1073	-8.815614
  11	2.2000e-002	0.1177	-8.621885
  12	2.4000e-002	0.1321	-8.307654
  13	2.6000e-002	0.1402	-8.017524
  14	2.8000e-002	0.1563	-7.764470
  15	3.0000e-002	0.1678	-7.474340
  16	3.2000e-002	0.1757	-7.110054
  17	3.4000e-002	0.1894	-6.654002
  18	3.6000e-002	0.2020	-6.269324
  19	3.8000e-002	0.2142	-5.892989
  20	4.0000e-002	0.2267	-5.470306
  21	4.2000e-002	0.2384	-5.072651
  22	4.4000e-002	0.2512	-4.687973
  23	4.6000e-002	0.2597	-4.224506
  24	4.8000e-002	0.2740	-3.752696
  25	5.0000e-002	0.2850	-3.309621
  26	5.2000e-002	0.2968	-2.867473
  27	5.4000e-002	0.3135	-2.369709
  28	5.6000e-002	0.3233	-1.814475
  29	5.8000e-002	0.3326	-1.330615
  30	6.0000e-002	0.3460	-0.894956
  31	6.2000e-002	0.3571	-0.379580
  32	6.4000e-002	0.3700	0.090376
  33	6.6000e-002	0.3817	0.587213
  34	6.8000e-002	0.3952	1.122055
  35	7.0000e-002	0.4066	1.649481
  36	7.2000e-002	0.4194	2.158368
  37	7.4000e-002	0.4310	2.670963
  38	7.6000e-002	0.4433	3.179850
  39	7.8000e-002	0.4544	3.669272
  40	8.0000e-002	0.4664	4.167036
  41	8.2000e-002	0.4781	4.708366
  42	8.4000e-002	0.4890	5.258038
  43	8.6000e-002	0.5031	5.665890
  44	8.8000e-002	0.5166	6.217416
  45	9.0000e-002	0.5260	6.731865
  46	9.2000e-002	0.5370	7.204602
  47	9.4000e-002	0.5485	7.710708
  48	9.6000e-002	0.5625	8.218668
  49	9.8000e-002	0.5723	8.778537
  50	1.0000e-001	0.5853	9.217904
  51	1.0200e-001	0.6001	9.700837
  52	1.0400e-001	0.6102	10.142985
  53	1.0600e-001	0.6229	10.615722
  54	1.0800e-001	0.6352	11.080116
  55	1.1000e-001	0.6443	11.618666
  56	1.1200e-001	0.6577	12.131261
  57	1.1400e-001	0.6706	12.548381
  58	1.1600e-001	0.6820	13.056342
  59	1.1800e-001	0.6963	13.442874
  60	1.2000e-001	0.7062	13.847017
  61	1.2200e-001	0.7190	14.172371
  62	1.2400e-001	0.7312	14.718336
  63	1.2600e-001	0.7410	15.196634
  64	1.2800e-001	0.7561	15.576678
  65	1.3000e-001	0.7677	16.015118
  66	1.3200e-001	0.7781	16.400723
  67	1.3400e-001	0.7923	16.932784
  68	1.3600e-001	0.8032	17.205302
  69	1.3800e-001	0.8161	17.683601
  70	1.4000e-001	0.8260	17.968170
  71	1.4200e-001	0.8382	18.580874
  72	1.4400e-001	0.8511	18.835781
  73	1.4600e-001	0.8640	19.288125
  74	1.4800e-001	0.8752	19.512443
  75	1.5000e-001	0.8897	19.987961
  76	1.5200e-001	0.8994	20.337415
  77	1.5400e-001	0.9109	20.824983
  78	1.5600e-001	0.9227	21.068767
  79	1.5800e-001	0.9339	21.511842
  80	1.6000e-001	0.9486	21.966967
  81	1.6200e-001	0.9579	22.347937
  82	1.6400e-001	0.9716	22.568548
  83	1.6600e-001	0.9805	23.009769
  84	1.6800e-001	0.9934	23.370346
  85	1.7000e-001	1.0076	23.722582
  86	1.7200e-001	1.0181	24.031251
  87	1.7400e-001	1.0310	24.443737
  88	1.7600e-001	1.0421	24.842319
  89	1.7800e-001	1.0544	25.269636
  90	1.8000e-001	1.0670	25.569963
  91	1.8200e-001	1.0795	25.979668
  92	1.8400e-001	1.0905	26.332830
  93	1.8600e-001	1.1021	26.611838
  94	1.8800e-001	1.1181	26.957585
  95	1.9000e-001	1.1256	27.300551
  96	1.9200e-001	1.1395	27.689863
  97	1.9400e-001	1.1499	28.085664
  98	1.9600e-001	1.1588	28.560255
  99	1.9800e-001	1.1740	28.811454
 100	2.0000e-001	1.1877	29.071923
 101	2.0200e-001	1.1992	29.451966
 102	2.0400e-001	1.2106	29.767124
 103	2.0600e-001	1.2225	30.136971
 104	2.0800e-001	1.2347	30.435444
 105	2.1000e-001	1.2477	30.744114
 106	2.1200e-001	1.2589	31.164015
 107	2.1400e-001	1.2705	31.323448
 108	2.1600e-001	1.2854	31.466196
 109	2.1800e-001	1.2920	31.722957
 110	2.2000e-001	1.3047	31.930590
 111	2.2200e-001	1.3227	32.061288
 112	2.2400e-001	1.3322	32.293022
 113	2.2600e-001	1.3427	32.432062
 114	2.2800e-001	1.3543	32.487678
 115	2.3000e-001	1.3673	32.603545
 116	2.3200e-001	1.3786	32.654527
 117	2.3400e-001	1.3902	32.888114
 118	2.3600e-001	1.4025	32.967831
 119	2.3800e-001	1.4141	32.946511
 120	2.4000e-001	1.4273	33.071647
 121	2.4200e-001	1.4404	33.111505
 122	2.4400e-001	1.4494	33.163414
 123	2.4600e-001	1.4625	33.206053
 124	2.4800e-001	1.4733	33.257034
 125	2.5000e-001	1.4878	33.284842
 126	2.5200e-001	1.4983	33.320066
 127	2.5400e-001	1.5088	33.454471
 128	2.5600e-001	1.5211	33.474864
 129	2.5800e-001	1.5352	33.474864
 130	2.6000e-001	1.5485	33.528626
 131	2.6200e-001	1.5597	33.624100
 132	2.6400e-001	1.5724	33.611123
 133	2.6600e-001	1.5829	33.680644
 134	2.6800e-001	1.5950	33.673228
 135	2.7000e-001	1.6048	33.800218
 136	2.7200e-001	1.6181	33.828953
 137	2.7400e-001	1.6294	33.815976
 138	2.7600e-001	1.6438	33.782606
 139	2.7800e-001	1.6542	33.848419
 140	2.8000e-001	1.6680	33.897546
 141	2.8200e-001	1.6798	33.992094
 142	2.8400e-001	1.6924	34.022683
 143	2.8600e-001	1.7007	33.993948
 144	2.8800e-001	1.7138	34.086641
 145	2.9000e-001	1.7267	34.138549
 146	2.9200e-001	1.7390	34.108887
 147	2.9400e-001	1.7548	34.119084
 148	2.9600e-001	1.7654	34.126499
 149	2.9800e-001	1.7753	34.160796
 150	3.0000e-001	1.7848	34.190458
 151	3.0200e-001	1.7975	34.335060
 152	3.0400e-001	1.8106	34.323009
 153	3.0600e-001	1.8221	34.436095
 154	3.0800e-001	1.8365	34.404580
 155	3.1000e-001	1.8486	34.335987
 156	3.1200e-001	1.8607	34.370283
 157	3.1400e-001	1.8707	34.424045
 158	3.1600e-001	1.8832	34.474100
 159	3.1800e-001	1.8964	34.566793
 160	3.2000e-001	1.9079	34.635386
 161	3.2200e-001	1.9183	34.460196
 162	3.2400e-001	1.9300	34.617775
 163	3.2600e-001	1.9423	34.609432
 164	3.2800e-001	1.9580	34.577917
 165	3.3000e-001	1.9677	34.607578
 166	3.3200e-001	1.9790	34.726226
 167	3.3400e-001	1.9923	34.799454
 168	3.3600e-001	2.0032	34.779061
 169	3.3800e-001	2.0150	34.747546
 170	3.4000e-001	2.0256	34.711395
 171	3.4200e-001	2.0396	34.825408
 172	3.4400e-001	2.0510	34.822627
 173	3.4600e-001	2.0625	34.887513
 174	3.4800e-001	2.0737	34.890294
 175	3.5000e-001	2.0863	34.895855
 176	3.5200e-001	2.1008	34.953325
 177	3.5400e-001	2.1105	34.982987
 178	3.5600e-001	2.1230	34.916248
 179	3.5800e-001	2.1326	34.925517
 180	3.6000e-001	2.1476	35.081242
 181	3.6200e-001	2.1561	35.191547
 182	3.6400e-001	2.1716	35.113685
 183	3.6600e-001	2.1841	35.019138
 184	3.6800e-001	2.1950	35.063630
 185	3.7000e-001	2.2079	35.141493
 186	3.7200e-001	2.2199	35.254579
 187	3.7400e-001	2.2323	35.043238
 188	3.7600e-001	2.2420	35.260141
 189	3.7800e-001	2.2559	35.238821
 190	3.8000e-001	2.2665	35.281460
 191	3.8200e-001	2.2799	35.189694
 192	3.8400e-001	2.2902	35.265702
 193	3.8600e-001	2.3038	35.260141
 194	3.8800e-001	2.3150	35.278679
 195	3.9000e-001	2.3263	35.401962
 196	3.9200e-001	2.3387	35.292583
 197	3.9400e-001	2.3502	35.444601
 198	3.9600e-001	2.3618	35.395473
 199	3.9800e-001	2.3759	35.476116
 200	4.0000e-001	2.3892	35.434404
 201	4.0200e-001	2.3994	35.388985
 202	4.0400e-001	2.4125	35.487240
 203	4.0600e-001	2.4236	35.528952
 204	4.0800e-001	2.4354	35.557687
 205	4.1000e-001	2.4442	35.402889
 206	4.1200e-001	2.4584	35.718973
 207	4.1400e-001	2.4718	35.630915
 208	4.1600e-001	2.4819	35.645746
 209	4.1800e-001	2.4964	35.661503
 210	4.2000e-001	2.5075	35.665211
 211	4.2200e-001	2.5204	35.620718
 212	4.2400e-001	2.5314	35.678188
 213	4.2600e-001	2.5419	35.748635
 214	4.2800e-001	2.5545	35.675407
 215	4.3000e-001	2.5661	35.878406
 216	4.3200e-001	2.5785	35.747708
 217	4.3400e-001	2.5871	35.816302
 218	4.3600e-001	2.6046	35.799617
 219	4.3800e-001	2.6144	35.757905
 220	4.4000e-001	2.6295	35.810740
 221	4.4200e-001	2.6384	35.815375
 222	4.4400e-001	2.6505	35.909922
 223	4.4600e-001	2.6649	35.877479
 224	4.4800e-001	2.6752	36.056378
 225	4.5000e-001	2.6881	35.877479
 226	4.5200e-001	2.6989	35.867283
 227	4.5400e-001	2.7124	35.938657
 228	4.5600e-001	2.7242	35.975734
 229	4.5800e-001	2.7353	35.986858
 230	4.6000e-001	2.7471	36.010958
 231	4.6200e-001	2.7603	36.073063
 232	4.6400e-001	2.7705	35.970173
 233	4.6600e-001	2.7843	36.180587
 234	4.6800e-001	2.7952	36.066574
 235	4.7000e-001	2.8086	36.093455
 236	4.7200e-001	2.8195	36.150925
 237	4.7400e-001	2.8326	36.137021
 238	4.7600e-001	2.8413	36.168537
 239	4.7800e-001	2.8564	36.182441
 240	4.8000e-001	2.8687	36.192637
 241	4.8200e-001	2.8806	36.263084
 242	4.8400e-001	2.8922	36.356705
 243	4.8600e-001	2.9046	36.309431
 244	4.8800e-001	2.9149	36.254742
 245	4.9000e-001	2.9269	36.292746
 246	4.9200e-001	2.9391	36.374316
 247	4.9400e-001	2.9507	36.322408
 248	4.9600e-001	2.9649	36.345581
 249	4.9800e-001	2.9760	36.375243
 250	5.0000e-001	2.9887	36.402124
 251	5.0200e-001	3.0021	36.501306
 252	5.0400e-001	2.9904	36.434567
 253	5.0600e-001	2.9749	36.369682
 254	5.0800e-001	2.9636	36.328897
 255	5.1000e-001	2.9487	36.259376
 256	5.1200e-001	2.9406	36.359485
 257	5.1400e-001	2.9272	36.323335
 258	5.1600e-001	2.9141	36.327970
 259	5.1800e-001	2.9044	36.397490
 260	5.2000e-001	2.8912	36.348362
 261	5.2200e-001	2.8809	36.271427
 262	5.2400e-001	2.8680	36.138875
 263	5.2600e-001	2.8551	36.236203
 264	5.2800e-001	2.8413	36.187076
 265	5.3000e-001	2.8291	36.157414
 266	5.3200e-001	2.8199	36.146290
 267	5.3400e-001	2.8085	36.234349
 268	5.3600e-001	2.7940	36.304796
 269	5.3800e-001	2.7813	36.191710
 270	5.4000e-001	2.7709	36.109213
 271	5.4200e-001	2.7590	36.150925
 272	5.4400e-001	2.7480	36.068428
 273	5.4600e-001	2.7357	36.035985
 274	5.4800e-001	2.7228	35.983150
 275	5.5000e-001	2.7116	36.022081
 276	5.5200e-001	2.6981	36.047108
 277	5.5400e-001	2.6865	36.207468
 278	5.5600e-001	2.6775	36.132386
 279	5.5800e-001	2.6648	36.026716
 280	5.6000e-001	2.6513	35.908995
 281	5.6200e-001	2.6379	35.985004
 282	5.6400e-001	2.6265	35.928461
 283	5.6600e-001	2.6157	35.948853
 284	5.6800e-001	2.6035	35.920118
 285	5.7000e-001	2.5903	36.052670
 286	5.7200e-001	2.5794	36.060085
 287	5.7400e-001	2.5674	35.899726
 288	5.7600e-001	2.5569	35.859867
 289	5.7800e-001	2.5413	35.857087
 290	5.8000e-001	2.5318	35.763466
 291	5.8200e-001	2.5178	35.819082
 292	5.8400e-001	2.5092	35.858941
 293	5.8600e-001	2.4940	35.910849
 294	5.8800e-001	2.4857	35.848744
 295	5.9000e-001	2.4707	35.919191
 296	5.9200e-001	2.4597	35.668919
 297	5.9400e-001	2.4447	35.767174
 298	5.9600e-001	2.4348	35.727316
 299	5.9800e-001	2.4232	35.701362
 300	6.0000e-001	2.4104	35.674481
 301	6.0200e-001	2.3979	35.770882
 302	6.0400e-001	2.3856	35.731950
 303	6.0600e-001	2.3740	35.682823
 304	6.0800e-001	2.3640	35.703215
 305	6.1000e-001	2.3507	35.572518
 306	6.1200e-001	2.3376	35.608668
 307	6.1400e-001	2.3272	35.565102
 308	6.1600e-001	2.3162	35.545637
 309	6.1800e-001	2.3015	35.594764
 310	6.2000e-001	2.2897	35.565102
 311	6.2200e-001	2.2772	35.489094
 312	6.2400e-001	2.2640	35.591983
 313	6.2600e-001	2.2583	35.631842
 314	6.2800e-001	2.2431	35.417720
 315	6.3000e-001	2.2310	35.476116
 316	6.3200e-001	2.2177	35.475190
 317	6.3400e-001	2.2080	35.527098
 318	6.3600e-001	2.1931	35.421427
 319	6.3800e-001	2.1842	35.375081
 320	6.4000e-001	2.1711	35.338003
 321	6.4200e-001	2.1563	35.506705
 322	6.4400e-001	2.1482	35.442747
 323	6.4600e-001	2.1351	35.405669
 324	6.4800e-001	2.1207	35.300926
 325	6.5000e-001	2.1105	35.319464
 326	6.5200e-001	2.0997	35.207305
 327	6.5400e-001	2.0853	35.253652
 328	6.5600e-001	2.0743	35.235113
 329	6.5800e-001	2.0656	35.195255
 330	6.6000e-001	2.0506	35.247164
 331	6.6200e-001	2.0391	35.379715
 332	6.6400e-001	2.0274	35.261068
 333	6.6600e-001	2.0146	35.190620
 334	6.6800e-001	2.0034	35.114612
 335	6.7000e-001	1.9912	35.158178
 336	6.7200e-001	1.9794	35.046019
 337	6.7400e-001	1.9659	35.114612
 338	6.7600e-001	1.9543	35.074754
 339	6.7800e-001	1.9426	35.162812
 340	6.8000e-001	1.9288	35.073827
 341	6.8200e-001	1.9196	35.053434
 342	6.8400e-001	1.9051	34.949617
 343	6.8600e-001	1.8939	34.923663
 344	6.8800e-001	1.8875	34.985768
 345	6.9000e-001	1.8710	35.146128
 346	6.9200e-001	1.8584	35.033968
 347	6.9400e-001	1.8449	34.942202
 348	6.9600e-001	1.8369	34.959814
 349	6.9800e-001	1.8237	34.824481
 350	7.0000e-001	1.8107	34.770719
 351	7.0200e-001	1.8003	34.857851
 352	7.0400e-001	1.7857	34.875463
 353	7.0600e-001	1.7732	34.883805
 354	7.0800e-001	1.7616	34.943129
 355	7.1000e-001	1.7500	34.786477
 356	7.1200e-001	1.7376	34.868974
 357	7.1400e-001	1.7251	34.774427
 358	7.1600e-001	1.7150	34.564939
 359	7.1800e-001	1.7025	34.702126
 360	7.2000e-001	1.6900	34.778134
 361	7.2200e-001	1.6763	34.720664
 362	7.2400e-001	1.6663	34.710468
 363	7.2600e-001	1.6540	34.697491
 364	7.2800e-001	1.6425	34.662268
 365	7.3000e-001	1.6319	34.596455
 366	7.3200e-001	1.6185	34.609432
 367	7.3400e-001	1.6064	34.488931
 368	7.3600e-001	1.5952	34.625190
 369	7.3800e-001	1.5827	34.578843
 370	7.4000e-001	1.5711	34.544547
 371	7.4200e-001	1.5569	34.526935
 372	7.4400e-001	1.5466	34.467611
 373	7.4600e-001	1.5365	34.494492
 374	7.4800e-001	1.5227	34.462050
 375	7.5000e-001	1.5112	34.497273
 376	7.5200e-001	1.4975	34.201581
 377	7.5400e-001	1.4864	34.414776
 378	7.5600e-001	1.4771	34.416630
 379	7.5800e-001	1.4616	34.327644
 380	7.6000e-001	1.4526	34.321156
 381	7.6200e-001	1.4384	34.419411
 382	7.6400e-001	1.4272	34.370283
 383	7.6600e-001	1.4140	34.282224
 384	7.6800e-001	1.4023	34.321156
 385	7.7000e-001	1.3889	34.011559
 386	7.7200e-001	1.3777	34.184896
 387	7.7400e-001	1.3669	34.243293
 388	7.7600e-001	1.3551	34.194165
 389	7.7800e-001	1.3438	34.204362
 390	7.8000e-001	1.3299	34.221974
 391	7.8200e-001	1.3185	34.174700
 392	7.8400e-001	1.3085	34.121865
 393	7.8600e-001	1.2942	34.109814
 394	7.8800e-001	1.2805	33.961505
 395	7.9000e-001	1.2699	34.068102
 396	7.9200e-001	1.2589	34.073664
 397	7.9400e-001	1.2483	34.022683
 398	7.9600e-001	1.2345	33.986532
 399	7.9800e-001	1.2234	34.131134
 400	8.0000e-001	1.2109	33.951309
 401	8.0200e-001	1.1965	33.986532
 402	8.0400e-001	1.1869	33.963359
 403	8.0600e-001	1.1755	33.922574
 404	8.0800e-001	1.1616	33.918866
 405	8.1000e-001	1.1512	33.862323
 406	8.1200e-001	1.1374	33.765922
 407	8.1400e-001	1.1259	33.876227
 408	8.1600e-001	1.1142	33.849346
 409	8.1800e-001	1.1024	33.851200
 410	8.2000e-001	1.0922	33.790022
 411	8.2200e-001	1.0796	33.705671
 412	8.2400e-001	1.0694	33.638931
 413	8.2600e-001	1.0564	33.636151
 414	8.2800e-001	1.0428	33.680644
 415	8.3000e-001	1.0287	33.605562
 416	8.3200e-001	1.0193	33.566631
 417	8.3400e-001	1.0062	33.752018
 418	8.3600e-001	0.9952	33.608343
 419	8.3800e-001	0.9839	33.575900
 420	8.4000e-001	0.9695	33.528626
 421	8.4200e-001	0.9579	33.537896
 422	8.4400e-001	0.9477	33.472083
 423	8.4600e-001	0.9369	33.528626
 424	8.4800e-001	0.9227	33.397001
 425	8.5000e-001	0.9097	33.374755
 426	8.5200e-001	0.8984	33.444275
 427	8.5400e-001	0.8883	33.445202
 428	8.5600e-001	0.8765	33.358997
 429	8.5800e-001	0.8630	33.233861
 430	8.6000e-001	0.8527	33.241276
 431	8.6200e-001	0.8396	33.294112
 432	8.6400e-001	0.8273	33.306162
 433	8.6600e-001	0.8130	33.186587
 434	8.6800e-001	0.8028	33.149510
 435	8.7000e-001	0.7906	33.177318
 436	8.7200e-001	0.7782	33.186587
 437	8.7400e-001	0.7683	33.133752
 438	8.7600e-001	0.7552	33.028081
 439	8.7800e-001	0.7431	33.035497
 440	8.8000e-001	0.7317	33.043839
 441	8.8200e-001	0.7203	33.006762
 442	8.8400e-001	0.7055	33.037351
 443	8.8600e-001	0.6958	32.835279
 444	8.8800e-001	0.6852	32.948365
 445	8.9000e-001	0.6693	32.829717
 446	8.9200e-001	0.6583	32.966904
 447	8.9400e-001	0.6469	32.793567
 448	8.9600e-001	0.6358	32.783371
 449	8.9800e-001	0.6219	32.801909
 450	9.0000e-001	0.6095	32.820448
 451	9.0200e-001	0.5992	32.650819
 452	9.0400e-001	0.5875	32.632280
 453	9.0600e-001	0.5758	32.609107
 454	9.0800e-001	0.5636	32.621157
 455	9.1000e-001	0.5508	32.566468
 456	9.1200e-001	0.5375	32.508071
 457	9.1400e-001	0.5257	32.407035
 458	9.1600e-001	0.5122	32.457089
 459	9.1800e-001	0.5000	32.391277
 460	9.2000e-001	0.4910	32.296730
 461	9.2200e-001	0.4786	32.199402
 462	9.2400e-001	0.4659	32.274483
 463	9.2600e-001	0.4545	32.229990
 464	9.2800e-001	0.4436	32.142858
 465	9.3000e-001	0.4305	31.995476
 466	9.3200e-001	0.4197	31.950983
 467	9.3400e-001	0.4063	32.048311
 468	9.3600e-001	0.3938	31.913906
 469	9.3800e-001	0.3837	31.830481
 470	9.4000e-001	0.3709	31.821212
 471	9.4200e-001	0.3568	31.765596
 472	9.4400e-001	0.3467	31.702564
 473	9.4600e-001	0.3302	31.641387
 474	9.4800e-001	0.3197	31.512543
 475	9.5000e-001	0.3104	31.320667
 476	9.5200e-001	0.2986	31.430046
 477	9.5400e-001	0.2866	31.264124
 478	9.5600e-001	0.2772	31.092641
 479	9.5800e-001	0.2629	30.832173
 480	9.6000e-001	0.2509	30.816415
 481	9.6200e-001	0.2382	30.736698
 482	9.6400e-001	0.2256	30.558727
 483	9.6600e-001	0.2155	30.256546
 484	9.6800e-001	0.2024	30.089698
 485	9.7000e-001	0.1883	29.895968
 486	9.7200e-001	0.1780	29.582664
 487	9.7400e-001	0.1676	29.328684
 488	9.7600e-001	0.1534	28.960691
 489	9.7800e-001	0.1411	28.682610
 490	9.8000e-001	0.1328	28.349841
 491	9.8200e-001	0.1176	27.977213
 492	9.8400e-001	0.1064	27.518380
 493	9.8600e-001	0.0922	27.029886
 494	9.8800e-001	0.0842	26.394935
 495	9.9000e-001	0.0700	25.960203
 496	9.9200e-001	0.0576	25.310421
 497	9.9400e-001	0.0455	24.731087
 498	9.9600e-001	0.0340	24.219419
 499	9.9800e-001	0.0211	23.546464
 500	1.0000e+000	0.0097	22.808624
 501	1.0020e+000	0.0011	22.122692
 502	1.0040e+000	-0.0139	21.526673
 503	1.0060e+000	-0.0247	20.590469
 504	1.0080e+000	-0.0356	19.928637
 505	1.0100e+000	-0.0480	19.140742
 506	1.0120e+000	-0.0574	18.450176
 507	1.0140e+000	-0.0729	17.613154
 508	1.0160e+000	-0.0835	16.767789
 509	1.0180e+000	-0.0981	15.971552
 510	1.0200e+000	-0.1076	15.126187
 511	1.0220e+000	-0.1228	14.333658
 512	1.0240e+000	-0.1331	13.387257
 513	1.0260e+000	-0.1437	12.679079
 514	1.0280e+000	-0.1560	11.718775
 515	1.0300e+000	-0.1686	10.865068
 516	1.0320e+000	-0.1806	10.146693
 517	1.0340e+000	-0.1939	9.322648
 518	1.0360e+000	-0.2042	8.483772
 519	1.0380e+000	-0.2153	7.655092
 520	1.0400e+000	-0.2286	6.950621
 521	1.0420e+000	-0.2391	5.936555
 522	1.0440e+000	-0.2530	5.182957
 523	1.0460e+000	-0.2652	4.411747
 524	1.0480e+000	-0.2777	3.620144
 525	1.0500e+000	-0.2883	3.120526
 526	1.0520e+000	-0.3012	2.306678
 527	1.0540e+000	-0.3130	1.566057
 528	1.0560e+000	-0.3251	0.780943
 529	1.0580e+000	-0.3364	0.084815
 530	1.0600e+000	-0.3483	-0.847682
 531	1.0620e+000	-0.3602	-1.318565
 532	1.0640e+000	-0.3728	-1.966492
 533	1.0660e+000	-0.3853	-2.647790
 534	1.0680e+000	-0.3979	-3.175216
 535	1.0700e+000	-0.4090	-3.680395
 536	1.0720e+000	-0.4202	-4.461801
 537	1.0740e+000	-0.4341	-5.079140
 538	1.0760e+000	-0.4447	-5.632520
 539	1.0780e+000	-0.4569	-6.314744
 540	1.0800e+000	-0.4675	-6.704984
 541	1.0820e+000	-0.4842	-7.161036
 542	1.0840e+000	-0.4929	-7.697731
 543	1.0860e+000	-0.5051	-8.049039
 544	1.0880e+000	-0.5182	-8.672867
 545	1.0900e+000	-0.5307	-9.192877
 546	1.0920e+000	-0.5419	-9.705472
 547	1.0940e+000	-0.5521	-10.128154
 548	1.0960e+000	-0.5656	-10.642603
 549	1.0980e+000	-0.5768	-10.975373
 550	1.1000e+000	-0.5878	-11.449964
 551	1.1020e+000	-0.6033	-11.781806
 552	1.1040e+000	-0.6129	-12.228589
 553	1.1060e+000	-0.6255	-12.656833
 554	1.1080e+000	-0.6377	-13.081369
 555	1.1100e+000	-0.6479	-13.607868
 556	1.1120e+000	-0.6617	-13.917464
 557	1.1140e+000	-0.6732	-14.356831
 558	1.1160e+000	-0.6859	-14.640473
 559	1.1180e+000	-0.6975	-14.992709
 560	1.1200e+000	-0.7078	-15.346798
 561	1.1220e+000	-0.7228	-15.735184
 562	1.1240e+000	-0.7328	-16.016972
 563	1.1260e+000	-0.7449	-16.400723
 564	1.1280e+000	-0.7579	-16.829894
 565	1.1300e+000	-0.7704	-17.135782
 566	1.1320e+000	-0.7823	-17.640035
 567	1.1340e+000	-0.7929	-17.745705
 568	1.1360e+000	-0.8057	-18.128530
 569	1.1380e+000	-0.8175	-18.475203
 570	1.1400e+000	-0.8295	-18.772749
 571	1.1420e+000	-0.8413	-18.913643
 572	1.1440e+000	-0.8534	-19.380819
 573	1.1460e+000	-0.8653	-19.691342
 574	1.1480e+000	-0.8774	-20.089924
 575	1.1500e+000	-0.8884	-20.204864
 576	1.1520e+000	-0.9023	-20.663697
 577	1.1540e+000	-0.9129	-20.813860
 578	1.1560e+000	-0.9267	-21.107698
 579	1.1580e+000	-0.9372	-21.345921
 580	1.1600e+000	-0.9509	-21.553554
 581	1.1620e+000	-0.9611	-21.844612
 582	1.1640e+000	-0.9734	-22.215386
 583	1.1660e+000	-0.9874	-22.541667
 584	1.1680e+000	-0.9968	-22.689049
 585	1.1700e+000	-1.0092	-23.044065
 586	1.1720e+000	-1.0226	-23.086704
 587	1.1740e+000	-1.0329	-23.443574
 588	1.1760e+000	-1.0471	-23.603007
 589	1.1780e+000	-1.0580	-23.918165
 590	1.1800e+000	-1.0693	-24.010859
 591	1.1820e+000	-1.0789	-24.333432
 592	1.1840e+000	-1.0932	-24.609658
 593	1.1860e+000	-1.1060	-24.809876
 594	1.1880e+000	-1.1176	-24.868273
 595	1.1900e+000	-1.1317	-25.133377
 596	1.1920e+000	-1.1390	-25.353060
 597	1.1940e+000	-1.1514	-25.615383
 598	1.1960e+000	-1.1651	-25.734031
 599	1.1980e+000	-1.1797	-25.893463
 600	1.2000e+000	-1.1898	-26.177105
 601	1.2020e+000	-1.2036	-26.411620
 602	1.2040e+000	-1.2138	-26.482067
 603	1.2060e+000	-1.2276	-26.705458
 604	1.2080e+000	-1.2386	-26.826887
 605	1.2100e+000	-1.2497	-27.056767
 606	1.2120e+000	-1.2621	-27.182830
 607	1.2140e+000	-1.2728	-27.293135
 608	1.2160e+000	-1.2835	-27.443298
 609	1.2180e+000	-1.2980	-27.646297
 610	1.2200e+000	-1.3085	-27.854858
 611	1.2220e+000	-1.3194	-28.095861
 612	1.2240e+000	-1.3358	-28.186700
 613	1.2260e+000	-1.3476	-28.234901
 614	1.2280e+000	-1.3560	-28.399895
 615	1.2300e+000	-1.3689	-28.528739
 616	1.2320e+000	-1.3841	-28.683537
 617	1.2340e+000	-1.3934	-28.810527
 618	1.2360e+000	-1.4046	-29.025576
 619	1.2380e+000	-1.4194	-29.215598
 620	1.2400e+000	-1.4289	-29.311999
 621	1.2420e+000	-1.4426	-29.405620
 622	1.2440e+000	-1.4545	-29.467724
 623	1.2460e+000	-1.4639	-29.553002
 624	1.2480e+000	-1.4780	-29.775467
 625	1.2500e+000	-1.4899	-29.967342
 626	1.2520e+000	-1.4997	-30.057255
 627	1.2540e+000	-1.5131	-30.141606
 628	1.2560e+000	-1.5285	-30.197222
 629	1.2580e+000	-1.5388	-30.364070
 630	1.2600e+000	-1.5469	-30.419686
 631	1.2620e+000	-1.5623	-30.416906
 632	1.2640e+000	-1.5736	-30.745968
 633	1.2660e+000	-1.5855	-30.785826
 634	1.2680e+000	-1.5969	-30.885935
 635	1.2700e+000	-1.6083	-31.054637
 636	1.2720e+000	-1.6212	-31.097276
 637	1.2740e+000	-1.6318	-30.999948
 638	1.2760e+000	-1.6448	-31.224266
 639	1.2780e+000	-1.6586	-31.358672
 640	1.2800e+000	-1.6694	-31.429119
 641	1.2820e+000	-1.6827	-31.552401
 642	1.2840e+000	-1.6929	-31.602455
 643	1.2860e+000	-1.7063	-31.721103
 644	1.2880e+000	-1.7171	-31.620067
 645	1.2900e+000	-1.7289	-31.823993
 646	1.2920e+000	-1.7399	-31.844385
 647	1.2940e+000	-1.7534	-32.129881
 648	1.2960e+000	-1.7663	-32.047384
 649	1.2980e+000	-1.7762	-32.141005
 650	1.3000e+000	-1.7891	-32.235552
 651	1.3020e+000	-1.8005	-32.259652
 652	1.3040e+000	-1.8115	-32.230917
 653	1.3060e+000	-1.8263	-32.494167
 654	1.3080e+000	-1.8370	-32.546075
 655	1.3100e+000	-1.8504	-32.475628
 656	1.3120e+000	-1.8626	-32.700873
 657	1.3140e+000	-1.8748	-32.678627
 658	1.3160e+000	-1.8870	-32.739805
 659	1.3180e+000	-1.8974	-32.784297
 660	1.3200e+000	-1.9090	-32.892749
 661	1.3220e+000	-1.9227	-33.076282
 662	1.3240e+000	-1.9322	-33.053109
 663	1.3260e+000	-1.9452	-33.114286
 664	1.3280e+000	-1.9585	-33.126336
 665	1.3300e+000	-1.9711	-33.336751
 666	1.3320e+000	-1.9809	-33.198637
 667	1.3340e+000	-1.9942	-33.251473
 668	1.3360e+000	-2.0058	-33.361778
 669	1.3380e+000	-2.0172	-33.619466
 670	1.3400e+000	-2.0283	-33.433152
 671	1.3420e+000	-2.0417	-33.557361
 672	1.3440e+000	-2.0536	-33.616685
 673	1.3460e+000	-2.0658	-33.611123
 674	1.3480e+000	-2.0777	-33.775191
 675	1.3500e+000	-2.0908	-33.933697
 676	1.3520e+000	-2.1002	-33.859542
 677	1.3540e+000	-2.1138	-33.885496
 678	1.3560e+000	-2.1252	-33.923500
 679	1.3580e+000	-2.1391	-34.034733
 680	1.3600e+000	-2.1489	-34.072737
 681	1.3620e+000	-2.1616	-34.057906
 682	1.3640e+000	-2.1757	-34.167284
 683	1.3660e+000	-2.1851	-34.252562
 684	1.3680e+000	-2.1953	-34.245147
 685	1.3700e+000	-2.2110	-34.224754
 686	1.3720e+000	-2.2197	-34.276663
 687	1.3740e+000	-2.2337	-34.323936
 688	1.3760e+000	-2.2456	-34.421265
 689	1.3780e+000	-2.2588	-34.488931
 690	1.3800e+000	-2.2701	-34.550108
 691	1.3820e+000	-2.2823	-34.502835
 692	1.3840e+000	-2.2933	-34.533424
 693	1.3860e+000	-2.3045	-34.566793
 694	1.3880e+000	-2.3194	-34.638167
 695	1.3900e+000	-2.3298	-34.678025
 696	1.3920e+000	-2.3420	-34.677099
 697	1.3940e+000	-2.3540	-34.898636
 698	1.3960e+000	-2.3669	-34.887513
 699	1.3980e+000	-2.3772	-34.920882
 700	1.4000e+000	-2.3915	-34.926444
 701	1.4020e+000	-2.4020	-34.935713
 702	1.4040e+000	-2.4149	-34.881024
 703	1.4060e+000	-2.4249	-34.971864
 704	1.4080e+000	-2.4373	-35.123881
 705	1.4100e+000	-2.4499	-35.152616
 706	1.4120e+000	-2.4628	-35.128516
 707	1.4140e+000	-2.4767	-35.149835
 708	1.4160e+000	-2.4860	-35.235113
 709	1.4180e+000	-2.4969	-35.201744
 710	1.4200e+000	-2.5114	-35.257360
 711	1.4220e+000	-2.5218	-35.291656
 712	1.4240e+000	-2.5342	-35.274972
 713	1.4260e+000	-2.5455	-35.322245
 714	1.4280e+000	-2.5563	-35.380642
 715	1.4300e+000	-2.5727	-35.467774
 716	1.4320e+000	-2.5815	-35.457578
 717	1.4340e+000	-2.5947	-35.432551
 718	1.4360e+000	-2.6055	-35.480751
 719	1.4380e+000	-2.6164	-35.561394
 720	1.4400e+000	-2.6292	-35.498363
 721	1.4420e+000	-2.6425	-35.611449
 722	1.4440e+000	-2.6561	-35.642038
 723	1.4460e+000	-2.6662	-35.651307
 724	1.4480e+000	-2.6778	-35.756978
 725	1.4500e+000	-2.6905	-35.719900
 726	1.4520e+000	-2.7010	-35.868210
 727	1.4540e+000	-2.7139	-35.791274
 728	1.4560e+000	-2.7277	-35.846890
 729	1.4580e+000	-2.7394	-35.758832
 730	1.4600e+000	-2.7499	-35.996127
 731	1.4620e+000	-2.7594	-35.885822
 732	1.4640e+000	-2.7742	-35.967392
 733	1.4660e+000	-2.7848	-35.983150
 734	1.4680e+000	-2.8004	-36.078624
 735	1.4700e+000	-2.8094	-36.043401
 736	1.4720e+000	-2.8214	-36.043401
 737	1.4740e+000	-2.8310	-36.073063
 738	1.4760e+000	-2.8465	-36.030424
 739	1.4780e+000	-2.8580	-36.087893
 740	1.4800e+000	-2.8716	-36.188002
 741	1.4820e+000	-2.8818	-36.148144
 742	1.4840e+000	-2.8947	-36.225080
 743	1.4860e+000	-2.9031	-36.308504
 744	1.4880e+000	-2.9191	-36.304796
 745	1.4900e+000	-2.9295	-36.280696
 746	1.4920e+000	-2.9411	-36.277915
 747	1.4940e+000	-2.9533	-36.309431
 748	1.4960e+000	-2.9642	-36.339093
 749	1.4980e+000	-2.9790	-36.423444
 750	1.5000e+000	-2.9897	-36.497599
 751	1.5020e+000	-3.0003	-36.521699
 752	1.5040e+000	-2.9893	-36.456814
 753	1.5060e+000	-2.9770	-36.425298
 754	1.5080e+000	-2.9674	-36.373389
 755	1.5100e+000	-2.9539	-36.363193
 756	1.5120e+000	-2.9447	-36.329823
 757	1.5140e+000	-2.9310	-36.379878
 758	1.5160e+000	-2.9179	-36.407686
 759	1.5180e+000	-2.9015	-36.354851
 760	1.5200e+000	-2.8933	-36.314066
 761	1.5220e+000	-2.8813	-36.384513
 762	1.5240e+000	-2.8696	-36.304796
 763	1.5260e+000	-2.8558	-36.257523
 764	1.5280e+000	-2.8461	-36.284404
 765	1.5300e+000	-2.8345	-36.217664
 766	1.5320e+000	-2.8193	-36.219518
 767	1.5340e+000	-2.8071	-36.192637
 768	1.5360e+000	-2.7975	-36.156487
 769	1.5380e+000	-2.7837	-36.160194
 770	1.5400e+000	-2.7705	-36.217664
 771	1.5420e+000	-2.7608	-36.256596
 772	1.5440e+000	-2.7487	-36.200053
 773	1.5460e+000	-2.7394	-35.972954
 774	1.5480e+000	-2.7264	-36.091601
 775	1.5500e+000	-2.7138	-36.071209
 776	1.5520e+000	-2.7031	-36.091601
 777	1.5540e+000	-2.6916	-36.107359
 778	1.5560e+000	-2.6795	-36.086967
 779	1.5580e+000	-2.6659	-36.100871
 780	1.5600e+000	-2.6526	-36.035058
 781	1.5620e+000	-2.6424	-35.891383
 782	1.5640e+000	-2.6283	-35.911776
 783	1.5660e+000	-2.6173	-35.913630
 784	1.5680e+000	-2.6056	-35.921972
 785	1.5700e+000	-2.5938	-35.987785
 786	1.5720e+000	-2.5810	-35.969246
 787	1.5740e+000	-2.5703	-35.908995
 788	1.5760e+000	-2.5572	-35.841329
 789	1.5780e+000	-2.5456	-35.828352
 790	1.5800e+000	-2.5342	-35.813521
 791	1.5820e+000	-2.5217	-35.776443
 792	1.5840e+000	-2.5114	-35.797763
 793	1.5860e+000	-2.5010	-35.785713
 794	1.5880e+000	-2.4847	-35.757905
 795	1.5900e+000	-2.4718	-35.654088
 796	1.5920e+000	-2.4612	-35.686531
 797	1.5940e+000	-2.4481	-35.681896
 798	1.5960e+000	-2.4336	-35.702289
 799	1.5980e+000	-2.4281	-35.647599
 800	1.6000e+000	-2.4129	-35.642038
 801	1.6020e+000	-2.4014	-35.643892
 802	1.6040e+000	-2.3926	-35.501144
 803	1.6060e+000	-2.3747	-35.485386
 804	1.6080e+000	-2.3658	-35.609595
 805	1.6100e+000	-2.3536	-35.542856
 806	1.6120e+000	-2.3410	-35.570664
 807	1.6140e+000	-2.3310	-35.560468
 808	1.6160e+000	-2.3164	-35.457578
 809	1.6180e+000	-2.3050	-35.332442
 810	1.6200e+000	-2.2922	-35.411231
 811	1.6220e+000	-2.2818	-35.378788
 812	1.6240e+000	-2.2717	-35.376934
 813	1.6260e+000	-2.2586	-35.393619
 814	1.6280e+000	-2.2442	-35.428843
 815	1.6300e+000	-2.2350	-35.449235
 816	1.6320e+000	-2.2226	-35.322245
 817	1.6340e+000	-2.2101	-35.113685
 818	1.6360e+000	-2.1972	-35.088658
 819	1.6380e+000	-2.1844	-35.222136
 820	1.6400e+000	-2.1713	-35.185059
 821	1.6420e+000	-2.1623	-35.171155
 822	1.6440e+000	-2.1490	-35.225844
 823	1.6460e+000	-2.1370	-35.134077
 824	1.6480e+000	-2.1275	-35.057142
 825	1.6500e+000	-2.1117	-35.098854
 826	1.6520e+000	-2.1014	-35.034895
 827	1.6540e+000	-2.0893	-34.919955
 828	1.6560e+000	-2.0770	-35.054361
 829	1.6580e+000	-2.0658	-35.035822
 830	1.6600e+000	-2.0531	-35.006160
 831	1.6620e+000	-2.0426	-34.907905
 832	1.6640e+000	-2.0287	-34.927371
 833	1.6660e+000	-2.0180	-34.901417
 834	1.6680e+000	-2.0067	-34.796673
 835	1.6700e+000	-1.9939	-34.792965
 836	1.6720e+000	-1.9796	-34.732715
 837	1.6740e+000	-1.9685	-34.843020
 838	1.6760e+000	-1.9558	-34.694710
 839	1.6780e+000	-1.9471	-34.802235
 840	1.6800e+000	-1.9364	-34.768865
 841	1.6820e+000	-1.9215	-34.688222
 842	1.6840e+000	-1.9099	-34.585332
 843	1.6860e+000	-1.8976	-34.637240
 844	1.6880e+000	-1.8816	-34.553816
 845	1.6900e+000	-1.8736	-34.469465
 846	1.6920e+000	-1.8620	-34.621482
 847	1.6940e+000	-1.8478	-34.543620
 848	1.6960e+000	-1.8378	-34.507469
 849	1.6980e+000	-1.8256	-34.473173
 850	1.7000e+000	-1.8138	-34.468538
 851	1.7020e+000	-1.8005	-34.449999
 852	1.7040e+000	-1.7870	-34.325790
 853	1.7060e+000	-1.7775	-34.352671
 854	1.7080e+000	-1.7647	-34.206216
 855	1.7100e+000	-1.7534	-34.490785
 856	1.7120e+000	-1.7426	-34.263686
 857	1.7140e+000	-1.7291	-34.238658
 858	1.7160e+000	-1.7175	-34.231243
 859	1.7180e+000	-1.7041	-34.212704
 860	1.7200e+000	-1.6934	-34.223827
 861	1.7220e+000	-1.6808	-34.212704
 862	1.7240e+000	-1.6681	-34.050491
 863	1.7260e+000	-1.6566	-33.962432
 864	1.7280e+000	-1.6452	-34.098691
 865	1.7300e+000	-1.6338	-33.974482
 866	1.7320e+000	-1.6225	-33.986532
 867	1.7340e+000	-1.6086	-33.950382
 868	1.7360e+000	-1.5967	-33.932770
 869	1.7380e+000	-1.5842	-33.935551
 870	1.7400e+000	-1.5730	-33.787241
 871	1.7420e+000	-1.5623	-33.686205
 872	1.7440e+000	-1.5491	-33.633370
 873	1.7460e+000	-1.5368	-33.790022
 874	1.7480e+000	-1.5247	-33.741821
 875	1.7500e+000	-1.5134	-33.719575
 876	1.7520e+000	-1.5002	-33.676936
 877	1.7540e+000	-1.4934	-33.579608
 878	1.7560e+000	-1.4764	-33.502672
 879	1.7580e+000	-1.4637	-33.481353
 880	1.7600e+000	-1.4544	-33.404417
 881	1.7620e+000	-1.4423	-33.308943
 882	1.7640e+000	-1.4311	-33.540676
 883	1.7660e+000	-1.4176	-33.468375
 884	1.7680e+000	-1.4036	-33.366413
 885	1.7700e+000	-1.3939	-33.323774
 886	1.7720e+000	-1.3821	-33.237569
 887	1.7740e+000	-1.3700	-33.190295
 888	1.7760e+000	-1.3561	-33.186587
 889	1.7780e+000	-1.3468	-33.114286
 890	1.7800e+000	-1.3341	-33.035497
 891	1.7820e+000	-1.3201	-33.144875
 892	1.7840e+000	-1.3094	-32.946511
 893	1.7860e+000	-1.2994	-33.000273
 894	1.7880e+000	-1.2854	-32.899237
 895	1.7900e+000	-1.2726	-32.884406
 896	1.7920e+000	-1.2617	-32.801909
 897	1.7940e+000	-1.2498	-32.773174
 898	1.7960e+000	-1.2367	-32.668431
 899	1.7980e+000	-1.2242	-32.568322
 900	1.8000e+000	-1.2130	-32.757416
 901	1.8020e+000	-1.2013	-32.636915
 902	1.8040e+000	-1.1906	-32.484897
 903	1.8060e+000	-1.1760	-32.524756
 904	1.8080e+000	-1.1658	-32.369031
 905	1.8100e+000	-1.1539	-32.399619
 906	1.8120e+000	-1.1420	-32.177155
 907	1.8140e+000	-1.1317	-32.195694
 908	1.8160e+000	-1.1185	-32.203109
 909	1.8180e+000	-1.1049	-32.280972
 910	1.8200e+000	-1.0921	-32.064069
 911	1.8220e+000	-1.0829	-32.141932
 912	1.8240e+000	-1.0682	-31.967668
 913	1.8260e+000	-1.0585	-31.870340
 914	1.8280e+000	-1.0449	-31.800820
 915	1.8300e+000	-1.0321	-31.838824
 916	1.8320e+000	-1.0225	-31.781354
 917	1.8340e+000	-1.0069	-31.662706
 918	1.8360e+000	-0.9966	-31.722957
 919	1.8380e+000	-0.9858	-31.543132
 920	1.8400e+000	-0.9709	-31.427265
 921	1.8420e+000	-0.9631	-31.321594
 922	1.8440e+000	-0.9477	-31.324375
 923	1.8460e+000	-0.9386	-31.171431
 924	1.8480e+000	-0.9248	-31.208508
 925	1.8500e+000	-0.9122	-31.081518
 926	1.8520e+000	-0.9022	-30.966578
 927	1.8540e+000	-0.8909	-30.975847
 928	1.8560e+000	-0.8772	-30.826611
 929	1.8580e+000	-0.8662	-30.822903
 930	1.8600e+000	-0.8540	-30.702402
 931	1.8620e+000	-0.8428	-30.509599
 932	1.8640e+000	-0.8298	-30.484572
 933	1.8660e+000	-0.8193	-30.393732
 934	1.8680e+000	-0.8078	-30.230592
 935	1.8700e+000	-0.7909	-30.196295
 936	1.8720e+000	-0.7807	-30.137898
 937	1.8740e+000	-0.7695	-30.057255
 938	1.8760e+000	-0.7581	-30.052620
 939	1.8780e+000	-0.7445	-29.871868
 940	1.8800e+000	-0.7342	-29.669796
 941	1.8820e+000	-0.7198	-29.526121
 942	1.8840e+000	-0.7094	-29.370396
 943	1.8860e+000	-0.6961	-29.371323
 944	1.8880e+000	-0.6870	-29.298095
 945	1.8900e+000	-0.6727	-29.150713
 946	1.8920e+000	-0.6610	-28.987572
 947	1.8940e+000	-0.6486	-28.938445
 948	1.8960e+000	-0.6387	-28.739154
 949	1.8980e+000	-0.6267	-28.513908
 950	1.9000e+000	-0.6134	-28.360964
 951	1.9020e+000	-0.5984	-28.308129
 952	1.9040e+000	-0.5898	-28.068980
 953	1.9060e+000	-0.5760	-28.089372
 954	1.9080e+000	-0.5644	-27.975359
 955	1.9100e+000	-0.5549	-27.711183
 956	1.9120e+000	-0.5407	-27.589754
 957	1.9140e+000	-0.5286	-27.338555
 958	1.9160e+000	-0.5157	-27.155022
 959	1.9180e+000	-0.5038	-26.952950
 960	1.9200e+000	-0.4951	-26.829668
 961	1.9220e+000	-0.4808	-26.714728
 962	1.9240e+000	-0.4659	-26.518217
 963	1.9260e+000	-0.4588	-26.115001
 964	1.9280e+000	-0.4442	-26.096462
 965	1.9300e+000	-0.4342	-25.967618
 966	1.9320e+000	-0.4214	-25.735884
 967	1.9340e+000	-0.4105	-25.371599
 968	1.9360e+000	-0.3956	-25.184358
 969	1.9380e+000	-0.3835	-25.039756
 970	1.9400e+000	-0.3732	-24.803388
 971	1.9420e+000	-0.3602	-24.734795
 972	1.9440e+000	-0.3506	-24.300989
 973	1.9460e+000	-0.3401	-24.003443
 974	1.9480e+000	-0.3268	-23.775417
 975	1.9500e+000	-0.3141	-23.542756
 976	1.9520e+000	-0.3046	-23.235014
 977	1.9540e+000	-0.2906	-22.931906
 978	1.9560e+000	-0.2763	-22.729834
 979	1.9580e+000	-0.2634	-22.515712
 980	1.9600e+000	-0.2514	-22.330326
 981	1.9620e+000	-0.2405	-21.747283
 982	1.9640e+000	-0.2306	-21.547066
 983	1.9660e+000	-0.2155	-21.334797
 984	1.9680e+000	-0.2068	-20.985343
 985	1.9700e+000	-0.1939	-20.635888
 986	1.9720e+000	-0.1808	-20.279019
 987	1.9740e+000	-0.1706	-19.995376
 988	1.9760e+000	-0.1565	-19.681146
 989	1.9780e+000	-0.1425	-19.414188
 990	1.9800e+000	-0.1316	-18.797777
 991	1.9820e+000	-0.1211	-18.531746
 992	1.9840e+000	-0.1080	-18.245323
 993	1.9860e+000	-0.0957	-17.953339
 994	1.9880e+000	-0.0859	-17.573296
 995	1.9900e+000	-0.0735	-17.081093
 996	1.9920e+000	-0.0605	-16.721442
 997	1.9940e+000	-0.0501	-16.319153
 998	1.9960e+000	-0.0357	-16.088346
 999	1.9980e+000	-0.0233	-15.409829
1000	2.0000e+000	-0.0117	-15.166046
1001	2.0020e+000	-0.0021	-14.830495
1002	2.0040e+000	0.0110	-14.359612
1003	2.0060e+000	0.0224	-13.953615
1004	2.0080e+000	0.0350	-13.493855
1005	2.0100e+000	0.0462	-13.096200
1006	2.0120e+000	0.0586	-12.666102
1007	2.0140e+000	0.0710	-12.414903
1008	2.0160e+000	0.0816	-11.672428
1009	2.0180e+000	0.0940	-11.404544
1010	2.0200e+000	0.1057	-10.980008
1011	2.0220e+000	0.1180	-10.609234
1012	2.0240e+000	0.1309	-10.067904
1013	2.0260e+000	0.1411	-9.594240
1014	2.0280e+000	0.1553	-9.189169
1015	2.0300e+000	0.1661	-8.828592
1016	2.0320e+000	0.1756	-8.422594
1017	2.0340e+000	0.1927	-7.691242
1018	2.0360e+000	0.2034	-7.354765
1019	2.0380e+000	0.2131	-7.037753
1020	2.0400e+000	0.2245	-6.479739
1021	2.0420e+000	0.2376	-6.002367
1022	2.0440e+000	0.2529	-5.436010
1023	2.0460e+000	0.2619	-5.042989
1024	2.0480e+000	0.2740	-4.607330
1025	2.0500e+000	0.2857	-4.096589
1026	2.0520e+000	0.2990	-3.299425
1027	2.0540e+000	0.3088	-2.936993
1028	2.0560e+000	0.3233	-2.428106
1029	2.0580e+000	0.3346	-1.960931
1030	2.0600e+000	0.3459	-1.351008
1031	2.0620e+000	0.3609	-0.772600
1032	2.0640e+000	0.3716	-0.322110
1033	2.0660e+000	0.3831	0.189558
1034	2.0680e+000	0.3921	0.742938
1035	2.0700e+000	0.4063	1.511367
1036	2.0720e+000	0.4194	1.913657
1037	2.0740e+000	0.4298	2.462403
1038	2.0760e+000	0.4435	3.025052
1039	2.0780e+000	0.4535	3.564528
1040	2.0800e+000	0.4653	4.045607
1041	2.0820e+000	0.4794	4.544298
1042	2.0840e+000	0.4910	5.131048
1043	2.0860e+000	0.5032	5.750241
1044	2.0880e+000	0.5127	6.504766
1045	2.0900e+000	0.5247	6.844951
1046	2.0920e+000	0.5383	7.250021
1047	2.0940e+000	0.5475	7.717197
1048	2.0960e+000	0.5622	8.333608
1049	2.0980e+000	0.5749	8.778537
1050	2.1000e+000	0.5877	9.266105
1051	2.1020e+000	0.5992	9.792604
1052	2.1040e+000	0.6105	10.651873
1053	2.1060e+000	0.6223	10.929026
1054	2.1080e+000	0.6350	11.331316
1055	2.1100e+000	0.6482	11.743802
1056	2.1120e+000	0.6599	12.217466
1057	2.1140e+000	0.6727	12.706887
1058	2.1160e+000	0.6833	13.225044
1059	2.1180e+000	0.6947	13.629187
1060	2.1200e+000	0.7085	14.125098
1061	2.1220e+000	0.7198	14.688674
1062	2.1240e+000	0.7314	15.004759
1063	2.1260e+000	0.7456	15.268935
1064	2.1280e+000	0.7574	15.784311
1065	2.1300e+000	0.7680	16.271879
1066	2.1320e+000	0.7790	16.740908
1067	2.1340e+000	0.7919	17.229403
1068	2.1360e+000	0.8016	17.494506
1069	2.1380e+000	0.8141	17.830057
1070	2.1400e+000	0.8279	18.483546
1071	2.1420e+000	0.8381	18.809827
1072	2.1440e+000	0.8501	19.126838
1073	2.1460e+000	0.8623	19.539324
1074	2.1480e+000	0.8750	19.887852
1075	2.1500e+000	0.8871	20.312388
1076	2.1520e+000	0.9009	20.693358
1077	2.1540e+000	0.9106	21.076183
1078	2.1560e+000	0.9212	21.457153
1079	2.1580e+000	0.9337	22.005898
1080	2.1600e+000	0.9458	22.182016
1081	2.1620e+000	0.9576	22.663095
1082	2.1640e+000	0.9705	22.948591
1083	2.1660e+000	0.9826	23.291557
1084	2.1680e+000	0.9950	23.752244
1085	2.1700e+000	1.0090	24.174926
1086	2.1720e+000	1.0194	24.483595
1087	2.1740e+000	1.0287	24.809876
1088	2.1760e+000	1.0412	25.293736
1089	2.1780e+000	1.0538	25.493954
1090	2.1800e+000	1.0680	25.883267
1091	2.1820e+000	1.0785	26.317073
1092	2.1840e+000	1.0901	26.676723
1093	2.1860e+000	1.1026	27.070671
1094	2.1880e+000	1.1151	27.396952
1095	2.1900e+000	1.1245	27.741772
1096	2.1920e+000	1.1382	27.999459
1097	2.1940e+000	1.1492	28.497223
1098	2.1960e+000	1.1620	28.658510
1099	2.1980e+000	1.1748	29.198913
1100	2.2000e+000	1.1867	29.521487
1101	2.2020e+000	1.1983	29.865379
1102	2.2040e+000	1.2117	30.150875
1103	2.2060e+000	1.2223	30.404856
1104	2.2080e+000	1.2364	30.570777
1105	2.2100e+000	1.2467	30.952674
1106	2.2120e+000	1.2597	31.388333
1107	2.2140e+000	1.2714	31.454146
1108	2.2160e+000	1.2852	31.694222
1109	2.2180e+000	1.2940	31.893513
1110	2.2200e+000	1.3034	32.043676
1111	2.2220e+000	1.3188	32.168813
1112	2.2240e+000	1.3290	32.394985
1113	2.2260e+000	1.3403	32.558125
1114	2.2280e+000	1.3551	32.674919
1115	2.2300e+000	1.3662	32.746293
1116	2.2320e+000	1.3776	32.706435
1117	2.2340e+000	1.3919	32.899237
1118	2.2360e+000	1.4055	32.941876
1119	2.2380e+000	1.4143	32.995639
1120	2.2400e+000	1.4241	33.146729
1121	2.2420e+000	1.4384	33.172683
1122	2.2440e+000	1.4489	33.187514
1123	2.2460e+000	1.4646	33.237569
1124	2.2480e+000	1.4748	33.176391
1125	2.2500e+000	1.4863	33.235715
1126	2.2520e+000	1.4985	33.415540
1127	2.2540e+000	1.5112	33.486914
1128	2.2560e+000	1.5237	33.546238
1129	2.2580e+000	1.5339	33.562923
1130	2.2600e+000	1.5472	33.561996
1131	2.2620e+000	1.5575	33.669520
1132	2.2640e+000	1.5717	33.571265
1133	2.2660e+000	1.5826	33.501745
1134	2.2680e+000	1.5952	33.650982
1135	2.2700e+000	1.6069	33.885496
1136	2.2720e+000	1.6182	33.835442
1137	2.2740e+000	1.6307	33.839149
1138	2.2760e+000	1.6431	33.866031
1139	2.2780e+000	1.6550	33.919793
1140	2.2800e+000	1.6653	33.980970
1141	2.2820e+000	1.6779	34.040294
1142	2.2840e+000	1.6888	33.847492
1143	2.2860e+000	1.7045	33.963359
1144	2.2880e+000	1.7144	34.137622
1145	2.2900e+000	1.7258	34.164504
1146	2.2920e+000	1.7397	34.084787
1147	2.2940e+000	1.7504	34.184896
1148	2.2960e+000	1.7624	34.259051
1149	2.2980e+000	1.7744	34.314667
1150	2.3000e+000	1.7857	34.223827
1151	2.3020e+000	1.7959	33.995801
1152	2.3040e+000	1.8099	34.212704
1153	2.3060e+000	1.8228	34.348037
1154	2.3080e+000	1.8360	34.373064
1155	2.3100e+000	1.8460	34.439803
1156	2.3120e+000	1.8603	34.537131
1157	2.3140e+000	1.8726	34.473173
1158	2.3160e+000	1.8848	34.460196
1159	2.3180e+000	1.8960	34.515812
1160	2.3200e+000	1.9070	34.415703
1161	2.3220e+000	1.9195	34.450926
1162	2.3240e+000	1.9318	34.680806
1163	2.3260e+000	1.9411	34.838385
1164	2.3280e+000	1.9535	34.717884
1165	2.3300e+000	1.9672	34.692856
1166	2.3320e+000	1.9798	34.630752
1167	2.3340e+000	1.9910	34.786477
1168	2.3360e+000	1.9999	34.772573
1169	2.3380e+000	2.0155	34.729007
1170	2.3400e+000	2.0269	34.767938
1171	2.3420e+000	2.0394	34.879170
1172	2.3440e+000	2.0496	34.797600
1173	2.3460e+000	2.0633	34.868974
1174	2.3480e+000	2.0741	34.764230
1175	2.3500e+000	2.0865	34.827262
1176	2.3520e+000	2.0986	34.935713
1177	2.3540e+000	2.1099	35.009868
1178	2.3560e+000	2.1239	34.958887
1179	2.3580e+000	2.1340	34.850435
1180	2.3600e+000	2.1454	34.996891
1181	2.3620e+000	2.1598	35.074754
1182	2.3640e+000	2.1709	35.049726
1183	2.3660e+000	2.1839	35.049726
1184	2.3680e+000	2.1935	35.155397
1185	2.3700e+000	2.2065	35.187840
1186	2.3720e+000	2.2159	35.213794
1187	2.3740e+000	2.2308	35.160959
1188	2.3760e+000	2.2476	35.140566
1189	2.3780e+000	2.2555	35.231406
1190	2.3800e+000	2.2675	35.247164
1191	2.3820e+000	2.2797	35.321318
1192	2.3840e+000	2.2912	35.430697
1193	2.3860e+000	2.3028	35.324099
1194	2.3880e+000	2.3151	35.360250
1195	2.3900e+000	2.3284	35.352834
1196	2.3920e+000	2.3392	35.401035
1197	2.3940e+000	2.3515	35.230479
1198	2.3960e+000	2.3608	35.343565
1199	2.3980e+000	2.3764	35.412158
1200	2.4000e+000	2.3875	35.592910
1201	2.4020e+000	2.3963	35.498363
1202	2.4040e+000	2.4109	35.552125
1203	2.4060e+000	2.4229	35.549344
1204	2.4080e+000	2.4355	35.648526
1205	2.4100e+000	2.4467	35.420500
1206	2.4120e+000	2.4610	35.430697
1207	2.4140e+000	2.4734	35.561394
1208	2.4160e+000	2.4825	35.797763
1209	2.4180e+000	2.4955	35.749562
1210	2.4200e+000	2.5075	35.693019
1211	2.4220e+000	2.5172	35.605887
1212	2.4240e+000	2.5311	35.785713
1213	2.4260e+000	2.5443	35.734731
1214	2.4280e+000	2.5571	35.667065
1215	2.4300e+000	2.5653	35.718973
1216	2.4320e+000	2.5777	35.884895
1217	2.4340e+000	2.5921	35.913630
1218	2.4360e+000	2.6034	35.882114
1219	2.4380e+000	2.6172	35.770882
1220	2.4400e+000	2.6275	35.741220
1221	2.4420e+000	2.6379	35.787567
1222	2.4440e+000	2.6524	35.865429
1223	2.4460e+000	2.6623	35.923826
1224	2.4480e+000	2.6743	35.897872
1225	2.4500e+000	2.6873	35.947926
1226	2.4520e+000	2.7003	35.945146
1227	2.4540e+000	2.7106	35.929388
1228	2.4560e+000	2.7243	35.941438
1229	2.4580e+000	2.7342	35.916411
1230	2.4600e+000	2.7469	36.034131
1231	2.4620e+000	2.7597	36.132386
1232	2.4640e+000	2.7697	35.998908
1233	2.4660e+000	2.7836	35.945146
1234	2.4680e+000	2.7944	35.999835
1235	2.4700e+000	2.8068	36.076770
1236	2.4720e+000	2.8204	36.161121
1237	2.4740e+000	2.8322	36.245472
1238	2.4760e+000	2.8439	36.215811
1239	2.4780e+000	2.8553	36.192637
1240	2.4800e+000	2.8677	36.180587
1241	2.4820e+000	2.8778	36.146290
1242	2.4840e+000	2.8899	36.188002
1243	2.4860e+000	2.9052	36.227861
1244	2.4880e+000	2.9144	36.309431
1245	2.4900e+000	2.9295	36.330750
1246	2.4920e+000	2.9385	36.389147
1247	2.4940e+000	2.9527	36.297381
1248	2.4960e+000	2.9662	36.237130
1249	2.4980e+000	2.9782	36.213957
1250	2.5000e+000	2.9881	36.235276
1251	2.5020e+000	2.9996	36.348362
1252	2.5040e+000	2.9855	36.498526
1253	2.5060e+000	2.9746	36.347435
1254	2.5080e+000	2.9636	36.366901
1255	2.5100e+000	2.9511	36.350216
1256	2.5120e+000	2.9411	36.298308
1257	2.5140e+000	2.9292	36.253815
1258	2.5160e+000	2.9141	36.259376
1259	2.5180e+000	2.9032	36.251034
1260	2.5200e+000	2.8925	36.274207
1261	2.5220e+000	2.8780	36.213957
1262	2.5240e+000	2.8677	36.204687
1263	2.5260e+000	2.8536	36.242692
1264	2.5280e+000	2.8430	36.250107
1265	2.5300e+000	2.8322	36.231568
1266	2.5320e+000	2.8187	36.208395
1267	2.5340e+000	2.8079	36.191710
1268	2.5360e+000	2.7947	36.088820
1269	2.5380e+000	2.7825	36.083259
1270	2.5400e+000	2.7699	36.149998
1271	2.5420e+000	2.7596	36.132386
1272	2.5440e+000	2.7479	36.138875
1273	2.5460e+000	2.7341	36.100871
1274	2.5480e+000	2.7240	36.037839
1275	2.5500e+000	2.7128	36.018373
1276	2.5520e+000	2.7006	36.052670
1277	2.5540e+000	2.6862	35.986858
1278	2.5560e+000	2.6749	36.009104
1279	2.5580e+000	2.6625	36.043401
1280	2.5600e+000	2.6516	36.054524
1281	2.5620e+000	2.6382	36.033204
1282	2.5640e+000	2.6282	35.997981
1283	2.5660e+000	2.6161	35.801471
1284	2.5680e+000	2.6037	35.840402
1285	2.5700e+000	2.5906	35.932168
1286	2.5720e+000	2.5791	35.795909
1287	2.5740e+000	2.5657	35.919191
1288	2.5760e+000	2.5540	35.899726
1289	2.5780e+000	2.5425	35.876552
1290	2.5800e+000	2.5301	35.692092
1291	2.5820e+000	2.5187	35.849671
1292	2.5840e+000	2.5082	35.827425
1293	2.5860e+000	2.4982	35.828352
1294	2.5880e+000	2.4844	35.767174
1295	2.5900e+000	2.4707	35.778297
1296	2.5920e+000	2.4618	35.812594
1297	2.5940e+000	2.4477	35.718973
1298	2.5960e+000	2.4345	35.707850
1299	2.5980e+000	2.4230	35.716193
1300	2.6000e+000	2.4116	35.692092
1301	2.6020e+000	2.3976	35.668919
1302	2.6040e+000	2.3872	35.679115
1303	2.6060e+000	2.3752	35.620718
1304	2.6080e+000	2.3647	35.515048
1305	2.6100e+000	2.3505	35.576225
1306	2.6120e+000	2.3367	35.553979
1307	2.6140e+000	2.3260	35.561394
1308	2.6160e+000	2.3170	35.557687
1309	2.6180e+000	2.3029	35.598472
1310	2.6200e+000	2.2897	35.508559
1311	2.6220e+000	2.2785	35.478897
1312	2.6240e+000	2.2659	35.429770
1313	2.6260e+000	2.2532	35.420500
1314	2.6280e+000	2.2430	35.462212
1315	2.6300e+000	2.2300	35.435331
1316	2.6320e+000	2.2187	35.447381
1317	2.6340e+000	2.2076	35.591056
1318	2.6360e+000	2.1960	35.514121
1319	2.6380e+000	2.1838	35.459432
1320	2.6400e+000	2.1705	35.454797
1321	2.6420e+000	2.1593	35.515975
1322	2.6440e+000	2.1426	35.290729
1323	2.6460e+000	2.1351	35.375081
1324	2.6480e+000	2.1237	35.389911
1325	2.6500e+000	2.1136	35.474263
1326	2.6520e+000	2.0969	35.382496
1327	2.6540e+000	2.0875	35.312976
1328	2.6560e+000	2.0755	35.214721
1329	2.6580e+000	2.0625	35.294437
1330	2.6600e+000	2.0489	35.223990
1331	2.6620e+000	2.0391	35.159105
1332	2.6640e+000	2.0273	35.141493
1333	2.6660e+000	2.0168	35.301853
1334	2.6680e+000	2.0031	35.211013
1335	2.6700e+000	1.9906	35.071973
1336	2.6720e+000	1.9773	35.047873
1337	2.6740e+000	1.9679	34.977425
1338	2.6760e+000	1.9545	35.022845
1339	2.6780e+000	1.9469	35.055288
1340	2.6800e+000	1.9312	35.051580
1341	2.6820e+000	1.9207	35.154470
1342	2.6840e+000	1.9073	35.115539
1343	2.6860e+000	1.8954	35.003380
1344	2.6880e+000	1.8847	35.022845
1345	2.6900e+000	1.8704	35.049726
1346	2.6920e+000	1.8583	34.924590
1347	2.6940e+000	1.8472	34.957033
1348	2.6960e+000	1.8359	35.001526
1349	2.6980e+000	1.8234	35.012649
1350	2.7000e+000	1.8139	34.932933
1351	2.7020e+000	1.8000	34.949617
1352	2.7040e+000	1.7890	34.886586
1353	2.7060e+000	1.7744	34.904198
1354	2.7080e+000	1.7654	34.877316
1355	2.7100e+000	1.7487	34.752180
1356	2.7120e+000	1.7377	34.822627
1357	2.7140e+000	1.7248	34.765157
1358	2.7160e+000	1.7152	34.663195
1359	2.7180e+000	1.7036	34.704907
1360	2.7200e+000	1.6910	34.712322
1361	2.7220e+000	1.6772	34.623336
1362	2.7240e+000	1.6666	34.693783
1363	2.7260e+000	1.6531	34.723445
1364	2.7280e+000	1.6430	34.644656
1365	2.7300e+000	1.6315	34.566793
1366	2.7320e+000	1.6171	34.563086
1367	2.7340e+000	1.6090	34.595528
1368	2.7360e+000	1.5950	34.641875
1369	2.7380e+000	1.5826	34.660414
1370	2.7400e+000	1.5699	34.606651
1371	2.7420e+000	1.5591	34.580697
1372	2.7440e+000	1.5467	34.478734
1373	2.7460e+000	1.5348	34.496346
1374	2.7480e+000	1.5231	34.521373
1375	2.7500e+000	1.5094	34.527862
1376	2.7520e+000	1.4983	34.482442
1377	2.7540e+000	1.4873	34.550108
1378	2.7560e+000	1.4754	34.485223
1379	2.7580e+000	1.4629	34.349891
1380	2.7600e+000	1.4500	34.317448
1381	2.7620e+000	1.4398	34.399945
1382	2.7640e+000	1.4294	34.269247
1383	2.7660e+000	1.4141	34.253489
1384	2.7680e+000	1.4003	34.325790
1385	2.7700e+000	1.3908	34.206216
1386	2.7720e+000	1.3798	34.234951
1387	2.7740e+000	1.3675	34.276663
1388	2.7760e+000	1.3560	34.264613
1389	2.7780e+000	1.3416	34.158942
1390	2.7800e+000	1.3329	34.241439
1391	2.7820e+000	1.3174	34.191385
1392	2.7840e+000	1.3057	34.211777
1393	2.7860e+000	1.2965	34.107961
1394	2.7880e+000	1.2821	34.095910
1395	2.7900e+000	1.2719	34.190458
1396	2.7920e+000	1.2598	34.158942
1397	2.7940e+000	1.2470	34.080152
1398	2.7960e+000	1.2341	34.090349
1399	2.7980e+000	1.2234	34.034733
1400	2.8000e+000	1.2130	33.948528
1401	2.8020e+000	1.1992	33.906816
1402	2.8040e+000	1.1855	33.977263
1403	2.8060e+000	1.1745	33.937404
1404	2.8080e+000	1.1613	33.943893
1405	2.8100e+000	1.1509	33.895692
1406	2.8120e+000	1.1403	33.939258
1407	2.8140e+000	1.1269	33.827099
1408	2.8160e+000	1.1142	33.829880
1409	2.8180e+000	1.1036	33.770556
1410	2.8200e+000	1.0937	33.848419
1411	2.8220e+000	1.0786	33.708452
1412	2.8240e+000	1.0644	33.665813
1413	2.8260e+000	1.0558	33.727917
1414	2.8280e+000	1.0410	33.709379
1415	2.8300e+000	1.0284	33.569411
1416	2.8320e+000	1.0191	33.517503
1417	2.8340e+000	1.0065	33.670447
1418	2.8360e+000	0.9937	33.637078
1419	2.8380e+000	0.9830	33.587950
1420	2.8400e+000	0.9719	33.566631
1421	2.8420e+000	0.9607	33.475791
1422	2.8440e+000	0.9468	33.440567
1423	2.8460e+000	0.9353	33.445202
1424	2.8480e+000	0.9208	33.410905
1425	2.8500e+000	0.9084	33.405344
1426	2.8520e+000	0.8995	33.392367
1427	2.8540e+000	0.8864	33.409979
1428	2.8560e+000	0.8759	33.417394
1429	2.8580e+000	0.8620	33.257961
1430	2.8600e+000	0.8522	33.231080
1431	2.8620e+000	0.8401	33.318212
1432	2.8640e+000	0.8271	33.189368
1433	2.8660e+000	0.8128	33.158779
1434	2.8680e+000	0.8035	33.141167
1435	2.8700e+000	0.7915	33.151364
1436	2.8720e+000	0.7801	33.126336
1437	2.8740e+000	0.7673	32.991931
1438	2.8760e+000	0.7536	33.026227
1439	2.8780e+000	0.7426	32.985442
1440	2.8800e+000	0.7330	33.054962
1441	2.8820e+000	0.7169	32.991004
1442	2.8840e+000	0.7085	33.068866
1443	2.8860e+000	0.6955	32.920557
1444	2.8880e+000	0.6836	32.865868
1445	2.8900e+000	0.6702	32.872356
1446	2.8920e+000	0.6581	32.902018
1447	2.8940e+000	0.6472	32.773174
1448	2.8960e+000	0.6338	32.732389
1449	2.8980e+000	0.6238	32.814886
1450	2.9000e+000	0.6107	32.754636
1451	2.9020e+000	0.5985	32.694385
1452	2.9040e+000	0.5887	32.670284
1453	2.9060e+000	0.5730	32.566468
1454	2.9080e+000	0.5661	32.580372
1455	2.9100e+000	0.5492	32.508998
1456	2.9120e+000	0.5374	32.545148
1457	2.9140e+000	0.5249	32.482117
1458	2.9160e+000	0.5145	32.428354
1459	2.9180e+000	0.5022	32.292095
1460	2.9200e+000	0.4911	32.312488
1461	2.9220e+000	0.4807	32.174374
1462	2.9240e+000	0.4669	32.247602
1463	2.9260e+000	0.4552	32.184571
1464	2.9280e+000	0.4417	32.115050
1465	2.9300e+000	0.4288	32.105781
1466	2.9320e+000	0.4202	32.030699
1467	2.9340e+000	0.4063	32.109489
1468	2.9360e+000	0.3977	31.790623
1469	2.9380e+000	0.3835	31.749838
1470	2.9400e+000	0.3705	31.747057
1471	2.9420e+000	0.3584	31.777646
1472	2.9440e+000	0.3439	31.669195
1473	2.9460e+000	0.3336	31.647875
1474	2.9480e+000	0.3210	31.496785
1475	2.9500e+000	0.3112	31.475465
1476	2.9520e+000	0.2995	31.361452
1477	2.9540e+000	0.2867	31.125084
1478	2.9560e+000	0.2735	31.092641
1479	2.9580e+000	0.2629	30.989751
1480	2.9600e+000	0.2515	30.866469
1481	2.9620e+000	0.2383	30.766360
1482	2.9640e+000	0.2266	30.543896
1483	2.9660e+000	0.2150	30.287135
1484	2.9680e+000	0.2007	30.179610
1485	2.9700e+000	0.1913	30.001639
1486	2.9720e+000	0.1799	29.629938
1487	2.9740e+000	0.1632	29.395423
1488	2.9760e+000	0.1547	29.050604
1489	2.9780e+000	0.1418	28.722469
1490	2.9800e+000	0.1318	28.304421
1491	2.9820e+000	0.1162	27.994825
1492	2.9840e+000	0.1057	27.643516
1493	2.9860e+000	0.0943	27.218053
1494	2.9880e+000	0.0822	26.651696
1495	2.9900e+000	0.0700	26.039919
1496	2.9920e+000	0.0596	25.519909
1497	2.9940e+000	0.0446	24.848808
1498	2.9960e+000	0.0352	24.236104
1499	2.9980e+000	0.0224	23.619692
1500	3.0000e+000	0.0092	22.992157
1501	3.0020e+000	-0.0024	22.303444
1502	3.0040e+000	-0.0124	21.708352
1503	3.0060e+000	-0.0258	20.824983
1504	3.0080e+000	-0.0357	20.027819
1505	3.0100e+000	-0.0500	19.279783
1506	3.0120e+000	-0.0623	18.521550
1507	3.0140e+000	-0.0719	17.766098
1508	3.0160e+000	-0.0868	16.952249
1509	3.0180e+000	-0.0964	16.084638
1510	3.0200e+000	-0.1086	15.331967
1511	3.0220e+000	-0.1192	14.427278
1512	3.0240e+000	-0.1334	13.442874
1513	3.0260e+000	-0.1443	12.774553
1514	3.0280e+000	-0.1564	11.980170
1515	3.0300e+000	-0.1688	11.113486
1516	3.0320e+000	-0.1817	10.300564
1517	3.0340e+000	-0.1938	9.467250
1518	3.0360e+000	-0.2043	8.657109
1519	3.0380e+000	-0.2171	7.797840
1520	3.0400e+000	-0.2283	7.135081
1521	3.0420e+000	-0.2402	6.137700
1522	3.0440e+000	-0.2535	5.454548
1523	3.0460e+000	-0.2637	4.646261
1524	3.0480e+000	-0.2758	3.850951
1525	3.0500e+000	-0.2886	3.141846
1526	3.0520e+000	-0.3017	2.368782
1527	3.0540e+000	-0.3131	1.733832
1528	3.0560e+000	-0.3237	1.034923
1529	3.0580e+000	-0.3357	0.447246
1530	3.0600e+000	-0.3486	-0.466712
1531	3.0620e+000	-0.3606	-1.044192
1532	3.0640e+000	-0.3737	-1.752370
1533	3.0660e+000	-0.3851	-2.473526
1534	3.0680e+000	-0.3991	-3.118673
1535	3.0700e+000	-0.4080	-3.623852
1536	3.0720e+000	-0.4225	-4.215237
1537	3.0740e+000	-0.4333	-4.778813
1538	3.0760e+000	-0.4451	-5.357220
1539	3.0780e+000	-0.4568	-6.004221
1540	3.0800e+000	-0.4680	-6.493643
1541	3.0820e+000	-0.4815	-7.029411
1542	3.0840e+000	-0.4926	-7.591133
1543	3.0860e+000	-0.5051	-8.079628
1544	3.0880e+000	-0.5164	-8.535680
1545	3.0900e+000	-0.5270	-8.990805
1546	3.0920e+000	-0.5409	-9.531208
1547	3.0940e+000	-0.5529	-9.874174
1548	3.0960e+000	-0.5652	-10.408089
1549	3.0980e+000	-0.5791	-10.766812
1550	3.1000e+000	-0.5900	-11.263650
1551	3.1020e+000	-0.6013	-11.689113
1552	3.1040e+000	-0.6142	-12.087695
1553	3.1060e+000	-0.6261	-12.563212
1554	3.1080e+000	-0.6366	-12.987749
1555	3.1100e+000	-0.6508	-13.365938
1556	3.1120e+000	-0.6615	-13.524444
1557	3.1140e+000	-0.6745	-14.072262
1558	3.1160e+000	-0.6875	-14.461575
1559	3.1180e+000	-0.6988	-14.882403
1560	3.1200e+000	-0.7072	-15.282839
1561	3.1220e+000	-0.7212	-15.649906
1562	3.1240e+000	-0.7346	-16.016972
1563	3.1260e+000	-0.7442	-16.268171
1564	3.1280e+000	-0.7578	-16.725150
1565	3.1300e+000	-0.7685	-16.879021
1566	3.1320e+000	-0.7808	-17.328585
1567	3.1340e+000	-0.7945	-17.608519
1568	3.1360e+000	-0.8073	-17.981147
1569	3.1380e+000	-0.8176	-18.389925
1570	3.1400e+000	-0.8287	-18.650394
1571	3.1420e+000	-0.8415	-19.004483
1572	3.1440e+000	-0.8505	-19.261244
1573	3.1460e+000	-0.8663	-19.586598
1574	3.1480e+000	-0.8759	-19.674657
1575	3.1500e+000	-0.8921	-20.183544
1576	3.1520e+000	-0.9016	-20.483871
1577	3.1540e+000	-0.9161	-20.702628
1578	3.1560e+000	-0.9264	-21.027982
1579	3.1580e+000	-0.9373	-21.337578
1580	3.1600e+000	-0.9499	-21.627709
1581	3.1620e+000	-0.9608	-21.799192
1582	3.1640e+000	-0.9724	-22.093030
1583	3.1660e+000	-0.9838	-22.176454
1584	3.1680e+000	-0.9956	-22.556498
1585	3.1700e+000	-1.0092	-22.889267
1586	3.1720e+000	-1.0237	-23.172909
1587	3.1740e+000	-1.0340	-23.479725
1588	3.1760e+000	-1.0450	-23.643792
1589	3.1780e+000	-1.0571	-23.865330
1590	3.1800e+000	-1.0693	-24.057205
1591	3.1820e+000	-1.0825	-24.231469
1592	3.1840e+000	-1.0932	-24.428906
1593	3.1860e+000	-1.1051	-24.729233
1594	3.1880e+000	-1.1184	-24.964675
1595	3.1900e+000	-1.1301	-25.220509
1596	3.1920e+000	-1.1430	-25.316910
1597	3.1940e+000	-1.1557	-25.578305
1598	3.1960e+000	-1.1661	-25.657095
1599	3.1980e+000	-1.1759	-25.875852
1600	3.2000e+000	-1.1893	-26.127978
1601	3.2020e+000	-1.2019	-26.201206
1602	3.2040e+000	-1.2132	-26.401424
1603	3.2060e+000	-1.2250	-26.622961
1604	3.2080e+000	-1.2375	-26.760147
1605	3.2100e+000	-1.2502	-26.974269
1606	3.2120e+000	-1.2597	-27.140191
1607	3.2140e+000	-1.2721	-27.296843
1608	3.2160e+000	-1.2830	-27.433102
1609	3.2180e+000	-1.2962	-27.618489
1610	3.2200e+000	-1.3093	-27.773287
1611	3.2220e+000	-1.3223	-27.919743
1612	3.2240e+000	-1.3339	-28.058783
1613	3.2260e+000	-1.3448	-28.213581
1614	3.2280e+000	-1.3565	-28.415653
1615	3.2300e+000	-1.3667	-28.579721
1616	3.2320e+000	-1.3837	-28.678903
1617	3.2340e+000	-1.3927	-28.765108
1618	3.2360e+000	-1.4073	-28.921760
1619	3.2380e+000	-1.4171	-29.129393
1620	3.2400e+000	-1.4288	-29.239698
1621	3.2420e+000	-1.4426	-29.366688
1622	3.2440e+000	-1.4540	-29.558564
1623	3.2460e+000	-1.4635	-29.606765
1624	3.2480e+000	-1.4772	-29.748586
1625	3.2500e+000	-1.4917	-29.804202
1626	3.2520e+000	-1.5018	-29.928411
1627	3.2540e+000	-1.5144	-30.055401
1628	3.2560e+000	-1.5253	-30.211126
1629	3.2580e+000	-1.5379	-30.390025
1630	3.2600e+000	-1.5498	-30.456764
1631	3.2620e+000	-1.5623	-30.411344
1632	3.2640e+000	-1.5727	-30.602293
1633	3.2660e+000	-1.5864	-30.732990
1634	3.2680e+000	-1.5982	-30.863688
1635	3.2700e+000	-1.6093	-30.939697
1636	3.2720e+000	-1.6219	-31.050002
1637	3.2740e+000	-1.6330	-31.046294
1638	3.2760e+000	-1.6457	-31.304909
1639	3.2780e+000	-1.6588	-31.325302
1640	3.2800e+000	-1.6708	-31.397603
1641	3.2820e+000	-1.6805	-31.573720
1642	3.2840e+000	-1.6936	-31.632117
1643	3.2860e+000	-1.7039	-31.745203
1644	3.2880e+000	-1.7171	-31.716468
1645	3.2900e+000	-1.7302	-31.747057
1646	3.2920e+000	-1.7409	-31.838824
1647	3.2940e+000	-1.7539	-32.135443
1648	3.2960e+000	-1.7653	-32.152128
1649	3.2980e+000	-1.7789	-32.230917
1650	3.3000e+000	-1.7898	-32.293022
1651	3.3020e+000	-1.8012	-32.402400
1652	3.3040e+000	-1.8143	-32.329172
1653	3.3060e+000	-1.8265	-32.338442
1654	3.3080e+000	-1.8372	-32.507144
1655	3.3100e+000	-1.8497	-32.641549
1656	3.3120e+000	-1.8626	-32.840840
1657	3.3140e+000	-1.8736	-32.819521
1658	3.3160e+000	-1.8852	-32.824156
1659	3.3180e+000	-1.8971	-32.757416
1660	3.3200e+000	-1.9088	-32.826010
1661	3.3220e+000	-1.9235	-32.975246
1662	3.3240e+000	-1.9336	-33.092040
1663	3.3260e+000	-1.9471	-33.125410
1664	3.3280e+000	-1.9569	-33.267231
1665	3.3300e+000	-1.9688	-33.472083
1666	3.3320e+000	-1.9823	-33.317285
1667	3.3340e+000	-1.9946	-33.214395
1668	3.3360e+000	-2.0055	-33.329335
1669	3.3380e+000	-2.0195	-33.497110
1670	3.3400e+000	-2.0283	-33.485060
1671	3.3420e+000	-2.0408	-33.612977
1672	3.3440e+000	-2.0540	-33.746456
1673	3.3460e+000	-2.0655	-33.725136
1674	3.3480e+000	-2.0764	-33.784460
1675	3.3500e+000	-2.0883	-33.786314
1676	3.3520e+000	-2.1016	-33.784460
1677	3.3540e+000	-2.1123	-33.864177
1678	3.3560e+000	-2.1248	-33.962432
1679	3.3580e+000	-2.1375	-34.081079
1680	3.3600e+000	-2.1490	-34.061614
1681	3.3620e+000	-2.1613	-34.032879
1682	3.3640e+000	-2.1717	-34.090349
1683	3.3660e+000	-2.1859	-34.266466
1684	3.3680e+000	-2.1971	-34.264613
1685	3.3700e+000	-2.2097	-34.219193
1686	3.3720e+000	-2.2237	-34.301690
1687	3.3740e+000	-2.2334	-34.366575
1688	3.3760e+000	-2.2458	-34.473173
1689	3.3780e+000	-2.2591	-34.429607
1690	3.3800e+000	-2.2690	-34.501908
1691	3.3820e+000	-2.2809	-34.564012
1692	3.3840e+000	-2.2937	-34.683587
1693	3.3860e+000	-2.3063	-34.677099
1694	3.3880e+000	-2.3157	-34.653925
1695	3.3900e+000	-2.3288	-34.678025
1696	3.3920e+000	-2.3427	-34.881024
1697	3.3940e+000	-2.3552	-34.834677
1698	3.3960e+000	-2.3644	-34.839312
1699	3.3980e+000	-2.3772	-34.796673
1700	3.4000e+000	-2.3895	-34.943129
1701	3.4020e+000	-2.4017	-34.965375
1702	3.4040e+000	-2.4141	-35.030261
1703	3.4060e+000	-2.4281	-34.972791
1704	3.4080e+000	-2.4386	-35.084950
1705	3.4100e+000	-2.4486	-35.099781
1706	3.4120e+000	-2.4607	-35.070119
1707	3.4140e+000	-2.4741	-35.096073
1708	3.4160e+000	-2.4844	-35.130370
1709	3.4180e+000	-2.4986	-35.167447
1710	3.4200e+000	-2.5108	-35.253652
1711	3.4220e+000	-2.5208	-35.359323
1712	3.4240e+000	-2.5348	-35.272191
1713	3.4260e+000	-2.5455	-35.246237
1714	3.4280e+000	-2.5566	-35.299072
1715	3.4300e+000	-2.5696	-35.355615
1716	3.4320e+000	-2.5830	-35.441820
1717	3.4340e+000	-2.5962	-35.464993
1718	3.4360e+000	-2.6042	-35.595691
1719	3.4380e+000	-2.6195	-35.619791
1720	3.4400e+000	-2.6295	-35.577152
1721	3.4420e+000	-2.6414	-35.618864
1722	3.4440e+000	-2.6531	-35.588276
1723	3.4460e+000	-2.6675	-35.629988
1724	3.4480e+000	-2.6783	-35.751416
1725	3.4500e+000	-2.6893	-35.827425
1726	3.4520e+000	-2.7034	-35.853379
1727	3.4540e+000	-2.7138	-35.777370
1728	3.4560e+000	-2.7276	-35.807032
1729	3.4580e+000	-2.7402	-35.920118
1730	3.4600e+000	-2.7510	-35.871918
1731	3.4620e+000	-2.7609	-35.868210
1732	3.4640e+000	-2.7747	-35.939584
1733	3.4660e+000	-2.7853	-36.025789
1734	3.4680e+000	-2.7962	-35.985004
1735	3.4700e+000	-2.8086	-35.985931
1736	3.4720e+000	-2.8218	-35.992419
1737	3.4740e+000	-2.8338	-36.040620
1738	3.4760e+000	-2.8456	-36.091601
1739	3.4780e+000	-2.8574	-36.124971
1740	3.4800e+000	-2.8716	-36.179660
1741	3.4820e+000	-2.8812	-36.112921
1742	3.4840e+000	-2.8931	-36.153706
1743	3.4860e+000	-2.9059	-36.245472
1744	3.4880e+000	-2.9188	-36.267719
1745	3.4900e+000	-2.9290	-36.320554
1746	3.4920e+000	-2.9414	-36.326116
1747	3.4940e+000	-2.9552	-36.354851
1748	3.4960e+000	-2.9665	-36.378951
1749	3.4980e+000	-2.9797	-36.365974
1750	3.5000e+000	-2.9881	-36.454033
1751	3.5020e+000	-3.0031	-36.498526
1752	3.5040e+000	-2.9900	-36.456814
1753	3.5060e+000	-2.9793	-36.446617
1754	3.5080e+000	-2.9659	-36.403978
1755	3.5100e+000	-2.9510	-36.361339
1756	3.5120e+000	-2.9427	-36.340947
1757	3.5140e+000	-2.9292	-36.349289
1758	3.5160e+000	-2.9176	-36.327043
1759	3.5180e+000	-2.9066	-36.329823
1760	3.5200e+000	-2.8939	-36.348362
1761	3.5220e+000	-2.8812	-36.394709
1762	3.5240e+000	-2.8696	-36.262157
1763	3.5260e+000	-2.8577	-36.143510
1764	3.5280e+000	-2.8443	-36.207468
1765	3.5300e+000	-2.8346	-36.347435
1766	3.5320e+000	-2.8220	-36.291819
1767	3.5340e+000	-2.8086	-36.205614
1768	3.5360e+000	-2.7986	-36.139802
1769	3.5380e+000	-2.7867	-36.147217
1770	3.5400e+000	-2.7731	-36.089747
1771	3.5420e+000	-2.7614	-36.128679
1772	3.5440e+000	-2.7480	-36.173171
1773	3.5460e+000	-2.7382	-36.096236
1774	3.5480e+000	-2.7261	-36.252888
1775	3.5500e+000	-2.7126	-36.194491
1776	3.5520e+000	-2.7027	-36.045254
1777	3.5540e+000	-2.6904	-35.978515
1778	3.5560e+000	-2.6765	-35.938657
1779	3.5580e+000	-2.6672	-36.059159
1780	3.5600e+000	-2.6524	-36.055451
1781	3.5620e+000	-2.6429	-35.948853
1782	3.5640e+000	-2.6305	-35.959050
1783	3.5660e+000	-2.6176	-36.091601
1784	3.5680e+000	-2.6048	-35.909922
1785	3.5700e+000	-2.5939	-35.829279
1786	3.5720e+000	-2.5800	-35.848744
1787	3.5740e+000	-2.5706	-35.841329
1788	3.5760e+000	-2.5581	-35.848744
1789	3.5780e+000	-2.5443	-35.928461
1790	3.5800e+000	-2.5348	-35.861721
1791	3.5820e+000	-2.5249	-35.756051
1792	3.5840e+000	-2.5075	-35.809813
1793	3.5860e+000	-2.4971	-35.806105
1794	3.5880e+000	-2.4876	-35.750489
1795	3.5900e+000	-2.4739	-35.722681
1796	3.5920e+000	-2.4609	-35.706923
1797	3.5940e+000	-2.4519	-35.710631
1798	3.5960e+000	-2.4392	-35.665211
1799	3.5980e+000	-2.4277	-35.643892
1800	3.6000e+000	-2.4148	-35.625353
1801	3.6020e+000	-2.4014	-35.655015
1802	3.6040e+000	-2.3895	-35.526171
1803	3.6060e+000	-2.3781	-35.542856
1804	3.6080e+000	-2.3644	-35.591056
1805	3.6100e+000	-2.3534	-35.569737
1806	3.6120e+000	-2.3408	-35.479824
1807	3.6140e+000	-2.3283	-35.547490
1808	3.6160e+000	-2.3170	-35.478897
1809	3.6180e+000	-2.3064	-35.410304
1810	3.6200e+000	-2.2937	-35.364884
1811	3.6220e+000	-2.2813	-35.377861
1812	3.6240e+000	-2.2709	-35.305560
1813	3.6260e+000	-2.2575	-35.310195
1814	3.6280e+000	-2.2452	-35.327807
1815	3.6300e+000	-2.2351	-35.395473
1816	3.6320e+000	-2.2231	-35.319464
1817	3.6340e+000	-2.2105	-35.154470
1818	3.6360e+000	-2.1959	-35.171155
1819	3.6380e+000	-2.1887	-35.181351
1820	3.6400e+000	-2.1759	-35.130370
1821	3.6420e+000	-2.1614	-35.122027
1822	3.6440e+000	-2.1473	-35.170228
1823	3.6460e+000	-2.1370	-35.102562
1824	3.6480e+000	-2.1260	-35.075681
1825	3.6500e+000	-2.1147	-35.070119
1826	3.6520e+000	-2.1025	-35.065484
1827	3.6540e+000	-2.0889	-35.073827
1828	3.6560e+000	-2.0762	-35.009868
1829	3.6580e+000	-2.0647	-35.043238
1830	3.6600e+000	-2.0520	-35.010795
1831	3.6620e+000	-2.0419	-34.859705
1832	3.6640e+000	-2.0299	-34.854143
1833	3.6660e+000	-2.0206	-34.871755
1834	3.6680e+000	-2.0058	-34.836531
1835	3.6700e+000	-1.9936	-34.823554
1836	3.6720e+000	-1.9810	-34.875463
1837	3.6740e+000	-1.9714	-34.740130
1838	3.6760e+000	-1.9563	-34.703980
1839	3.6780e+000	-1.9440	-34.656706
1840	3.6800e+000	-1.9344	-34.656706
1841	3.6820e+000	-1.9221	-34.632606
1842	3.6840e+000	-1.9106	-34.595528
1843	3.6860e+000	-1.8977	-34.654852
1844	3.6880e+000	-1.8855	-34.640948
1845	3.6900e+000	-1.8746	-34.570501
1846	3.6920e+000	-1.8610	-34.437022
1847	3.6940e+000	-1.8489	-34.480588
1848	3.6960e+000	-1.8375	-34.470392
1849	3.6980e+000	-1.8247	-34.428680
1850	3.7000e+000	-1.8128	-34.480588
1851	3.7020e+000	-1.8004	-34.368429
1852	3.7040e+000	-1.7885	-34.386968
1853	3.7060e+000	-1.7796	-34.362868
1854	3.7080e+000	-1.7658	-34.397164
1855	3.7100e+000	-1.7511	-34.170065
1856	3.7120e+000	-1.7428	-34.194165
1857	3.7140e+000	-1.7290	-34.217339
1858	3.7160e+000	-1.7158	-34.225681
1859	3.7180e+000	-1.7045	-34.164504
1860	3.7200e+000	-1.6935	-34.134842
1861	3.7220e+000	-1.6834	-34.157088
1862	3.7240e+000	-1.6698	-34.085714
1863	3.7260e+000	-1.6563	-34.095910
1864	3.7280e+000	-1.6451	-33.882715
1865	3.7300e+000	-1.6310	-33.905889
1866	3.7320e+000	-1.6221	-33.875300
1867	3.7340e+000	-1.6080	-33.777045
1868	3.7360e+000	-1.5956	-33.868811
1869	3.7380e+000	-1.5830	-33.955943
1870	3.7400e+000	-1.5742	-33.776118
1871	3.7420e+000	-1.5611	-33.745529
1872	3.7440e+000	-1.5507	-33.737187
1873	3.7460e+000	-1.5363	-33.554580
1874	3.7480e+000	-1.5226	-33.606489
1875	3.7500e+000	-1.5135	-33.663032
1876	3.7520e+000	-1.5019	-33.657470
1877	3.7540e+000	-1.4890	-33.638005
1878	3.7560e+000	-1.4794	-33.482279
1879	3.7580e+000	-1.4642	-33.518430
1880	3.7600e+000	-1.4552	-33.431298
1881	3.7620e+000	-1.4413	-33.287623
1882	3.7640e+000	-1.4291	-33.364559
1883	3.7660e+000	-1.4191	-33.447983
1884	3.7680e+000	-1.4027	-33.323774
1885	3.7700e+000	-1.3943	-33.250546
1886	3.7720e+000	-1.3811	-33.181026
1887	3.7740e+000	-1.3689	-33.089259
1888	3.7760e+000	-1.3572	-33.025301
1889	3.7780e+000	-1.3455	-33.042912
1890	3.7800e+000	-1.3351	-33.028081
1891	3.7820e+000	-1.3180	-33.090186
1892	3.7840e+000	-1.3079	-33.026227
1893	3.7860e+000	-1.2950	-32.876064
1894	3.7880e+000	-1.2868	-32.789859
1895	3.7900e+000	-1.2732	-32.665650
1896	3.7920e+000	-1.2632	-32.726827
1897	3.7940e+000	-1.2499	-32.809325
1898	3.7960e+000	-1.2388	-32.748147
1899	3.7980e+000	-1.2250	-32.573883
1900	3.8000e+000	-1.2143	-32.662869
1901	3.8020e+000	-1.2036	-32.650819
1902	3.8040e+000	-1.1890	-32.445966
1903	3.8060e+000	-1.1784	-32.435770
1904	3.8080e+000	-1.1633	-32.441332
1905	3.8100e+000	-1.1551	-32.458016
1906	3.8120e+000	-1.1434	-32.434843
1907	3.8140e+000	-1.1302	-32.323611
1908	3.8160e+000	-1.1151	-32.047384
1909	3.8180e+000	-1.1060	-32.191059
1910	3.8200e+000	-1.0944	-31.993622
1911	3.8220e+000	-1.0819	-32.174374
1912	3.8240e+000	-1.0681	-31.967668
1913	3.8260e+000	-1.0592	-31.921321
1914	3.8280e+000	-1.0463	-31.831408
1915	3.8300e+000	-1.0344	-31.913906
1916	3.8320e+000	-1.0194	-31.686807
1917	3.8340e+000	-1.0081	-31.379991
1918	3.8360e+000	-0.9982	-31.582063
1919	3.8380e+000	-0.9845	-31.568159
1920	3.8400e+000	-0.9734	-31.379064
1921	3.8420e+000	-0.9601	-31.329010
1922	3.8440e+000	-0.9501	-31.237243
1923	3.8460e+000	-0.9362	-31.143623
1924	3.8480e+000	-0.9265	-31.169577
1925	3.8500e+000	-0.9140	-31.106545
1926	3.8520e+000	-0.8990	-30.949893
1927	3.8540e+000	-0.8922	-31.017560
1928	3.8560e+000	-0.8770	-30.814561
1929	3.8580e+000	-0.8663	-30.752456
1930	3.8600e+000	-0.8535	-30.691278
1931	3.8620e+000	-0.8408	-30.546677
1932	3.8640e+000	-0.8293	-30.483645
1933	3.8660e+000	-0.8176	-30.455837
1934	3.8680e+000	-0.8047	-30.271377
1935	3.8700e+000	-0.7918	-30.084136
1936	3.8720e+000	-0.7809	-30.200003
1937	3.8740e+000	-0.7681	-29.959927
1938	3.8760e+000	-0.7578	-29.863526
1939	3.8780e+000	-0.7454	-29.819960
1940	3.8800e+000	-0.7349	-29.684627
1941	3.8820e+000	-0.7215	-29.595641
1942	3.8840e+000	-0.7083	-29.362981
1943	3.8860e+000	-0.6968	-29.214671
1944	3.8880e+000	-0.6856	-29.099731
1945	3.8900e+000	-0.6727	-29.145151
1946	3.8920e+000	-0.6592	-28.972741
1947	3.8940e+000	-0.6520	-28.882828
1948	3.8960e+000	-0.6371	-28.707638
1949	3.8980e+000	-0.6266	-28.491662
1950	3.9000e+000	-0.6100	-28.291444
1951	3.9020e+000	-0.5991	-28.233047
1952	3.9040e+000	-0.5896	-28.061564
1953	3.9060e+000	-0.5772	-28.019852
1954	3.9080e+000	-0.5646	-27.941063
1955	3.9100e+000	-0.5547	-27.680594
1956	3.9120e+000	-0.5424	-27.447006
1957	3.9140e+000	-0.5300	-27.280158
1958	3.9160e+000	-0.5170	-27.108675
1959	3.9180e+000	-0.5067	-26.962219
1960	3.9200e+000	-0.4924	-26.858403
1961	3.9220e+000	-0.4808	-26.734193
1962	3.9240e+000	-0.4695	-26.571980
1963	3.9260e+000	-0.4563	-26.290191
1964	3.9280e+000	-0.4462	-26.046408
1965	3.9300e+000	-0.4343	-25.824870
1966	3.9320e+000	-0.4209	-25.632995
1967	3.9340e+000	-0.4115	-25.339156
1968	3.9360e+000	-0.3960	-25.199189
1969	3.9380e+000	-0.3870	-25.114838
1970	3.9400e+000	-0.3735	-24.679179
1971	3.9420e+000	-0.3602	-24.572581
1972	3.9440e+000	-0.3500	-24.228688
1973	3.9460e+000	-0.3366	-23.932069
1974	3.9480e+000	-0.3249	-23.603934
1975	3.9500e+000	-0.3148	-23.498264
1976	3.9520e+000	-0.2997	-23.252626
1977	3.9540e+000	-0.2898	-22.968984
1978	3.9560e+000	-0.2759	-22.606552
1979	3.9580e+000	-0.2669	-22.437850
1980	3.9600e+000	-0.2541	-22.240413
1981	3.9620e+000	-0.2410	-21.787142
1982	3.9640e+000	-0.2293	-21.449737
1983	3.9660e+000	-0.2163	-21.204100
1984	3.9680e+000	-0.2061	-20.931581
1985	3.9700e+000	-0.1942	-20.630327
1986	3.9720e+000	-0.1806	-20.302192
1987	3.9740e+000	-0.1688	-19.952737
1988	3.9760e+000	-0.1584	-19.591233
1989	3.9780e+000	-0.1440	-19.326129
1990	3.9800e+000	-0.1337	-18.903447
1991	3.9820e+000	-0.1227	-18.528965
1992	3.9840e+000	-0.1089	-18.121114
1993	3.9860e+000	-0.0986	-17.815226
1994	3.9880e+000	-0.0844	-17.482456
1995	3.9900e+000	-0.0727	-17.006938
1996	3.9920e+000	-0.0605	-16.634310
1997	3.9940e+000	-0.0489	-16.204213
1998	3.9960e+000	-0.0356	-15.896470
1999	3.9980e+000	-0.0266	-15.450615
2000	4.0000e+000	-0.0133	-15.110429
2001	4.0020e+000	-0.0018	-14.737802

Center data before PMax,±Pr and ±Vc Calc.

PMax (µC/cm2):	3.63e+001
Pr (µC/cm2):	2.24e+001
-Pr (µC/cm2):	-1.47e+001
Vc:	3.79e-001
-Vc:	-3.42e-001
C (Max-Eff) (nF):	5.95e-002
Vert. (±Pr) Shift (µC/cm2):	3.85e+000
Horiz. Shift (±Vc):	1.84e-002
Offset (µC/cm2):	9.78e+000

A (Loop Area - µC/cm2·Volts):	5.43e+001



Hysteresis Version: 5.12.0 - Radiant Technologies, Inc., 1999 - 11/30/16

